LabVIEW Measurement	
Writer_Version	2
Reader_Version	2
Separator	Tab
Decimal_Separator	.
Multi_Headings	No
X_Columns	One
Time_Pref	Absolute
Operator	User
Description	Clolumns are: time, Current, Voltage, Power, Battery Temp, and Chamber Temp
Date	2023/09/06
Time	15:36:28.1036934852600097656
***End_of_Header***	
	
Channels	5					
Samples	1	1	1	1	1	
Date	2023/09/06	2023/09/06	2023/09/06	2023/09/06	2023/09/06	
Time	15:36:28.1036934852600097656	15:36:28.110691070556640625	15:36:28.1176576614379882812	15:36:28.2933640480041503906	15:36:28.2933640480041503906	
X_Dimension	Time	Time	Time	Time	Time	
X0	0.0000000000000000E+0	0.0000000000000000E+0	0.0000000000000000E+0	0.0000000000000000E+0	0.0000000000000000E+0	
Delta_X	1.000000	1.000000	1.000000	1.000000	1.000000	
***End_of_Header***						
X_Value	Untitled	Untitled 1	Untitled 2	Untitled 3	Untitled 4	Comment
0.000000	-2.585500	3.664500	-9.474100	20.774156	20.141075
0.215267	-2.599600	3.639400	-9.460300	20.780705	20.122830
1.210604	-2.609600	3.537800	-9.231700	20.775266	20.119608
2.209430	-2.576600	3.454600	-8.901000	20.773144	20.123777
3.208662	-2.601700	3.385000	-8.806300	20.781679	20.128616
4.210976	-2.619700	3.337300	-8.742400	20.774091	20.118432
5.208066	-2.598800	3.309000	-8.599200	20.771980	20.122613
6.208261	-2.618300	3.292700	-8.621100	20.779101	20.117893
7.209332	-2.600200	3.281800	-8.532700	20.772214	20.107302
8.212475	-2.569500	3.272400	-8.407300	20.771447	20.122449
9.211761	-2.589100	3.266500	-8.457000	20.776827	20.118949
10.209442	-2.608400	3.262200	-8.509100	20.774390	20.138348
11.208856	-2.596900	3.256700	-8.457100	20.773525	20.109723
12.210486	-2.605600	3.253200	-8.476500	20.765376	20.117115
13.207285	-2.592500	3.249900	-8.425300	20.794283	20.111988
14.209631	-2.613700	3.244700	-8.480200	20.797873	20.123723
15.210375	-2.625600	3.241300	-8.510000	20.786542	20.112015
16.208056	-2.581100	3.239200	-8.360400	20.788032	20.125720
17.209023	-2.595900	3.237300	-8.403400	20.785568	20.112891
18.207151	-2.589700	3.233500	-8.373500	20.796627	20.108412
19.285954	-2.611600	3.231400	-8.439200	20.796170	20.120168
20.218495	-2.604000	3.228100	-8.405700	20.789213	20.127642
21.207308	-2.597400	3.226200	-8.379200	20.796295	20.120294
22.210428	-2.603500	3.225400	-8.396800	20.782419	20.112331
23.209918	-2.615200	3.221600	-8.424800	20.792607	20.113642
24.211616	-2.596200	3.219800	-8.358800	20.813348	20.107377
25.211845	-2.596900	3.219400	-8.359700	20.792760	20.094178
26.207330	-2.592200	3.216500	-8.337000	20.793788	20.108531
27.208351	-2.584200	3.214300	-8.306000	20.785677	20.093013
28.205508	-2.594900	3.212100	-8.334700	20.809187	20.108766
29.211393	-2.598100	3.209700	-8.338600	20.797748	20.074741
30.208239	-2.597800	3.208600	-8.334800	20.807735	20.089176
31.210721	-2.622800	3.207400	-8.411600	20.798390	20.077234
32.219002	-2.616100	3.205600	-8.385900	20.803361	20.099975
33.217597	-2.593000	3.204900	-8.310000	20.800517	20.091206
34.211992	-2.620200	3.202800	-8.391800	20.801088	20.099180
35.209496	-2.602700	3.201600	-8.332600	20.816541	20.087995
36.209450	-2.589300	3.199700	-8.284800	20.818309	20.098277
37.208279	-2.624200	3.197700	-8.391300	20.813240	20.110970
38.217364	-2.600400	3.198500	-8.317000	20.805091	20.102076
39.210702	-2.594400	3.197200	-8.294200	20.810874	20.101570
40.213167	-2.612500	3.194300	-8.344600	20.808681	20.094565
41.207664	-2.585400	3.194100	-8.257300	20.800147	20.096758
42.207230	-2.572600	3.194600	-8.217900	20.822656	20.095223
43.210184	-2.583400	3.192200	-8.246100	20.821193	20.086357
44.207572	-2.588000	3.191800	-8.259800	20.817189	20.083831
45.211226	-2.620000	3.190500	-8.358800	20.813109	20.088632
46.208098	-2.583600	3.191000	-8.244000	20.817657	20.085410
47.213859	-2.633500	3.188900	-8.397500	20.825343	20.071633
48.211727	-2.573200	3.189500	-8.207100	20.828210	20.071911
49.210745	-2.582200	3.187600	-8.230800	20.830494	20.095294
50.209519	-2.585800	3.187800	-8.242800	20.818108	20.100667
51.205816	-2.594300	3.186800	-8.267400	20.810901	20.101597
52.210546	-2.595700	3.186200	-8.270500	20.830429	20.092268
53.208650	-2.623500	3.185700	-8.357200	20.824908	20.083412
54.206695	-2.619300	3.184600	-8.341100	20.824342	20.084697
55.209013	-2.616300	3.185400	-8.333800	20.821830	20.080702
56.211067	-2.597500	3.184900	-8.272600	20.821443	20.086237
57.209979	-2.622500	3.183500	-8.348500	20.833551	20.085029
58.211481	-2.603200	3.183500	-8.286400	20.848716	20.085399
59.214305	-2.596600	3.183100	-8.264800	20.815237	20.081137
60.205854	-2.605400	3.181000	-8.287000	20.837881	20.074927
61.209165	-2.573000	3.182000	-8.186800	20.845197	20.075215
62.210639	-2.593600	3.181900	-8.252200	20.811734	20.083184
63.208051	-2.595900	3.181400	-8.258400	20.825892	20.086988
64.207376	-2.598400	3.181300	-8.265900	20.828885	20.092573
65.213133	-2.639400	3.180800	-8.395100	20.840568	20.079096
66.210550	-2.596400	3.181700	-8.260300	20.842880	20.086591
67.212730	-2.603000	3.180000	-8.277200	20.850637	20.088431
68.208485	-2.592100	3.179800	-8.242100	20.823690	20.085154
69.207001	-2.618800	3.179900	-8.327200	20.855021	20.078013
70.208559	-2.610300	3.179900	-8.300200	20.846883	20.082825
71.209145	-2.633200	3.179000	-8.370400	20.855353	20.084637
72.209919	-2.613200	3.179600	-8.308900	20.857050	20.080784
73.209146	-2.627800	3.178800	-8.353300	20.838763	20.077659
74.213458	-2.592900	3.178400	-8.241300	20.840710	20.085530
75.210353	-2.567400	3.179300	-8.162200	20.842184	20.085524
76.210206	-2.597000	3.178400	-8.254200	20.854901	20.084186
77.213591	-2.637300	3.177400	-8.379500	20.855576	20.075978
78.212106	-2.603200	3.178400	-8.273400	20.838491	20.080719
79.206609	-2.598200	3.177300	-8.254900	20.856974	20.074046
80.210701	-2.604600	3.177800	-8.276400	20.854592	20.076843
81.213244	-2.604200	3.177500	-8.274100	20.846352	20.072299
82.209830	-2.597200	3.177600	-8.252800	20.859172	20.059959
83.206634	-2.601000	3.177200	-8.263600	20.847679	20.072887
84.208918	-2.613200	3.178100	-8.304700	20.865520	20.072234
85.211307	-2.596200	3.177600	-8.249700	20.863345	20.070057
86.212348	-2.586400	3.177500	-8.217900	20.851786	20.064783
87.207899	-2.602600	3.177800	-8.270000	20.850497	20.076817
88.206383	-2.584700	3.176700	-8.210700	20.862774	20.055050
89.210276	-2.617600	3.176300	-8.314000	20.876649	20.063014
90.209071	-2.590100	3.175600	-8.224900	20.877917	20.079828
91.209826	-2.589500	3.177000	-8.225600	20.861029	20.071811
92.210143	-2.593800	3.176100	-8.238200	20.863655	20.082952
93.209654	-2.601700	3.177100	-8.265300	20.869345	20.083835
94.208704	-2.597800	3.176200	-8.250600	20.863590	20.090290
95.212266	-2.589200	3.176000	-8.222500	20.870281	20.078849
96.212015	-2.591600	3.176200	-8.231000	20.869128	20.080656
97.210878	-2.622000	3.175700	-8.326600	20.863243	20.071066
98.210635	-2.580600	3.176000	-8.195700	20.862253	20.067484
99.211874	-2.633900	3.174300	-8.360700	20.859120	20.058427
100.209158	-2.600000	3.174800	-8.254100	20.862134	20.061072
101.208044	-2.603000	3.176500	-8.268100	20.872996	20.051214
102.212090	-2.602200	3.174400	-8.259900	20.855187	20.060413
103.210266	-2.598300	3.176500	-8.252900	20.859931	20.045173
104.207457	-2.573900	3.175800	-8.173800	20.878376	20.051787
105.210106	-2.633700	3.174800	-8.361200	20.875977	20.049386
106.210549	-2.607700	3.175200	-8.279700	20.888824	20.049658
107.210399	-2.600900	3.176400	-8.261200	20.881536	20.061241
108.208878	-2.633700	3.174900	-8.361500	20.879910	20.047399
109.209663	-2.593500	3.174600	-8.232800	20.887361	20.056707
110.208801	-2.594800	3.175800	-8.240300	20.864495	20.056402
111.208167	-2.604800	3.174800	-8.269400	20.879024	20.056136
112.210056	-2.614900	3.174200	-8.299800	20.885942	20.047884
113.213634	-2.597800	3.174500	-8.246300	20.878969	20.048309
114.211087	-2.593000	3.173800	-8.229200	20.885355	20.039524
115.211199	-2.594900	3.175400	-8.239300	20.898931	20.036083
116.214067	-2.600300	3.174400	-8.254100	20.901123	20.037537
117.213788	-2.607600	3.174900	-8.278700	20.879742	20.053524
118.213206	-2.623900	3.174300	-8.328400	20.891056	20.061885
119.212478	-2.602000	3.174500	-8.259600	20.886264	20.041914
120.211111	-2.601000	3.174100	-8.255400	20.899263	20.039747
121.212880	-2.586100	3.174700	-8.209400	20.886906	20.048478
122.212447	-2.625600	3.173900	-8.333100	20.892459	20.060329
123.210982	-2.592200	3.174300	-8.228200	20.908554	20.053856
124.210838	-2.580900	3.173500	-8.190300	20.908309	20.045098
125.211972	-2.613400	3.173500	-8.293300	20.889870	20.031457
126.207869	-2.611200	3.174500	-8.288600	20.889273	20.045295
127.206474	-2.596100	3.175400	-8.243700	20.898112	20.048218
128.209987	-2.587700	3.173800	-8.212200	20.904688	20.039993
129.208558	-2.590600	3.173800	-8.222100	20.905003	20.022912
130.211225	-2.608700	3.173400	-8.278000	20.893836	20.032835
131.208697	-2.617200	3.174000	-8.306500	20.907266	20.019254
132.209066	-2.618100	3.174500	-8.310300	20.899177	20.031518
133.209793	-2.619500	3.173800	-8.313300	20.884481	20.039389
134.210405	-2.617500	3.172800	-8.304200	20.879526	20.023696
135.212422	-2.620900	3.172400	-8.313900	20.896072	20.032482
136.214262	-2.628200	3.172800	-8.338600	20.894908	20.040200
137.211256	-2.570400	3.173700	-8.157200	20.897829	20.043864
138.209206	-2.584700	3.174300	-8.204700	20.930251	20.011906
139.209729	-2.629400	3.173700	-8.344400	20.913407	20.029472
140.211051	-2.608300	3.173500	-8.276800	20.916502	20.026647
141.210687	-2.597500	3.174000	-8.244200	20.914957	20.023251
142.211154	-2.601400	3.173300	-8.254700	20.912918	20.024541
143.213871	-2.587800	3.173500	-8.212000	20.902779	20.016985
144.210894	-2.601300	3.172800	-8.253700	20.908126	20.036032
145.210218	-2.582100	3.174000	-8.195600	20.912826	20.044067
146.212539	-2.596100	3.172500	-8.235900	20.921980	20.040643
147.211680	-2.620400	3.172600	-8.313400	20.916938	20.031896
148.211975	-2.614500	3.172800	-8.294800	20.926408	20.029898
149.212002	-2.629500	3.172800	-8.342300	20.924548	20.009529
150.209258	-2.592600	3.173300	-8.226800	20.931701	20.015947
151.210372	-2.614100	3.171900	-8.291100	20.926648	20.016443
152.208823	-2.587800	3.172600	-8.209400	20.917086	20.024271
153.208670	-2.617600	3.172500	-8.303800	20.925403	20.042958
154.210075	-2.594100	3.172600	-8.229800	20.930027	20.026487
155.209890	-2.609800	3.172500	-8.279100	20.922467	20.020402
156.209197	-2.570800	3.173100	-8.156700	20.921852	20.026449
157.209086	-2.634800	3.171500	-8.355800	20.924730	20.006750
158.210299	-2.640900	3.171200	-8.374200	20.950429	20.029139
159.210269	-2.620000	3.172200	-8.310400	20.928984	20.012118
160.207628	-2.610900	3.171800	-8.281100	20.915136	20.036015
161.208679	-2.599100	3.172400	-8.245300	20.935766	20.009282
162.210702	-2.610300	3.172600	-8.281100	20.952127	20.010850
163.211127	-2.579400	3.172900	-8.183900	20.923872	20.010704
164.212718	-2.601200	3.170800	-8.247900	20.940902	20.010721
165.211190	-2.605800	3.171000	-8.262700	20.937095	20.015054
166.208660	-2.587000	3.172400	-8.206600	20.910771	20.016099
167.207462	-2.572400	3.172500	-8.160500	20.939527	20.018969
168.210456	-2.601900	3.171700	-8.252200	20.940887	20.026622
169.209256	-2.598900	3.171200	-8.241100	20.925751	20.021097
170.211760	-2.596400	3.171800	-8.234800	20.941226	20.022519
171.210402	-2.582200	3.173000	-8.193000	20.925753	20.020359
172.210160	-2.596100	3.171000	-8.231600	20.933944	20.019673
173.212345	-2.639900	3.171700	-8.372400	20.930839	20.019527
174.210063	-2.598700	3.171800	-8.242300	20.947037	20.030186
175.209927	-2.577100	3.171900	-8.173800	20.947722	20.020508
176.211514	-2.641800	3.169900	-8.373400	20.938129	20.025713
177.213126	-2.593300	3.170200	-8.220800	20.954582	20.024042
178.209791	-2.610600	3.171600	-8.279700	20.942421	20.015942
179.211164	-2.601300	3.170900	-8.247900	20.946496	20.021871
180.209840	-2.610200	3.171900	-8.278600	20.936815	20.026988
181.211164	-2.614000	3.170100	-8.286100	20.940378	20.014267
182.210772	-2.613100	3.171300	-8.286700	20.949854	20.027083
183.208452	-2.597900	3.171300	-8.238400	20.947346	20.013469
184.211428	-2.600600	3.171200	-8.246700	20.936773	20.043974
185.210100	-2.607300	3.171200	-8.268000	20.943111	20.009970
186.210576	-2.608600	3.170800	-8.270500	20.947973	20.040377
187.207084	-2.576300	3.171600	-8.170500	20.948431	20.014184
188.212976	-2.595500	3.170300	-8.227900	20.956791	20.018850
189.214033	-2.591800	3.171000	-8.218600	20.952017	19.979276
190.215181	-2.575100	3.172300	-8.169100	20.956743	20.014360
191.211489	-2.604900	3.170400	-8.258300	20.940911	20.016652
192.215438	-2.616700	3.171000	-8.296900	20.939377	20.018448
193.213095	-2.604800	3.170400	-8.257900	20.951002	20.026381
194.211146	-2.577900	3.171000	-8.174100	20.967661	20.017144
195.211694	-2.583400	3.169400	-8.187400	20.953705	20.009469
196.211019	-2.595300	3.171300	-8.230200	20.964105	20.000259
197.209644	-2.596300	3.170300	-8.231300	20.967684	20.031973
198.210304	-2.608100	3.169900	-8.267400	20.969082	20.015975
199.210243	-2.574100	3.170600	-8.161200	20.961197	20.024740
200.208751	-2.596400	3.170600	-8.232000	20.956552	20.013798
201.209346	-2.595500	3.171500	-8.231300	20.953861	20.015547
202.210260	-2.592200	3.170200	-8.217500	20.962906	20.037555
203.209117	-2.629000	3.169000	-8.331000	20.962961	20.029836
204.209649	-2.593600	3.170800	-8.223300	20.955401	20.011536
205.207219	-2.593900	3.170400	-8.223400	20.954406	20.013502
206.209820	-2.602500	3.169800	-8.249300	20.968162	20.037263
207.209332	-2.607700	3.169600	-8.264300	20.970778	20.037660
208.209654	-2.628400	3.169300	-8.329800	20.964110	20.035059
209.209610	-2.588200	3.169600	-8.203300	20.969305	20.030634
210.214033	-2.606700	3.168900	-8.260100	20.972813	20.028593
211.211468	-2.595300	3.170300	-8.227900	20.971704	20.021930
212.214403	-2.571200	3.170700	-8.152200	20.972585	20.023553
213.212836	-2.610900	3.169500	-8.274900	20.982822	20.037129
214.213671	-2.593800	3.168900	-8.219100	20.969454	20.042257
215.210469	-2.614900	3.169300	-8.287100	20.999922	20.036107
216.211303	-2.594800	3.169800	-8.224400	20.989034	20.029281
217.211819	-2.590500	3.168700	-8.208200	20.975035	20.041180
218.209004	-2.608900	3.169800	-8.269600	20.982058	20.027851
219.209740	-2.630800	3.168500	-8.335300	20.991456	20.026523
220.209758	-2.593100	3.170400	-8.220600	20.987052	20.015453
221.209086	-2.610500	3.169500	-8.273700	20.982461	20.019372
222.211510	-2.601300	3.168800	-8.242700	20.992779	20.028588
223.210047	-2.600100	3.168300	-8.237500	20.985813	20.035682
224.210105	-2.608700	3.169100	-8.267000	20.988663	20.034092
225.208875	-2.589200	3.168700	-8.203800	20.994869	20.042524
226.214239	-2.581500	3.168400	-8.178800	20.999792	20.029684
227.210242	-2.594000	3.169300	-8.221000	20.989769	20.042972
228.209469	-2.588700	3.168200	-8.201000	21.013167	20.050103
229.208835	-2.615300	3.169600	-8.289200	20.992680	20.044405
230.211857	-2.586800	3.168500	-8.196000	21.007419	20.048792
231.211129	-2.599700	3.168900	-8.237800	21.002041	20.060066
232.212346	-2.602500	3.169600	-8.248300	21.000199	20.051560
233.212859	-2.603700	3.168800	-8.250100	20.997888	20.062942
234.207547	-2.607600	3.169500	-8.264100	20.999639	20.053961
235.208742	-2.603600	3.169400	-8.251800	21.013149	20.065262
236.211937	-2.608100	3.168700	-8.263700	21.004830	20.055084
237.208865	-2.600600	3.168400	-8.239500	21.020389	20.050300
238.207134	-2.591300	3.168500	-8.210100	20.999751	20.058514
239.208976	-2.600100	3.169000	-8.239800	20.996466	20.062630
240.210005	-2.573900	3.167400	-8.152500	21.007927	20.055223
241.210132	-2.593600	3.168400	-8.217300	21.000694	20.060568
242.211831	-2.603100	3.168100	-8.246700	21.007140	20.063689
243.212399	-2.605700	3.167600	-8.253700	21.004758	20.073520
244.210079	-2.610000	3.167500	-8.266900	21.010882	20.070396
245.211204	-2.573200	3.168500	-8.152800	21.007445	20.073248
246.211010	-2.581200	3.168200	-8.177600	21.016508	20.058999
247.213413	-2.565700	3.168500	-8.129200	21.011988	20.057808
248.211951	-2.607700	3.167900	-8.260600	21.019582	20.061706
249.212275	-2.612400	3.167500	-8.274700	21.029611	20.058419
250.211014	-2.604200	3.167500	-8.248700	21.003757	20.068817
251.211859	-2.609400	3.166100	-8.260800	21.031979	20.061899
252.209766	-2.601400	3.167200	-8.238300	21.016365	20.054045
253.209536	-2.623700	3.166800	-8.308500	21.025997	20.050731
254.210377	-2.594400	3.168500	-8.219900	21.010635	20.072369
255.210318	-2.627500	3.166800	-8.320300	21.026924	20.060541
256.213239	-2.615000	3.167300	-8.282100	21.020827	20.053699
257.211008	-2.606900	3.168200	-8.258500	21.031891	20.070324
258.208653	-2.614700	3.167400	-8.281300	21.036851	20.059373
259.211047	-2.605400	3.166100	-8.248300	21.042405	20.071965
260.212017	-2.586900	3.168100	-8.194700	21.027189	20.069319
261.207078	-2.585000	3.166400	-8.184500	21.018374	20.047542
262.210303	-2.585800	3.167700	-8.190700	21.034941	20.060052
263.213064	-2.588400	3.166400	-8.195600	21.030242	20.068304
264.211867	-2.630100	3.166600	-8.328300	21.036129	20.057910
265.212266	-2.592800	3.166800	-8.210500	21.032187	20.058406
266.210234	-2.593000	3.166900	-8.211500	21.048791	20.074654
267.212606	-2.626500	3.166500	-8.316500	21.049510	20.079446
268.212433	-2.595600	3.166800	-8.219700	21.035169	20.084709
269.213740	-2.593300	3.166500	-8.211500	21.037558	20.083029
270.208872	-2.581400	3.167500	-8.175900	21.062342	20.063418
271.211123	-2.591300	3.166500	-8.204800	21.034922	20.054851
272.209302	-2.597600	3.167100	-8.226900	21.049830	20.084207
273.211916	-2.595000	3.167200	-8.218600	21.070539	20.084577
274.209827	-2.607100	3.165400	-8.252600	21.054661	20.074978
275.212358	-2.609700	3.167100	-8.264700	21.054336	20.079464
276.212928	-2.615800	3.166100	-8.281500	21.070705	20.078822
277.211111	-2.628800	3.166600	-8.324000	21.069874	20.071698
278.211070	-2.588600	3.167100	-8.198400	21.056623	20.082493
279.210255	-2.616300	3.166700	-8.284500	21.069980	20.077726
280.213195	-2.612200	3.165900	-8.269600	21.054421	20.072146
281.208930	-2.607900	3.166700	-8.258100	21.079612	20.089587
282.211973	-2.625400	3.165700	-8.310300	21.080711	20.087726
283.213264	-2.593200	3.167300	-8.213000	21.062092	20.089818
284.212190	-2.595800	3.166100	-8.218400	21.081790	20.100651
285.206906	-2.582100	3.166400	-8.175700	21.076657	20.099955
286.207228	-2.598400	3.168000	-8.231000	21.077316	20.094691
287.208549	-2.602000	3.166100	-8.238000	21.094940	20.116403
288.211486	-2.591500	3.165600	-8.203500	21.065903	20.117320
289.209326	-2.598300	3.166200	-8.226300	21.096542	20.101351
290.210158	-2.612200	3.165700	-8.269200	21.097217	20.116461
291.211262	-2.614800	3.166300	-8.278800	21.087233	20.113130
292.213418	-2.609900	3.166500	-8.264100	21.107300	20.109528
293.211576	-2.601700	3.166300	-8.237600	21.093978	20.116920
294.211902	-2.602100	3.166700	-8.240000	21.104440	20.115548
295.210329	-2.602000	3.165500	-8.236700	21.107966	20.114635
296.214734	-2.609100	3.164600	-8.256500	21.095932	20.109253
297.213058	-2.601700	3.164700	-8.233500	21.105024	20.107990
298.212873	-2.573700	3.166700	-8.150400	21.090755	20.116285
299.213044	-2.612800	3.165500	-8.270200	21.094480	20.100027
300.212430	-2.616400	3.165700	-8.282400	21.110995	20.126920
301.211471	-2.615800	3.165200	-8.279400	21.116576	20.114741
302.210237	-2.603600	3.166300	-8.242900	21.108974	20.100469
303.208175	-2.587400	3.165500	-8.189900	21.124522	20.114180
304.209893	-2.606900	3.165500	-8.252200	21.111308	20.120941
305.210476	-2.586000	3.165500	-8.185500	21.121194	20.103447
306.210270	-2.598400	3.165700	-8.225100	21.120434	20.120082
307.206271	-2.582000	3.165000	-8.171500	21.124817	20.115957
308.212847	-2.607300	3.164000	-8.249200	21.125801	20.111390
309.213516	-2.569200	3.164800	-8.130900	21.123427	20.114565
310.210440	-2.607200	3.164300	-8.249600	21.136603	20.115169
311.210431	-2.618000	3.164400	-8.284400	21.118185	20.123383
312.207835	-2.591800	3.164600	-8.201600	21.138198	20.102701
313.209686	-2.594800	3.165200	-8.212700	21.129764	20.123869
314.211185	-2.612200	3.164700	-8.266900	21.139559	20.121088
315.211729	-2.616000	3.165000	-8.278800	21.124153	20.125656
316.212511	-2.592700	3.164700	-8.205000	21.144057	20.124851
317.211493	-2.616800	3.165600	-8.283400	21.136923	20.131775
318.212788	-2.582800	3.164900	-8.174000	21.152787	20.140250
319.212310	-2.588600	3.163900	-8.189900	21.152614	20.116390
320.210392	-2.594600	3.164000	-8.209100	21.154643	20.122492
321.210353	-2.616700	3.163900	-8.278900	21.148031	20.126237
322.207569	-2.611400	3.163900	-8.261400	21.150365	20.130795
323.210869	-2.585200	3.164400	-8.180300	21.154019	20.139633
324.208220	-2.614100	3.164100	-8.271300	21.162622	20.132329
325.209544	-2.605400	3.165400	-8.246700	21.167843	20.133114
326.214822	-2.600500	3.164800	-8.229500	21.153277	20.138890
327.212000	-2.573300	3.164100	-8.141700	21.160391	20.145271
328.208791	-2.602600	3.165500	-8.238500	21.178248	20.143529
329.209411	-2.621100	3.163900	-8.292700	21.159706	20.127189
330.214528	-2.601300	3.165100	-8.233100	21.147160	20.132768
331.212891	-2.580900	3.164800	-8.167600	21.168370	20.130681
332.212122	-2.608700	3.164500	-8.254400	21.171077	20.150785
333.213417	-2.574800	3.163800	-8.145700	21.165843	20.161832
334.211170	-2.607400	3.163100	-8.247500	21.175603	20.147913
335.215289	-2.605100	3.164700	-8.243800	21.166332	20.141594
336.212160	-2.627900	3.163500	-8.312900	21.189607	20.154898
337.210805	-2.605100	3.164500	-8.243300	21.187379	20.149707
338.211279	-2.584500	3.163300	-8.175400	21.182338	20.157985
339.212705	-2.627800	3.163300	-8.312100	21.202051	20.150328
340.211034	-2.583800	3.163300	-8.173300	21.184978	20.173581
341.209982	-2.602800	3.163800	-8.234400	21.175751	20.171377
342.209822	-2.612000	3.163400	-8.262100	21.202995	20.164967
343.210007	-2.575800	3.164900	-8.151800	21.189575	20.154866
344.208666	-2.615300	3.162500	-8.270500	21.193822	20.169110
345.210976	-2.619900	3.163700	-8.288000	21.207087	20.171654
346.215522	-2.604600	3.163500	-8.239700	21.213634	20.175986
347.210320	-2.632100	3.163700	-8.326800	21.203576	20.168880
348.209250	-2.611300	3.162900	-8.259100	21.219412	20.166596
349.207920	-2.631300	3.163800	-8.324400	21.221450	20.178259
350.209089	-2.595300	3.162300	-8.207000	21.217119	20.179475
351.213403	-2.606700	3.163200	-8.245200	21.220546	20.175873
352.214619	-2.592500	3.163400	-8.200800	21.221815	20.171592
353.212620	-2.614000	3.163200	-8.268500	21.225865	20.157881
354.211787	-2.620700	3.162100	-8.286800	21.231256	20.168088
355.211425	-2.601100	3.163400	-8.228200	21.240968	20.174479
356.208876	-2.589400	3.163300	-8.190400	21.223536	20.179606
357.213279	-2.580700	3.162100	-8.160100	21.230541	20.176255
358.210781	-2.599600	3.163200	-8.222700	21.239036	20.183277
359.209451	-2.571900	3.162700	-8.133600	21.252869	20.171587
360.208455	-2.561400	3.162400	-8.099700	21.241811	20.171622
361.207783	-2.586800	3.163200	-8.182200	21.241151	20.195757
362.211199	-2.602900	3.163100	-8.232900	21.236812	20.189564
363.209894	-2.615100	3.162900	-8.271100	21.242997	20.193534
364.210663	-2.599000	3.162000	-8.217600	21.247153	20.188072
365.210981	-2.608300	3.163000	-8.249800	21.250003	20.180931
366.208902	-2.578000	3.162600	-8.153100	21.240865	20.189920
367.209579	-2.601500	3.162300	-8.226000	21.261398	20.187897
368.208358	-2.611800	3.162000	-8.257900	21.249503	20.190423
369.213449	-2.610200	3.161700	-8.251900	21.253018	20.190981
370.211228	-2.581100	3.162500	-8.162200	21.261584	20.201406
371.209274	-2.620100	3.161200	-8.282500	21.256920	20.189706
372.209061	-2.594500	3.162200	-8.203800	21.270933	20.194480
373.211460	-2.601000	3.162600	-8.225400	21.264717	20.179746
374.210828	-2.607500	3.161800	-8.243700	21.248313	20.189603
375.212947	-2.601300	3.162200	-8.225500	21.247961	20.188140
376.212766	-2.618200	3.161900	-8.277900	21.276547	20.203430
377.212180	-2.570700	3.162500	-8.129500	21.280099	20.207355
378.210839	-2.603400	3.160900	-8.228600	21.285842	20.209773
379.210289	-2.611700	3.162600	-8.259400	21.280521	20.205927
380.211592	-2.624300	3.161500	-8.296400	21.271753	20.197151
381.208314	-2.595700	3.161000	-8.204500	21.290186	20.213381
382.209898	-2.617700	3.161200	-8.274500	21.287056	20.210988
383.210010	-2.594300	3.161300	-8.200900	21.273122	20.204073
384.209659	-2.592000	3.161300	-8.193800	21.289588	20.215373
385.210596	-2.613700	3.161200	-8.261900	21.285890	20.209451
386.212314	-2.626200	3.160800	-8.300400	21.280973	20.213042
387.211315	-2.601400	3.161700	-8.224600	21.298639	20.226284
388.210157	-2.575700	3.162500	-8.145500	21.311173	20.215144
389.210521	-2.591400	3.161000	-8.191000	21.309206	20.206884
390.213292	-2.612500	3.160900	-8.257800	21.297844	20.211424
391.212751	-2.598100	3.161400	-8.213500	21.286246	20.219430
392.213027	-2.576600	3.161600	-8.145700	21.307743	20.227624
393.211730	-2.590500	3.160900	-8.188100	21.309717	20.237002
394.211391	-2.613500	3.161000	-8.260900	21.328600	20.231478
395.209137	-2.614500	3.160900	-8.264200	21.317968	20.227497
396.210380	-2.627300	3.161100	-8.304700	21.296450	20.223352
397.210070	-2.567200	3.162600	-8.118700	21.310058	20.222170
398.209391	-2.605800	3.160900	-8.236800	21.315052	20.222358
399.211281	-2.587900	3.160800	-8.179200	21.322195	20.233949
400.210124	-2.622200	3.160300	-8.286800	21.336711	20.222203
401.213887	-2.604900	3.160000	-8.230800	21.330219	20.232358
402.212719	-2.604600	3.161100	-8.232800	21.331345	20.217202
403.211148	-2.599900	3.160100	-8.215100	21.333175	20.230506
404.208200	-2.600400	3.160500	-8.218000	21.330496	20.226714
405.209870	-2.595300	3.161300	-8.204200	21.340000	20.235488
406.211447	-2.595000	3.160200	-8.200300	21.335707	20.248214
407.210134	-2.605100	3.161000	-8.234500	21.349746	20.221558
408.209556	-2.593100	3.160100	-8.194000	21.351053	20.248032
409.213363	-2.621500	3.160300	-8.284000	21.357752	20.236234
410.212926	-2.594300	3.161400	-8.201000	21.341359	20.252762
411.210543	-2.575300	3.160000	-8.137700	21.359555	20.241739
412.208678	-2.581800	3.160000	-8.158200	21.370168	20.263835
413.210635	-2.553900	3.161500	-8.073900	21.358986	20.263744
414.210508	-2.610400	3.160500	-8.250100	21.354098	20.245159
415.211290	-2.605600	3.160300	-8.234100	21.365612	20.243731
416.209289	-2.602100	3.160100	-8.222400	21.368064	20.240635
417.211308	-2.602900	3.160500	-8.226200	21.368569	20.249282
418.212973	-2.582600	3.160700	-8.163000	21.381679	20.244272
419.210387	-2.559200	3.160400	-8.087500	21.359118	20.243892
420.211522	-2.603700	3.159500	-8.225700	21.365854	20.247304
421.212531	-2.626800	3.160000	-8.300000	21.377394	20.252935
422.213328	-2.626200	3.158900	-8.295400	21.381929	20.258215
423.210394	-2.602600	3.160500	-8.225200	21.372677	20.251544
424.212116	-2.608400	3.158200	-8.237500	21.381711	20.275020
425.211024	-2.596000	3.160600	-8.204800	21.394380	20.264387
426.211436	-2.621600	3.160200	-8.284400	21.374875	20.266326
427.213844	-2.606500	3.159400	-8.234600	21.395983	20.268582
428.212768	-2.635200	3.159700	-8.325400	21.375783	20.274267
429.206292	-2.592200	3.160300	-8.192000	21.396361	20.254527
430.210607	-2.571300	3.159000	-8.122100	21.390273	20.272118
431.209403	-2.629200	3.159100	-8.305500	21.385584	20.268904
432.209246	-2.611000	3.160600	-8.251900	21.407224	20.262811
433.210243	-2.617000	3.159500	-8.268000	21.406556	20.266584
434.209074	-2.608600	3.158500	-8.238800	21.404760	20.269597
435.213264	-2.619600	3.159400	-8.276100	21.408881	20.287414
436.213439	-2.622300	3.159600	-8.284800	21.402523	20.287711
437.208784	-2.616600	3.159300	-8.266100	21.403975	20.282133
438.210988	-2.587700	3.160200	-8.177200	21.416192	20.274009
439.209130	-2.591000	3.158000	-8.182300	21.407256	20.280977
440.214102	-2.635000	3.159800	-8.325800	21.419284	20.268962
441.211032	-2.610700	3.159000	-8.246300	21.417399	20.259674
442.208584	-2.601000	3.159000	-8.216400	21.413323	20.261885
443.208988	-2.587000	3.160300	-8.175700	21.410744	20.257084
444.211667	-2.624400	3.158300	-8.287900	21.438479	20.246730
445.209028	-2.617100	3.158900	-8.266500	21.441084	20.238235
446.210419	-2.604300	3.159100	-8.227100	21.426928	20.242568
447.210043	-2.597600	3.158100	-8.202400	21.437738	20.244508
448.210678	-2.586300	3.158500	-8.168100	21.440731	20.238252
449.212091	-2.629500	3.159100	-8.306800	21.457105	20.226518
450.213929	-2.626200	3.158000	-8.293300	21.453471	20.201414
451.212871	-2.622000	3.158800	-8.282200	21.439963	20.185671
452.210688	-2.603600	3.158800	-8.224200	21.445454	20.215964
453.210570	-2.584100	3.158400	-8.161400	21.439873	20.182619
454.208679	-2.577800	3.158400	-8.141500	21.444164	20.194688
455.210081	-2.609900	3.158700	-8.243200	21.434994	20.170333
456.213194	-2.585800	3.157900	-8.165000	21.462277	20.167669
457.215575	-2.593900	3.158000	-8.190700	21.464855	20.148044
458.215590	-2.609000	3.158800	-8.241100	21.450086	20.181741
459.212731	-2.606400	3.157500	-8.229800	21.458939	20.160256
460.214039	-2.618300	3.158000	-8.268200	21.462708	20.159958
461.210127	-2.614700	3.156800	-8.254200	21.450039	20.143203
462.209091	-2.635900	3.157200	-8.321400	21.465096	20.142733
463.211272	-2.598600	3.157500	-8.204600	21.468305	20.130771
464.211976	-2.600800	3.157700	-8.212200	21.471929	20.132549
465.210364	-2.590600	3.158700	-8.182500	21.477888	20.119640
466.208927	-2.584000	3.157500	-8.159000	21.457917	20.115929
467.212177	-2.597100	3.158400	-8.202200	21.473316	20.109880
468.208945	-2.599700	3.158200	-8.210200	21.471675	20.118230
469.209188	-2.582300	3.157600	-8.153900	21.494115	20.122562
470.208185	-2.612900	3.157000	-8.248600	21.474874	20.111440
471.210833	-2.592600	3.158000	-8.187100	21.479093	20.124177
472.209418	-2.604000	3.159000	-8.225700	21.492229	20.127336
473.210737	-2.580000	3.158200	-8.147600	21.487513	20.109660
474.210320	-2.599100	3.158100	-8.207800	21.499982	20.092164
475.210498	-2.612600	3.157900	-8.249800	21.501163	20.115924
476.211476	-2.589200	3.158200	-8.176800	21.504976	20.099016
477.214668	-2.605200	3.158400	-8.228100	21.494769	20.093608
478.210548	-2.602300	3.157600	-8.216500	21.501170	20.087432
479.210970	-2.652500	3.156700	-8.372700	21.504407	20.093264
480.211143	-2.602400	3.156300	-8.213900	21.502747	20.089751
481.213555	-2.577100	3.158000	-8.138100	21.509870	20.077636
482.211064	-2.593100	3.157500	-8.187600	21.499437	20.079035
483.211421	-2.577200	3.158200	-8.139000	21.503539	20.085363
484.208225	-2.576000	3.156800	-8.131400	21.508534	20.085922
485.207495	-2.607600	3.157900	-8.234100	21.509048	20.066079
486.210591	-2.572800	3.158000	-8.124100	21.504485	20.060030
487.210910	-2.632000	3.156900	-8.308400	21.512266	20.066340
488.209116	-2.577000	3.157700	-8.137200	21.521939	20.066033
489.211185	-2.600800	3.156200	-8.208000	21.506125	20.073146
490.210412	-2.621900	3.156900	-8.276400	21.527411	20.054115
491.212551	-2.617800	3.156900	-8.263600	21.520180	20.058719
492.210925	-2.627200	3.156700	-8.293000	21.513923	20.052453
493.210251	-2.574200	3.158200	-8.129800	21.505014	20.063891
494.211659	-2.611100	3.156400	-8.241500	21.519548	20.077703
495.209247	-2.629000	3.154900	-8.293600	21.519106	20.084663
496.210343	-2.619500	3.156700	-8.268800	21.534270	20.060243
497.209976	-2.592000	3.156600	-8.181500	21.526597	20.073288
498.210456	-2.591600	3.157800	-8.183700	21.529933	20.061452
499.210449	-2.605000	3.157700	-8.225200	21.523910	20.070227
500.209310	-2.585700	3.157100	-8.162900	21.537722	20.043342
501.210700	-2.591200	3.157000	-8.180200	21.531645	20.052433
502.211321	-2.608400	3.157000	-8.234300	21.544114	20.060846
503.209249	-2.575200	3.157500	-8.130800	21.525893	20.050744
504.211038	-2.621200	3.156100	-8.272900	21.549848	20.034755
505.212436	-2.602300	3.156800	-8.214500	21.539137	20.044018
506.211279	-2.611500	3.156700	-8.243500	21.542166	20.047421
507.211921	-2.612400	3.156500	-8.245900	21.559223	20.074495
508.211443	-2.626200	3.156200	-8.288300	21.566327	20.039043
509.210116	-2.601300	3.155800	-8.208900	21.560007	20.046410
510.211520	-2.581600	3.157000	-8.149800	21.547133	20.052025
511.213234	-2.587000	3.156300	-8.164800	21.544428	20.075596
512.212627	-2.599600	3.156100	-8.204300	21.570014	20.056800
513.211512	-2.639100	3.155200	-8.326000	21.563640	20.044125
514.210315	-2.569300	3.157400	-8.112100	21.546276	20.047095
515.208646	-2.575300	3.156500	-8.128700	21.535619	20.041606
516.212564	-2.603100	3.154600	-8.211400	21.574341	20.038184
517.209246	-2.592300	3.155800	-8.180400	21.563694	20.054543
518.209342	-2.599800	3.155800	-8.204400	21.552640	20.043845
519.210582	-2.576700	3.155300	-8.129500	21.565163	20.048241
520.210907	-2.601200	3.155900	-8.208700	21.575468	20.027098
521.212002	-2.584700	3.155900	-8.156700	21.579651	20.055716
522.213649	-2.636800	3.154500	-8.317200	21.574377	20.056357
523.211176	-2.573400	3.156500	-8.122300	21.586529	20.057792
524.211686	-2.601600	3.156500	-8.211300	21.578506	20.043095
525.210604	-2.592300	3.155400	-8.180000	21.575215	20.055346
526.212247	-2.577800	3.155400	-8.133600	21.576838	20.047717
527.214807	-2.599100	3.156200	-8.203200	21.577306	20.045595
528.212395	-2.577600	3.156300	-8.135200	21.564495	20.031286
529.213243	-2.555900	3.156600	-8.067400	21.581769	20.043031
530.214938	-2.595800	3.156400	-8.193000	21.574566	20.043961
531.213105	-2.600700	3.155800	-8.206800	21.575034	20.036658
532.212405	-2.597800	3.155900	-8.198000	21.584681	20.028921
533.208858	-2.603200	3.156500	-8.216900	21.572474	20.031873
534.209175	-2.602900	3.154500	-8.210800	21.599078	20.016317
535.209903	-2.597700	3.154400	-8.194100	21.587863	20.013970
536.210030	-2.598100	3.154800	-8.196400	21.574340	20.014494
537.215001	-2.591500	3.153800	-8.172500	21.577757	20.015694
538.212807	-2.583800	3.154600	-8.150800	21.602694	20.016236
539.211302	-2.601900	3.155700	-8.210700	21.599746	20.017356
540.211196	-2.598700	3.155300	-8.199600	21.591154	20.030221
541.213983	-2.590900	3.154900	-8.173400	21.588702	20.022953
542.214699	-2.590700	3.155800	-8.175500	21.596852	20.039628
543.211366	-2.616600	3.155400	-8.256400	21.603523	20.013365
544.212816	-2.614900	3.155000	-8.249700	21.559068	20.009194
545.214353	-2.565800	3.155300	-8.095300	21.596969	20.025310
546.212119	-2.604600	3.154400	-8.215800	21.600251	20.025265
547.210608	-2.606800	3.154200	-8.221700	21.589360	20.045451
548.210314	-2.604100	3.155800	-8.217700	21.594364	20.012337
549.209085	-2.594800	3.155400	-8.187000	21.600495	20.025509
550.210693	-2.615900	3.154000	-8.250400	21.593138	20.012220
551.210510	-2.596000	3.154900	-8.189700	21.599251	20.032777
552.211833	-2.580200	3.155000	-8.140200	21.604732	20.024940
553.214792	-2.595500	3.155300	-8.189300	21.596979	20.015326
554.210051	-2.616700	3.154700	-8.254500	21.605679	20.032551
555.211051	-2.598100	3.153900	-8.193300	21.607122	20.024002
556.208168	-2.595100	3.153400	-8.183500	21.613469	20.029247
557.213913	-2.594100	3.154800	-8.183200	21.615903	20.013548
558.211024	-2.601400	3.154600	-8.205900	21.606347	20.017304
559.212472	-2.581400	3.154700	-8.143100	21.600596	20.015986
560.213646	-2.592000	3.155200	-8.177700	21.596350	20.015806
561.213298	-2.644600	3.153200	-8.338700	21.609440	20.006706
562.211946	-2.605000	3.154300	-8.216600	21.600696	20.017937
563.210287	-2.608300	3.153900	-8.225700	21.610379	20.019490
564.210072	-2.627300	3.154900	-8.288500	21.600751	20.015031
565.210927	-2.604000	3.153700	-8.211800	21.614319	20.001597
566.210259	-2.623900	3.153800	-8.275200	21.604042	20.002780
567.212039	-2.570300	3.153600	-8.105500	21.610425	19.998438
568.212881	-2.627700	3.152500	-8.283200	21.611336	20.005273
569.208525	-2.594600	3.153200	-8.181100	21.619423	20.000786
570.211572	-2.605200	3.153500	-8.215400	21.607118	19.988463
571.212462	-2.576500	3.153400	-8.124600	21.614240	19.989303
572.211874	-2.600600	3.153200	-8.200300	21.608020	19.997880
573.209183	-2.584000	3.154500	-8.150700	21.617821	20.006584
574.210128	-2.598400	3.153300	-8.193400	21.622662	19.996997
575.211975	-2.596700	3.153500	-8.188100	21.611926	20.012896
576.213527	-2.581000	3.152600	-8.136400	21.623132	19.988953
577.215030	-2.586600	3.153800	-8.157600	21.620491	19.985198
578.213592	-2.609400	3.154400	-8.230700	21.630967	19.977181
579.211598	-2.623700	3.153400	-8.273200	21.612865	19.995699
580.210406	-2.599600	3.152900	-8.195600	21.611622	19.997786
581.210320	-2.592900	3.153200	-8.175500	21.622955	19.989146
582.209190	-2.582900	3.153000	-8.143700	21.615040	19.993435
583.209991	-2.593900	3.153800	-8.180300	21.605457	19.996053
584.211318	-2.572300	3.153400	-8.110300	21.617340	19.997219
585.212128	-2.579100	3.153000	-8.131400	21.605025	19.987108
586.211926	-2.597200	3.153100	-8.188900	21.625337	19.978576
587.211874	-2.565200	3.153600	-8.089400	21.625924	19.992490
588.211756	-2.614600	3.152100	-8.241300	21.624194	19.993718
589.210756	-2.613100	3.152000	-8.236300	21.615341	19.981151
590.210203	-2.566200	3.153700	-8.093100	21.628369	19.988275
591.209598	-2.583600	3.153200	-8.146300	21.635347	19.991932
592.211205	-2.607800	3.152600	-8.221200	21.619102	19.988990
593.209245	-2.610700	3.153400	-8.232200	21.636195	19.989080
594.208776	-2.587900	3.152600	-8.158300	21.610836	20.014396
595.214798	-2.599800	3.152600	-8.196000	21.635133	19.996530
596.210721	-2.574900	3.153200	-8.118900	21.629869	19.985706
597.210654	-2.578200	3.154000	-8.131600	21.618871	19.985797
598.212791	-2.565600	3.152100	-8.086400	21.629870	19.982005
599.213105	-2.577000	3.153600	-8.126400	21.630357	19.974350
600.213856	-2.589000	3.153200	-8.163500	21.629466	19.986043
601.214107	-2.597300	3.153800	-8.191300	21.634659	19.987171
602.210562	-2.590900	3.152500	-8.167300	21.615421	19.994558
603.210328	-2.629400	3.152000	-8.287600	21.622184	19.995777
604.210383	-2.573200	3.152300	-8.110700	21.630965	20.001610
605.210647	-2.621700	3.151200	-8.260900	21.636374	20.007397
606.211912	-2.603700	3.152400	-8.207600	21.637024	20.006938
607.209996	-2.595400	3.152700	-8.181800	21.638747	20.017917
608.209087	-2.610200	3.152900	-8.229400	21.644652	19.990517
609.208972	-2.623600	3.151100	-8.267000	21.620844	19.989624
610.211728	-2.591500	3.152200	-8.168700	21.634557	20.012241
611.212939	-2.617000	3.151400	-8.246700	21.648440	20.019481
612.207095	-2.603200	3.151700	-8.204200	21.628429	20.024241
613.213126	-2.587900	3.152500	-8.157700	21.640383	20.032511
614.213735	-2.617000	3.152500	-8.249500	21.650796	20.027763
615.213986	-2.612000	3.151300	-8.231200	21.639005	20.030391
616.213378	-2.591400	3.152100	-8.168100	21.639520	20.014990
617.208103	-2.603100	3.152800	-8.206900	21.633562	20.016426
618.211066	-2.586100	3.152200	-8.151700	21.636060	20.019668
619.209385	-2.644400	3.151700	-8.333700	21.642831	20.024228
620.212008	-2.602100	3.151700	-8.200800	21.635114	20.018351
621.215458	-2.600200	3.151900	-8.195700	21.639794	20.016005
622.214407	-2.576900	3.152100	-8.122500	21.646647	20.004729
623.213218	-2.601400	3.152600	-8.201100	21.642582	19.992886
624.215087	-2.610100	3.149800	-8.220900	21.642690	20.011132
625.212872	-2.607700	3.152100	-8.219100	21.636832	20.004525
626.213646	-2.613100	3.150900	-8.233100	21.643053	19.995948
627.214207	-2.603400	3.152100	-8.206000	21.644992	19.990487
628.213772	-2.603100	3.151400	-8.203000	21.633193	19.986814
629.209654	-2.566700	3.151500	-8.088400	21.627740	20.002823
630.209058	-2.568200	3.153000	-8.097200	21.661898	20.011120
631.210811	-2.577600	3.151100	-8.122000	21.645907	20.000287
632.211071	-2.619600	3.151000	-8.253900	21.661792	19.985472
633.212047	-2.607200	3.151300	-8.215800	21.633134	19.978612
634.209050	-2.596300	3.152200	-8.183800	21.642187	19.981015
635.210992	-2.599500	3.151800	-8.193000	21.653006	19.980004
636.211107	-2.615300	3.150800	-8.240100	21.648165	19.991074
637.211434	-2.608300	3.151300	-8.219500	21.649681	19.980006
638.210057	-2.587300	3.151700	-8.154100	21.647671	19.958004
639.209816	-2.590500	3.151000	-8.162600	21.654749	19.997298
640.213236	-2.606900	3.150200	-8.212000	21.655580	19.997389
641.214650	-2.601300	3.150400	-8.194700	21.658267	19.986384
642.212101	-2.590600	3.150900	-8.162400	21.646495	19.988291
643.213550	-2.582600	3.151600	-8.139100	21.671612	19.990125
644.212718	-2.590500	3.151200	-8.162900	21.639852	19.982008
645.214080	-2.617600	3.150700	-8.247000	21.673308	20.007000
646.208809	-2.612800	3.150900	-8.232000	21.653818	20.003768
647.210013	-2.609800	3.150500	-8.222000	21.662041	19.992755
648.212965	-2.574000	3.150800	-8.109800	21.655787	19.969464
649.212318	-2.595300	3.150300	-8.175800	21.651038	19.993580
650.212104	-2.614600	3.151500	-8.239300	21.657402	19.972192
651.214888	-2.615400	3.150500	-8.239600	21.658044	19.982829
652.213347	-2.617100	3.151000	-8.246100	21.652176	19.996571
653.209784	-2.609400	3.150400	-8.219900	21.659875	19.999840
654.211346	-2.595000	3.150500	-8.175400	21.662743	19.991237
655.213046	-2.595100	3.150900	-8.176100	21.658779	19.999112
656.211483	-2.597100	3.150400	-8.181100	21.655606	20.001487
657.212536	-2.626300	3.150700	-8.274600	21.658528	19.995529
658.213935	-2.592800	3.150900	-8.169700	21.663162	20.005723
659.211505	-2.599800	3.149400	-8.187600	21.651761	20.002448
660.210349	-2.576500	3.150900	-8.117900	21.653258	19.996544
661.211250	-2.591800	3.151000	-8.166400	21.653557	20.006838
662.212385	-2.619500	3.150100	-8.251400	21.672210	19.993315
663.210646	-2.638900	3.149300	-8.310200	21.654822	19.981823
664.214236	-2.593000	3.150200	-8.167900	21.670536	19.991268
665.210970	-2.626100	3.148700	-8.268100	21.662793	19.984254
666.208778	-2.614100	3.149900	-8.234000	21.662127	19.986918
667.208848	-2.613900	3.150200	-8.234200	21.661444	20.004372
668.212348	-2.608700	3.150400	-8.217600	21.653784	19.995220
669.211184	-2.610600	3.150300	-8.223800	21.644751	19.989876
670.208402	-2.616900	3.149100	-8.241100	21.664875	19.993372
671.208854	-2.578500	3.150600	-8.123400	21.673710	20.002220
672.213164	-2.607800	3.150500	-8.215100	21.662336	20.004155
673.208799	-2.600300	3.149300	-8.188800	21.662192	19.988094
674.216155	-2.606500	3.149900	-8.210100	21.665710	20.000501
675.213472	-2.614900	3.149100	-8.234100	21.666333	19.985579
676.212193	-2.603600	3.149500	-8.199400	21.672293	20.002282
677.213631	-2.625100	3.148900	-8.265900	21.664930	19.997499
678.211967	-2.619200	3.150000	-8.250000	21.664390	19.997699
679.212615	-2.588700	3.150400	-8.155200	21.659523	19.990234
680.210817	-2.593300	3.150200	-8.169000	21.672281	19.987464
681.212138	-2.603200	3.150000	-8.199700	21.674456	20.003708
682.210440	-2.594200	3.148700	-8.167900	21.672888	19.999917
683.213036	-2.627400	3.149100	-8.274000	21.660945	19.986475
684.212382	-2.583500	3.148900	-8.134900	21.666581	19.980644
685.210647	-2.565800	3.150500	-8.083100	21.671928	19.992292
686.211805	-2.615300	3.149000	-8.235100	21.673317	19.979987
687.213894	-2.601200	3.148800	-8.190200	21.669640	19.977415
688.210759	-2.602000	3.148900	-8.193400	21.655506	19.988061
689.210453	-2.579800	3.150200	-8.126900	21.674736	19.991033
690.214576	-2.597500	3.148500	-8.178200	21.675243	20.004126
691.213978	-2.580400	3.149200	-8.126300	21.655527	20.003629
692.215895	-2.576100	3.148700	-8.110800	21.686026	19.984943
693.213679	-2.587300	3.148500	-8.145500	21.675381	19.995010
694.213959	-2.589500	3.149400	-8.155000	21.685406	19.989133
695.213844	-2.609800	3.148600	-8.216700	21.667144	20.001938
696.211503	-2.556600	3.149600	-8.051600	21.692674	19.992341
697.210181	-2.601200	3.148900	-8.190400	21.666705	19.995945
698.211251	-2.585200	3.148900	-8.140600	21.681011	19.992135
699.211074	-2.578500	3.149100	-8.119800	21.678289	19.989039
700.211360	-2.602900	3.148400	-8.194400	21.673476	20.000506
701.212791	-2.584100	3.149000	-8.136500	21.675101	19.998801
702.212175	-2.581600	3.149100	-8.129800	21.689912	20.008822
703.210332	-2.609900	3.149300	-8.218900	21.679932	20.005121
704.209678	-2.602700	3.148400	-8.193600	21.678834	20.012165
705.212990	-2.608300	3.148300	-8.211900	21.687508	20.023812
706.209831	-2.648800	3.149000	-8.341100	21.676123	19.998345
707.212067	-2.625000	3.149100	-8.266400	21.684481	20.012638
708.212192	-2.595100	3.149500	-8.173000	21.689124	20.017287
709.211300	-2.588200	3.149000	-8.149900	21.690964	20.009506
710.212657	-2.594500	3.149500	-8.171000	21.707407	20.016350
711.211685	-2.614100	3.148300	-8.229800	21.693473	20.014980
712.211694	-2.620500	3.149400	-8.252500	21.702408	20.003200
713.215317	-2.594400	3.149000	-8.169600	21.678223	20.018955
714.211588	-2.593700	3.148300	-8.165100	21.698435	20.019579
715.214815	-2.614800	3.148300	-8.232000	21.707470	20.027888
716.214293	-2.611000	3.148200	-8.219700	21.707812	20.045998
717.211377	-2.609600	3.148100	-8.214800	21.701478	20.024848
718.211983	-2.590800	3.148600	-8.157200	21.703580	20.016219
719.210289	-2.611400	3.147300	-8.218100	21.698471	20.025168
720.209249	-2.572800	3.148600	-8.100200	21.696326	20.023760
721.212152	-2.582600	3.148000	-8.129900	21.707155	20.019799
722.210918	-2.581300	3.148300	-8.126300	21.703090	20.027573
723.207639	-2.618900	3.147600	-8.242900	21.710512	20.032044
724.212399	-2.568900	3.147900	-8.086100	21.707458	20.041571
725.213360	-2.613900	3.148500	-8.229700	21.705883	20.034442
726.211154	-2.584100	3.147800	-8.134400	21.713952	20.027347
727.211464	-2.547500	3.148800	-8.021500	21.706121	20.035050
728.213234	-2.613300	3.146800	-8.222900	21.714174	20.032381
729.209582	-2.597100	3.147800	-8.175100	21.715229	20.033067
730.212851	-2.609800	3.147900	-8.215200	21.725500	20.043724
731.211922	-2.593300	3.147800	-8.162500	21.719155	20.045513
732.213171	-2.583500	3.146400	-8.128100	21.718651	20.024649
733.211621	-2.585000	3.148100	-8.137100	21.718789	20.034041
734.212169	-2.579900	3.147800	-8.120500	21.701079	20.033331
735.211726	-2.611400	3.147400	-8.218500	21.704551	20.050504
736.212588	-2.610300	3.147500	-8.215900	21.711396	20.044034
737.208104	-2.593500	3.147500	-8.162700	21.709143	20.066948
738.210464	-2.622700	3.147400	-8.254500	21.713166	20.048768
739.209725	-2.598000	3.147300	-8.176300	21.710933	20.047642
740.212048	-2.615400	3.147200	-8.230400	21.733127	20.048032
741.211366	-2.580900	3.148300	-8.125200	21.713227	20.038835
742.209694	-2.621400	3.148600	-8.253700	21.723109	20.037998
743.209783	-2.616000	3.147700	-8.233800	21.715763	20.069877
744.213358	-2.578200	3.147000	-8.113600	21.728522	20.066368
745.210060	-2.589000	3.147100	-8.147300	21.730065	20.036452
746.209634	-2.583700	3.147200	-8.131000	21.727759	20.061162
747.213522	-2.613500	3.147000	-8.224100	21.718639	20.048327
748.212226	-2.590300	3.146500	-8.150200	21.728971	20.051642
749.210247	-2.592900	3.147600	-8.161300	21.725637	20.062739
750.211795	-2.605900	3.147800	-8.203000	21.723089	20.060556
751.210299	-2.585700	3.147800	-8.138900	21.728932	20.049383
752.213422	-2.588800	3.147600	-8.148300	21.718830	20.044077
753.212283	-2.600400	3.146400	-8.181700	21.738214	20.064971
754.213472	-2.592600	3.147500	-8.160400	21.722503	20.043313
755.212247	-2.624100	3.146000	-8.255300	21.725679	20.046124
756.211995	-2.594400	3.146700	-8.163400	21.732666	20.063116
757.210440	-2.595800	3.146900	-8.168400	21.734391	20.070765
758.213373	-2.616100	3.146300	-8.230600	21.731434	20.059661
759.213737	-2.606900	3.146000	-8.201100	21.731492	20.070823
760.212166	-2.602900	3.146300	-8.189300	21.734098	20.071582
761.213449	-2.603800	3.145800	-8.190800	21.746533	20.057756
762.210437	-2.611000	3.146800	-8.216400	21.735114	20.056684
763.210256	-2.584500	3.145400	-8.129500	21.735222	20.055682
764.211361	-2.593200	3.146100	-8.158700	21.741952	20.057239
765.211240	-2.597900	3.147000	-8.175400	21.725601	20.060112
766.214157	-2.604100	3.146700	-8.193600	21.726856	20.074324
767.210924	-2.594100	3.145700	-8.159800	21.754748	20.083380
768.212262	-2.608900	3.145500	-8.205800	21.735199	20.076757
769.211283	-2.597400	3.145900	-8.170800	21.743141	20.069905
770.208848	-2.611000	3.146800	-8.215900	21.733013	20.082710
771.211798	-2.610100	3.145500	-8.209700	21.735827	20.092931
772.211231	-2.612300	3.146400	-8.219000	21.759122	20.092942
773.208386	-2.579200	3.146500	-8.114900	21.748489	20.079332
774.211068	-2.570400	3.146000	-8.086500	21.757701	20.080416
775.213052	-2.608100	3.145500	-8.203600	21.752628	20.078665
776.214052	-2.611400	3.145800	-8.214800	21.735846	20.077775
777.213167	-2.583300	3.147100	-8.129900	21.748458	20.071899
778.211895	-2.619800	3.145000	-8.239100	21.756843	20.086589
779.211603	-2.604100	3.146400	-8.193700	21.749537	20.090745
780.214204	-2.597900	3.146400	-8.173600	21.759327	20.089816
781.212612	-2.603300	3.144900	-8.186900	21.756139	20.085884
782.211936	-2.620400	3.146300	-8.244300	21.761252	20.094335
783.212182	-2.595000	3.145300	-8.161900	21.763596	20.071514
784.211504	-2.617200	3.145300	-8.231400	21.762238	20.107166
785.208473	-2.592300	3.145700	-8.154300	21.775796	20.077070
786.212282	-2.637800	3.145500	-8.296800	21.756987	20.084512
787.209560	-2.600100	3.146500	-8.180900	21.780074	20.093198
788.215817	-2.617400	3.145700	-8.233300	21.787619	20.077067
789.214213	-2.575300	3.145900	-8.101100	21.771820	20.111952
790.211398	-2.593700	3.144900	-8.156400	21.758058	20.103721
791.212485	-2.618400	3.145600	-8.235800	21.759521	20.092231
792.211957	-2.600400	3.146400	-8.181200	21.761334	20.091827
793.211335	-2.589100	3.146300	-8.145700	21.758955	20.107580
794.212774	-2.617500	3.144600	-8.230900	21.767494	20.106879
795.213809	-2.598300	3.145800	-8.173300	21.769119	20.091480
796.214449	-2.587200	3.146300	-8.139800	21.761042	20.110781
797.213995	-2.608500	3.146100	-8.206000	21.783228	20.091916
798.209614	-2.599800	3.146500	-8.180000	21.770709	20.083080
799.211506	-2.596300	3.144900	-8.164800	21.776984	20.114903
800.211970	-2.589800	3.145300	-8.145300	21.781989	20.090675
801.212641	-2.617600	3.144800	-8.231400	21.773516	20.109949
802.212296	-2.598200	3.145800	-8.173200	21.797242	20.106321
803.211626	-2.603300	3.145400	-8.188200	21.778386	20.111495
804.211950	-2.595600	3.145000	-8.162700	21.785285	20.115814
805.213723	-2.614000	3.145100	-8.221100	21.794524	20.118775
806.213424	-2.604500	3.144800	-8.190900	21.792265	20.110590
807.212373	-2.584200	3.145800	-8.129000	21.813242	20.087184
808.212076	-2.607600	3.145100	-8.200700	21.786102	20.101827
809.211933	-2.621200	3.145400	-8.244500	21.789998	20.099437
810.213043	-2.596800	3.144600	-8.165500	21.799257	20.106489
811.213613	-2.602600	3.145200	-8.185100	21.805767	20.108567
812.213302	-2.622600	3.145000	-8.247600	21.805732	20.118156
813.211590	-2.589400	3.144600	-8.142300	21.788121	20.123465
814.212957	-2.583400	3.146100	-8.127400	21.816361	20.125100
815.213288	-2.615600	3.144900	-8.225600	21.813801	20.124386
816.213283	-2.582400	3.145300	-8.122300	21.818968	20.119567
817.210117	-2.585100	3.143500	-8.126100	21.808062	20.118268
818.211377	-2.614400	3.144300	-8.220400	21.819954	20.119814
819.209572	-2.623900	3.143900	-8.248800	21.817944	20.121133
820.209337	-2.576300	3.144700	-8.101300	21.817479	20.116226
821.210384	-2.596300	3.144100	-8.162300	21.820805	20.137692
822.211165	-2.607600	3.144400	-8.199200	21.825213	20.120270
823.211447	-2.576700	3.146500	-8.107200	21.822141	20.111272
824.212185	-2.583200	3.144000	-8.121300	21.819601	20.142408
825.212547	-2.588300	3.144400	-8.138800	21.827085	20.136949
826.215313	-2.597200	3.145600	-8.169500	21.823355	20.123961
827.212075	-2.593500	3.143700	-8.152600	21.832204	20.142077
828.213439	-2.603600	3.144900	-8.187300	21.841790	20.143905
829.211175	-2.624300	3.143200	-8.248400	21.832956	20.141719
830.211502	-2.591900	3.143600	-8.147400	21.847064	20.143636
831.212087	-2.606400	3.143600	-8.193000	21.841621	20.147437
832.217446	-2.631100	3.143900	-8.271900	21.843724	20.152503
833.212652	-2.581900	3.145200	-8.119900	21.853748	20.137375
834.212039	-2.590600	3.143000	-8.142100	21.850145	20.159675
835.212379	-2.615900	3.144500	-8.225100	21.836969	20.141297
836.212994	-2.624400	3.143300	-8.249100	21.861821	20.155084
837.213842	-2.588300	3.143900	-8.136800	21.842228	20.175802
838.213265	-2.566400	3.144100	-8.069000	21.844699	20.170876
839.211524	-2.578600	3.144800	-8.108600	21.835130	20.160922
840.211603	-2.597000	3.143500	-8.163500	21.845901	20.148762
841.210554	-2.621000	3.142700	-8.236900	21.839181	20.145733
842.212211	-2.579700	3.144600	-8.111800	21.840859	20.157777
843.211763	-2.585700	3.143600	-8.127800	21.858664	20.155623
844.211372	-2.585000	3.144300	-8.127800	21.860638	20.176476
845.212318	-2.618400	3.143000	-8.229300	21.862109	20.170917
846.207512	-2.625100	3.143600	-8.252100	21.855316	20.156711
847.211695	-2.606900	3.144300	-8.196800	21.864278	20.183081
848.215038	-2.592500	3.144500	-8.151800	21.853265	20.163539
849.211435	-2.582200	3.143800	-8.117600	21.857053	20.173255
850.208959	-2.579800	3.143400	-8.108800	21.870188	20.181228
851.210841	-2.607700	3.144100	-8.198800	21.862393	20.181564
852.213588	-2.600300	3.144000	-8.175300	21.862640	20.175520
853.212085	-2.594300	3.144800	-8.158600	21.866651	20.172875
854.213545	-2.593900	3.144500	-8.156500	21.886411	20.190074
855.214457	-2.608000	3.143100	-8.196900	21.869566	20.198740
856.216095	-2.589000	3.142100	-8.134600	21.886812	20.174191
857.212517	-2.595200	3.143600	-8.157600	21.874537	20.181512
858.212240	-2.583300	3.144200	-8.122200	21.871411	20.201329
859.213166	-2.607400	3.142600	-8.193700	21.882517	20.192096
860.215640	-2.607600	3.143100	-8.195500	21.879257	20.192902
861.210766	-2.597200	3.142300	-8.160900	21.875924	20.195856
862.212276	-2.590200	3.143100	-8.140800	21.874923	20.179679
863.209921	-2.641900	3.142500	-8.302200	21.877341	20.199495
864.209292	-2.612700	3.143800	-8.213500	21.880256	20.195383
865.209131	-2.600300	3.143900	-8.174500	21.881095	20.195853
866.209853	-2.609100	3.143200	-8.200600	21.886658	20.185881
867.209193	-2.580600	3.143200	-8.110800	21.888780	20.193557
868.210506	-2.604600	3.143700	-8.187900	21.893719	20.211456
869.211782	-2.606300	3.143100	-8.192200	21.889485	20.208697
870.210569	-2.585000	3.143800	-8.126100	21.891776	20.208030
871.212800	-2.627900	3.142300	-8.257400	21.893051	20.220410
872.208166	-2.601200	3.142700	-8.174500	21.895180	20.216251
873.212492	-2.598500	3.142200	-8.164500	21.896227	20.199535
874.211474	-2.613700	3.142700	-8.214100	21.901702	20.206129
875.214250	-2.556600	3.142800	-8.034600	21.905767	20.210940
876.211583	-2.624900	3.142000	-8.247000	21.899243	20.213288
877.214052	-2.584900	3.143700	-8.126200	21.909717	20.228219
878.213115	-2.612200	3.143300	-8.210700	21.910214	20.205031
879.209569	-2.622500	3.142600	-8.241100	21.896164	20.204653
880.211134	-2.598100	3.142800	-8.165300	21.897070	20.205931
881.212086	-2.619700	3.141900	-8.230500	21.901108	20.208124
882.210014	-2.605000	3.141500	-8.183600	21.922076	20.224683
883.210699	-2.591200	3.142000	-8.141100	21.905494	20.228060
884.209878	-2.597300	3.142700	-8.162400	21.908120	20.227360
885.211405	-2.636800	3.141800	-8.283200	21.905129	20.209191
886.210582	-2.587800	3.141400	-8.129100	21.912916	20.213659
887.209722	-2.601600	3.141900	-8.174000	21.918190	20.238185
888.214036	-2.589600	3.142400	-8.137200	21.915085	20.231745
889.211829	-2.588200	3.142600	-8.133200	21.912733	20.227909
890.211668	-2.600300	3.141700	-8.168700	21.931518	20.235620
891.211211	-2.601400	3.142800	-8.175200	21.915729	20.222767
892.208819	-2.608900	3.141700	-8.196100	21.933432	20.219403
893.211291	-2.612300	3.141800	-8.207200	21.932443	20.224334
894.212930	-2.637600	3.141400	-8.285600	21.923555	20.237637
895.214252	-2.627200	3.141400	-8.252900	21.932833	20.236196
896.214177	-2.598300	3.142100	-8.163800	21.926309	20.233363
897.215092	-2.581000	3.141200	-8.107300	21.946867	20.211394
898.212311	-2.596100	3.141600	-8.155700	21.933080	20.207948
899.215382	-2.615300	3.141700	-8.216200	21.933947	20.211406
900.214578	-2.577000	3.142300	-8.097700	21.928235	20.196434
901.210050	-2.606500	3.141800	-8.188800	21.926307	20.199314
902.212529	-2.588100	3.142300	-8.132100	21.936338	20.193446
903.211245	-2.563000	3.142900	-8.055100	21.944964	20.185061
904.211560	-2.621500	3.142000	-8.236300	21.949545	20.178177
905.208790	-2.596000	3.142400	-8.157100	21.942786	20.179549
906.212174	-2.600400	3.141700	-8.169700	21.945816	20.166299
907.209200	-2.608900	3.141700	-8.196100	21.947703	20.171520
908.209370	-2.599500	3.140900	-8.164500	21.931848	20.178216
909.208999	-2.579200	3.141200	-8.101700	21.942523	20.155229
910.213593	-2.602700	3.141000	-8.174800	21.945056	20.156285
911.213447	-2.599600	3.141000	-8.164600	21.964297	20.142988
912.211983	-2.599600	3.140300	-8.162900	21.950464	20.148378
913.212391	-2.592600	3.141400	-8.144300	21.960857	20.133990
914.212638	-2.587500	3.141400	-8.127800	21.941346	20.126292
915.211535	-2.584900	3.142100	-8.121900	21.952089	20.142974
916.211257	-2.594200	3.141700	-8.149700	21.958780	20.121917
917.217523	-2.617300	3.141900	-8.223400	21.969657	20.111715
918.212578	-2.591800	3.141200	-8.141100	21.975824	20.099386
919.213229	-2.590100	3.141100	-8.135200	21.958947	20.090253
920.211092	-2.604200	3.142100	-8.181900	21.970267	20.085307
921.208627	-2.620300	3.141100	-8.230400	21.970025	20.106532
922.210458	-2.622100	3.140600	-8.234100	21.960303	20.093833
923.212926	-2.603400	3.140700	-8.176600	21.978986	20.093671
924.211074	-2.576800	3.141800	-8.095500	21.971717	20.070843
925.210783	-2.624800	3.139700	-8.240600	21.974108	20.075829
926.212650	-2.603400	3.140500	-8.175600	21.972468	20.072337
927.210231	-2.647000	3.140000	-8.311400	21.988095	20.068743
928.211651	-2.618600	3.141000	-8.224600	21.979575	20.059838
929.210617	-2.612300	3.141300	-8.206000	21.983794	20.067766
930.210567	-2.614200	3.141000	-8.210700	21.984029	20.069852
931.214043	-2.612600	3.140200	-8.203500	21.975685	20.064825
932.215724	-2.605500	3.141200	-8.184200	21.984230	20.061170
933.209363	-2.615500	3.140300	-8.213000	21.991720	20.070154
934.213102	-2.610000	3.140800	-8.197200	21.994146	20.076655
935.212018	-2.608300	3.140000	-8.189700	21.973567	20.061223
936.212541	-2.612800	3.140900	-8.206000	21.989744	20.044485
937.210152	-2.585100	3.140500	-8.117800	21.990718	20.041760
938.210784	-2.610600	3.140900	-8.199500	21.989918	20.019120
939.210639	-2.607600	3.140900	-8.189900	21.985874	20.047271
940.213298	-2.593600	3.139800	-8.143100	21.993149	20.023466
941.212058	-2.606300	3.139500	-8.182000	21.980317	20.032821
942.210005	-2.588700	3.141100	-8.130900	21.994694	20.015760
943.210685	-2.606100	3.140500	-8.184400	21.997146	20.048939
944.210968	-2.642500	3.139400	-8.295300	21.988559	20.018128
945.212214	-2.601300	3.139200	-8.165700	22.003971	20.017280
946.210917	-2.614500	3.140700	-8.211200	21.990843	20.028559
947.214354	-2.631700	3.139200	-8.261000	21.987833	20.025174
948.212036	-2.641100	3.140200	-8.293100	21.992495	20.036507
949.214413	-2.601000	3.141200	-8.169800	22.010305	20.025106
950.212742	-2.580400	3.140500	-8.103600	22.005884	20.025489
951.209096	-2.605000	3.140100	-8.179300	21.997405	20.022548
952.212358	-2.590000	3.140600	-8.133800	21.993394	20.044811
953.210639	-2.599300	3.140900	-8.163600	21.995504	20.032118
954.209499	-2.595200	3.140300	-8.149400	22.021482	20.030751
955.210952	-2.631400	3.140100	-8.262200	22.012822	20.036141
956.211537	-2.602700	3.139600	-8.171200	21.999467	20.032016
957.209311	-2.591500	3.139300	-8.135300	22.009006	20.025285
958.213865	-2.595600	3.139500	-8.148500	22.014178	20.022694
959.213015	-2.602100	3.139000	-8.167900	22.002690	20.006374
960.211072	-2.618700	3.139900	-8.222000	21.994474	20.005916
961.210146	-2.611200	3.140300	-8.199700	22.001360	20.011333
962.208854	-2.594500	3.140100	-8.146800	22.005336	20.019759
963.209109	-2.573100	3.140300	-8.080000	22.002112	20.006164
964.211805	-2.618000	3.139900	-8.220000	22.019256	20.024449
965.210524	-2.606200	3.140000	-8.183200	22.009776	20.014583
966.209945	-2.596400	3.140400	-8.153200	22.016293	20.020370
967.209626	-2.594000	3.139300	-8.142900	22.028371	20.003599
968.212584	-2.583900	3.138700	-8.109800	22.021821	20.019616
969.214943	-2.628400	3.139400	-8.251300	22.015352	20.020168
970.213110	-2.603800	3.138500	-8.171800	22.020383	20.025579
971.213693	-2.637700	3.138700	-8.278500	22.020457	20.040828
972.213300	-2.629800	3.138800	-8.253700	22.027685	20.037706
973.211996	-2.618900	3.138400	-8.219300	22.021531	20.028210
974.212806	-2.611800	3.139400	-8.199000	22.009358	20.018606
975.211194	-2.592900	3.139700	-8.140400	22.024185	20.019393
976.211366	-2.596900	3.139500	-8.152500	22.030493	20.023121
977.214144	-2.614700	3.139300	-8.208100	22.021880	20.031890
978.216693	-2.596600	3.139500	-8.151400	22.051412	20.013356
979.209405	-2.608500	3.138700	-8.186900	22.026038	20.010145
980.212886	-2.610200	3.139400	-8.194200	22.013650	20.009209
981.213011	-2.588300	3.139900	-8.126600	22.038217	20.017534
982.213409	-2.578400	3.138800	-8.093000	22.021167	20.006376
983.214252	-2.602100	3.139400	-8.168600	22.030901	19.989476
984.216522	-2.597000	3.137900	-8.149000	22.024976	19.988722
985.211532	-2.626500	3.139300	-8.244800	22.028079	20.015151
986.212422	-2.565200	3.140000	-8.054400	22.022590	20.019647
987.214649	-2.572800	3.139600	-8.077000	22.028079	20.026626
988.212223	-2.593600	3.138600	-8.139700	22.023222	20.008064
989.211618	-2.610900	3.138000	-8.193100	22.042401	19.995075
990.211933	-2.565200	3.139400	-8.052900	22.019621	20.015931
991.211645	-2.571000	3.139400	-8.071200	22.026896	20.002491
992.211654	-2.565800	3.139300	-8.054300	22.036314	20.013777
993.211273	-2.587500	3.139300	-8.122800	22.042904	20.019269
994.213415	-2.632700	3.137900	-8.260700	22.014501	20.002659
995.211274	-2.611100	3.138600	-8.195100	22.020963	20.009873
996.211776	-2.597600	3.138300	-8.151800	22.027594	20.025400
997.215116	-2.615100	3.138700	-8.207600	22.023906	19.992462
998.211393	-2.584100	3.138400	-8.109800	22.027298	20.017700
999.211114	-2.582900	3.138200	-8.105100	22.026048	20.003862
1000.212542	-2.592600	3.139500	-8.138900	22.027553	20.019066
1001.209731	-2.620100	3.137900	-8.221500	22.036783	20.011656
1002.214533	-2.588600	3.138800	-8.125000	22.025430	20.014348
1003.213893	-2.599200	3.138100	-8.156300	22.027425	19.994507
1004.213120	-2.584100	3.139300	-8.111800	22.030905	19.996142
1005.214177	-2.568000	3.139200	-8.061000	22.031879	20.012295
1006.213028	-2.586600	3.138200	-8.116800	22.039228	20.011884
1007.210936	-2.582300	3.138900	-8.105000	22.038294	19.993921
1008.210602	-2.580700	3.138900	-8.100600	22.032147	19.984801
1009.211101	-2.589000	3.138600	-8.125500	22.039503	19.989580
1010.212437	-2.616500	3.137700	-8.209400	22.035317	19.988348
1011.211814	-2.591000	3.138900	-8.132800	22.032959	19.993018
1012.210544	-2.576200	3.137900	-8.083300	22.040342	19.998194
1013.214190	-2.601800	3.138200	-8.164400	22.024474	19.995993
1014.213432	-2.579800	3.138200	-8.095000	22.028794	19.995508
1015.211756	-2.610600	3.137800	-8.191600	22.041739	19.994781
1016.212916	-2.601200	3.138100	-8.162400	22.029405	19.991308
1017.213579	-2.570100	3.137900	-8.064300	22.025669	19.973129
1018.213408	-2.590400	3.137400	-8.126800	22.034080	19.995252
1019.211995	-2.609700	3.137200	-8.186700	22.038950	19.993098
1020.215314	-2.599100	3.137800	-8.155100	22.030949	20.003590
1021.213274	-2.590600	3.137500	-8.127900	22.031151	19.997869
1022.211531	-2.621300	3.136300	-8.221000	22.047079	20.005313
1023.211757	-2.591200	3.138600	-8.132700	22.040361	20.007096
1024.212962	-2.610800	3.137700	-8.191300	22.028873	19.989295
1025.210774	-2.609600	3.137200	-8.186500	22.034012	19.969642
1026.212633	-2.547300	3.138900	-7.995400	22.027482	19.981239
1027.211953	-2.581900	3.137800	-8.101500	22.040743	19.959358
1028.211726	-2.612500	3.137400	-8.196100	22.030418	19.963450
1029.211454	-2.610700	3.137400	-8.190300	22.031278	19.970234
1030.213917	-2.585700	3.137000	-8.111100	22.053648	19.957110
1031.213070	-2.601400	3.137600	-8.161700	22.026454	19.969844
1032.213228	-2.603500	3.138200	-8.169800	22.024378	19.962582
1033.210791	-2.595900	3.137000	-8.143300	22.039997	19.939732
1034.212512	-2.588700	3.137500	-8.121900	22.037028	19.967852
1035.211538	-2.611500	3.137800	-8.193700	22.032742	19.961337
1036.214872	-2.599700	3.137700	-8.156900	22.053507	19.958819
1037.213453	-2.605000	3.137500	-8.172800	22.042275	19.965334
1038.213618	-2.597400	3.138800	-8.152400	22.032453	19.977335
1039.216031	-2.600700	3.137900	-8.160300	22.031157	19.974185
1040.215038	-2.594900	3.137400	-8.140900	22.023149	19.975787
1041.211967	-2.609900	3.136900	-8.186900	22.027724	19.969635
1042.212963	-2.602000	3.137000	-8.162200	22.044949	19.948394
1043.212345	-2.624400	3.137100	-8.232900	22.036336	19.971971
1044.211010	-2.598300	3.138000	-8.153300	22.042873	19.974448
1045.210627	-2.587500	3.137600	-8.118500	22.029571	19.980370
1046.213945	-2.588700	3.136800	-8.120000	22.036128	19.982127
1047.209747	-2.584800	3.137400	-8.109200	22.039474	19.979556
1048.214090	-2.611000	3.137200	-8.190700	22.038957	19.959789
1049.210732	-2.603100	3.135600	-8.162200	22.033670	19.988178
1050.209580	-2.593600	3.136100	-8.133600	22.044351	19.969636
1051.212008	-2.603900	3.137000	-8.168100	22.029169	19.985890
1052.213468	-2.616200	3.136100	-8.204500	22.042181	19.979307
1053.214627	-2.605100	3.137200	-8.172300	22.044123	19.964965
1054.209091	-2.606400	3.137300	-8.176700	22.037546	19.970222
1055.214898	-2.607700	3.136500	-8.178700	22.053206	19.968142
1056.218129	-2.602100	3.135900	-8.159300	22.033959	19.960705
1057.211924	-2.594100	3.136700	-8.136700	22.039777	19.982451
1058.210966	-2.589300	3.136600	-8.121000	22.035397	19.964367
1059.212027	-2.596500	3.135200	-8.140200	22.028579	19.959386
1060.211699	-2.597000	3.136100	-8.144200	22.031703	19.958074
1061.211315	-2.591000	3.135600	-8.124100	22.036533	19.958471
1062.210095	-2.616500	3.136400	-8.205800	22.051239	19.956177
1063.214567	-2.601300	3.136000	-8.157400	22.025838	19.956271
1064.210953	-2.598900	3.136200	-8.150500	22.044017	19.974854
1065.212171	-2.600200	3.136800	-8.156100	22.039812	19.979525
1066.212730	-2.603100	3.135300	-8.160700	22.033094	19.965391
1067.210570	-2.603200	3.136400	-8.164100	22.039819	19.973239
1068.211133	-2.607700	3.135700	-8.176600	22.032289	19.983833
1069.212358	-2.631300	3.134900	-8.248300	22.042493	19.964443
1070.211893	-2.596200	3.135800	-8.140800	22.040498	19.952820
1071.211612	-2.612400	3.135600	-8.191300	22.037980	19.967694
1072.214174	-2.611600	3.136000	-8.189700	22.040190	19.963246
1073.215833	-2.584200	3.136300	-8.104400	22.028508	19.938216
1074.211705	-2.608800	3.136100	-8.181100	22.037873	19.955742
1075.213022	-2.594200	3.136600	-8.136900	22.030080	19.947935
1076.217590	-2.637000	3.135700	-8.268500	22.041441	19.961908
1077.213383	-2.590500	3.135200	-8.121500	22.043732	19.958650
1078.211826	-2.595400	3.135000	-8.136200	22.022732	19.945755
1079.210649	-2.592800	3.136400	-8.131800	22.024519	19.964944
1080.208287	-2.601000	3.134800	-8.153600	22.025514	19.958167
1081.211871	-2.589100	3.135400	-8.117700	22.027845	19.952359
1082.212455	-2.619900	3.135600	-8.214400	22.031561	19.961634
1083.212281	-2.609100	3.135100	-8.179200	22.018428	19.963283
1084.212610	-2.591600	3.137000	-8.129900	22.032912	19.962617
1085.211929	-2.597900	3.135600	-8.145900	22.012100	19.957684
1086.211819	-2.596600	3.136300	-8.143500	22.028882	19.951546
1087.212643	-2.589200	3.136300	-8.120100	22.025167	19.944494
1088.213867	-2.615700	3.135200	-8.200300	22.030784	19.939755
1089.212309	-2.567000	3.136000	-8.049900	22.020559	19.934324
1090.213730	-2.602200	3.135300	-8.158900	22.039021	19.955412
1091.210318	-2.584200	3.135600	-8.103100	22.010188	19.952437
1092.212436	-2.605900	3.135300	-8.170000	22.047628	19.945526
1093.212161	-2.605600	3.135100	-8.168400	22.041716	19.948487
1094.211915	-2.598400	3.135600	-8.147500	22.031089	19.956719
1095.212056	-2.568700	3.134800	-8.052400	22.032923	19.966331
1096.211598	-2.621800	3.135400	-8.220100	22.019306	19.958611
1097.211402	-2.621300	3.134200	-8.215400	22.032911	19.939295
1098.215659	-2.618200	3.135000	-8.207800	22.012495	19.936610
1099.212368	-2.615400	3.134600	-8.198100	22.026086	19.955038
1100.213795	-2.591900	3.135200	-8.125800	22.021687	19.965438
1101.214811	-2.599800	3.134900	-8.149500	22.029782	19.951708
1102.213631	-2.585300	3.135800	-8.106700	22.035231	19.961980
1103.215945	-2.589500	3.135300	-8.118500	22.021131	19.961549
1104.209960	-2.601800	3.135000	-8.156600	22.029736	19.954253
1105.211331	-2.604500	3.135200	-8.165400	22.025316	19.963892
1106.211126	-2.592600	3.135000	-8.127600	22.028421	19.974035
1107.211040	-2.621400	3.135500	-8.219000	22.025774	19.970643
1108.211229	-2.608000	3.135000	-8.176100	22.013797	19.971971
1109.211094	-2.607300	3.134100	-8.171300	22.021819	19.964089
1110.212288	-2.592100	3.134800	-8.125700	22.023290	19.981851
1111.212064	-2.600800	3.134800	-8.152400	22.023507	19.972443
1112.212773	-2.593400	3.135300	-8.130900	22.029049	19.978366
1113.209594	-2.586400	3.134800	-8.107600	22.022218	19.981517
1114.212788	-2.612800	3.134500	-8.189300	22.013982	19.967343
1115.216350	-2.588700	3.135400	-8.116000	22.012888	19.978833
1116.211879	-2.598300	3.134100	-8.143000	22.011114	19.987421
1117.215948	-2.583700	3.134800	-8.099100	22.023012	19.957512
1118.212971	-2.602000	3.133400	-8.152300	22.008375	19.982455
1119.213656	-2.591300	3.132900	-8.118100	22.015994	19.973801
1120.211199	-2.601400	3.132500	-8.148400	22.016941	19.988446
1121.211521	-2.581200	3.133100	-8.086600	22.006865	19.983905
1122.211461	-2.622500	3.134600	-8.220200	22.025831	19.985877
1123.211276	-2.620100	3.132900	-8.208000	22.019839	19.959515
1124.212001	-2.585300	3.134300	-8.102900	22.032490	19.961824
1125.213038	-2.603700	3.134600	-8.161100	22.009394	19.961266
1126.212584	-2.590400	3.134000	-8.117600	22.005546	19.968146
1127.213464	-2.579300	3.133700	-8.082500	22.013594	19.985833
1128.216015	-2.604600	3.133300	-8.160600	22.017175	19.982758
1129.209884	-2.584100	3.135300	-8.101400	22.004257	19.983513
1130.212183	-2.578500	3.134300	-8.081400	22.028745	19.996200
1131.212426	-2.568600	3.134400	-8.051000	21.997802	19.962239
1132.211371	-2.613600	3.132800	-8.187800	22.020430	19.977505
1133.213115	-2.604600	3.133500	-8.161400	22.013195	19.974699
1134.214166	-2.602400	3.133700	-8.155000	22.013451	19.977917
1135.211157	-2.619000	3.132800	-8.204700	22.035298	19.984257
1136.212574	-2.621800	3.134400	-8.217500	22.013090	19.984588
1137.214470	-2.626500	3.134000	-8.231100	22.028313	19.975408
1138.211509	-2.572600	3.133900	-8.062200	22.005702	19.989032
1139.211831	-2.577900	3.133900	-8.078800	22.031063	19.995560
1140.210273	-2.609800	3.134600	-8.180300	22.009224	19.992190
1141.210889	-2.599200	3.133700	-8.145000	22.015519	19.987022
1142.210082	-2.604700	3.134200	-8.163500	22.033538	19.992487
1143.211847	-2.578700	3.133300	-8.079500	22.011443	19.990341
1144.212324	-2.602300	3.133200	-8.153600	22.037912	19.985394
1145.213177	-2.597700	3.134100	-8.141300	22.024651	19.998391
1146.211502	-2.615300	3.132800	-8.192500	22.036651	19.991534
1147.210364	-2.616500	3.133500	-8.198200	22.004123	19.967831
1148.210791	-2.592100	3.133200	-8.120900	22.034838	19.984907
1149.214159	-2.616100	3.132200	-8.194100	22.024117	19.981939
1150.212159	-2.579700	3.132800	-8.081100	22.033920	20.005456
1151.213190	-2.581400	3.133900	-8.089600	22.035809	19.997354
1152.217506	-2.617500	3.133600	-8.201500	22.008568	19.992643
1153.210515	-2.606300	3.131900	-8.162200	22.048904	19.986783
1154.211756	-2.584700	3.133200	-8.098000	22.032003	19.993171
1155.209846	-2.580400	3.133600	-8.085500	22.031809	19.999269
1156.212352	-2.609700	3.132300	-8.174000	22.023587	20.011021
1157.209890	-2.572800	3.134200	-8.063500	22.012288	19.996740
1158.210168	-2.589900	3.132900	-8.113300	22.017765	19.987050
1159.217872	-2.617600	3.133900	-8.202800	22.006137	20.000943
1160.208786	-2.606500	3.131100	-8.160800	22.022281	19.989354
1161.211557	-2.586700	3.133400	-8.105200	22.018050	19.995109
1162.210117	-2.599100	3.132100	-8.140300	22.009164	20.001014
1163.214751	-2.609000	3.133400	-8.174800	22.028499	19.991882
1164.214803	-2.580700	3.133900	-8.087100	22.009643	19.980395
1165.210975	-2.583700	3.132600	-8.092800	22.030195	19.999133
1166.211186	-2.600800	3.132700	-8.147000	22.040111	19.995001
1167.213907	-2.577700	3.132200	-8.073900	22.020677	19.991078
1168.212195	-2.604400	3.131600	-8.155700	22.022164	20.001822
1169.215210	-2.591000	3.133200	-8.118000	22.024381	19.985165
1170.212983	-2.596400	3.132900	-8.133900	22.016240	19.984412
1171.211447	-2.595000	3.131400	-8.125500	22.018692	19.984648
1172.211367	-2.585600	3.132500	-8.099000	22.022503	20.005123
1173.213718	-2.602000	3.132300	-8.149900	22.023996	20.011431
1174.212172	-2.590500	3.132400	-8.114200	22.020456	20.000111
1175.212119	-2.621500	3.131300	-8.208900	22.028284	20.020538
1176.212313	-2.580100	3.131300	-8.078300	22.018328	19.999830
1177.211699	-2.614100	3.131600	-8.185900	22.008394	20.012457
1178.211167	-2.583600	3.132300	-8.092600	22.037074	19.999732
1179.211033	-2.595500	3.131500	-8.127700	22.032655	20.004929
1180.210458	-2.621500	3.131800	-8.209700	22.036573	20.023290
1181.212132	-2.593500	3.132000	-8.122500	22.032974	19.998585
1182.209463	-2.582100	3.132400	-8.088200	22.038006	19.999185
1183.213371	-2.585800	3.131600	-8.097700	22.055178	20.010096
1184.211099	-2.603100	3.131400	-8.150700	22.020757	20.020401
1185.212368	-2.601700	3.132400	-8.149500	22.035477	20.019230
1186.210111	-2.592600	3.131300	-8.118000	22.032509	20.017368
1187.211947	-2.599500	3.131900	-8.140900	22.037381	20.006332
1188.210342	-2.584900	3.131200	-8.093100	22.048727	20.021771
1189.211579	-2.597400	3.132000	-8.134500	22.046493	20.011389
1190.214339	-2.585200	3.132600	-8.098000	22.042771	20.030240
1191.212219	-2.579800	3.131200	-8.077700	22.040402	20.013801
1192.212975	-2.601600	3.131600	-8.146600	22.034318	20.018810
1193.210875	-2.606600	3.130500	-8.159900	22.036031	20.027189
1194.208681	-2.603400	3.131600	-8.152900	22.039896	20.009592
1195.209755	-2.595800	3.130600	-8.126300	22.036002	20.018646
1196.210775	-2.578900	3.131400	-8.074700	22.048135	20.021548
1197.210295	-2.577500	3.130300	-8.068100	22.034977	20.018730
1198.211891	-2.610700	3.130700	-8.173100	22.058007	20.019223
1199.210692	-2.581400	3.131300	-8.083000	22.027907	20.018309
1200.213107	-2.591500	3.132400	-8.117600	22.032779	20.022820
1201.216853	-2.596600	3.131700	-8.131600	22.039182	20.019981
1202.212009	-2.580500	3.131000	-8.079600	22.055588	20.025683
1203.214096	-2.581500	3.130800	-8.081900	22.045419	20.026970
1204.212519	-2.595100	3.131400	-8.125900	22.062365	20.044317
1205.212156	-2.590000	3.130500	-8.107500	22.035649	20.046054
1206.210903	-2.597700	3.131400	-8.134100	22.048859	20.024493
1207.211316	-2.589800	3.131600	-8.109700	22.051755	20.029986
1208.210151	-2.597800	3.130300	-8.131700	22.057849	20.039052
1209.211864	-2.600300	3.130500	-8.139700	22.038746	20.031390
1210.211192	-2.609300	3.130000	-8.167200	22.041717	20.030295
1211.211524	-2.606400	3.131000	-8.160200	22.049128	20.031056
1212.214596	-2.586200	3.131500	-8.098500	22.040458	20.039026
1213.211852	-2.606200	3.131500	-8.161200	22.039049	20.033543
1214.215670	-2.587100	3.130700	-8.099300	22.057613	20.036224
1215.213370	-2.586300	3.130200	-8.095400	22.051883	20.043809
1216.211707	-2.581000	3.131000	-8.081100	22.048996	20.027962
1217.212346	-2.577600	3.130400	-8.068700	22.048695	20.026551
1218.210452	-2.615800	3.129900	-8.186900	22.039393	20.045363
1219.212244	-2.600700	3.131000	-8.142500	22.066482	20.040668
1220.213271	-2.591800	3.130700	-8.114000	22.046208	20.036274
1221.214120	-2.618600	3.129900	-8.195600	22.057523	20.048719
1222.212943	-2.594800	3.129900	-8.121500	22.045527	20.033371
1223.212701	-2.596500	3.130600	-8.128500	22.057950	20.035822
1224.216037	-2.602200	3.131200	-8.147600	22.045772	20.041759
1225.214724	-2.596200	3.129600	-8.124500	22.051228	20.054628
1226.213385	-2.599200	3.130100	-8.135900	22.057513	20.050561
1227.211651	-2.578500	3.130200	-8.071100	22.068517	20.046779
1228.212795	-2.615700	3.129000	-8.184200	22.051805	20.059647
1229.212150	-2.598400	3.130100	-8.132500	22.065148	20.057099
1230.210767	-2.572100	3.130200	-8.050700	22.082973	20.055709
1231.212931	-2.615800	3.129900	-8.186800	22.066898	20.039975
1232.211978	-2.623900	3.128900	-8.209200	22.068311	20.062488
1233.210582	-2.586400	3.129500	-8.093700	22.067963	20.068432
1234.213636	-2.626800	3.130100	-8.221800	22.063684	20.062665
1235.213859	-2.616600	3.129900	-8.189000	22.067308	20.053341
1236.212725	-2.609900	3.129700	-8.167400	22.076411	20.048765
1237.211541	-2.580100	3.128800	-8.072600	22.063233	20.069986
1238.211593	-2.594900	3.128800	-8.118900	22.068057	20.057792
1239.210851	-2.615400	3.128900	-8.183200	22.077021	20.060850
1240.212822	-2.598900	3.130700	-8.135700	22.083296	20.064175
1241.216862	-2.601100	3.129400	-8.139700	22.079462	20.066996
1242.211590	-2.585700	3.129200	-8.091200	22.070187	20.074361
1243.215985	-2.613100	3.128800	-8.175400	22.062759	20.065440
1244.213251	-2.614600	3.129100	-8.181400	22.089447	20.061824
1245.213260	-2.603900	3.129700	-8.149800	22.075953	20.066073
1246.212117	-2.629000	3.128700	-8.224700	22.075578	20.075320
1247.213553	-2.634300	3.128200	-8.240200	22.083144	20.081049
1248.211981	-2.623000	3.128900	-8.206900	22.079304	20.080904
1249.211602	-2.605000	3.130600	-8.155000	22.075813	20.064081
1250.211658	-2.592900	3.130000	-8.114900	22.088166	20.071645
1251.210726	-2.608000	3.129600	-8.162000	22.081209	20.068747
1252.213926	-2.593300	3.130900	-8.119300	22.080620	20.071118
1253.212067	-2.616200	3.128800	-8.185600	22.089535	20.070796
1254.212002	-2.583600	3.129300	-8.084300	22.096598	20.066027
1255.212346	-2.651600	3.128200	-8.294100	22.077460	20.083868
1256.211115	-2.606800	3.128600	-8.155300	22.089063	20.077356
1257.213745	-2.614900	3.128300	-8.179900	22.097374	20.096415
1258.214915	-2.622100	3.128200	-8.202100	22.098658	20.082526
1259.214527	-2.579300	3.129600	-8.071600	22.100072	20.078020
1260.215650	-2.589500	3.129000	-8.102400	22.091381	20.094483
1261.212901	-2.592300	3.129100	-8.111500	22.100869	20.103617
1262.213447	-2.629500	3.128900	-8.226700	22.103471	20.085497
1263.212083	-2.622700	3.128800	-8.205400	22.079819	20.095115
1264.212306	-2.601200	3.129300	-8.139800	22.101136	20.093521
1265.210592	-2.616200	3.128100	-8.183400	22.088413	20.116308
1266.212053	-2.579500	3.128800	-8.070200	22.093864	20.098451
1267.212744	-2.602600	3.128400	-8.141600	22.115025	20.105955
1268.212543	-2.584200	3.129300	-8.086900	22.090051	20.106105
1269.212636	-2.595200	3.129100	-8.120600	22.103898	20.107762
1270.213055	-2.603400	3.130000	-8.148100	22.096535	20.110380
1271.212733	-2.621500	3.127900	-8.199600	22.108133	20.124959
1272.217022	-2.621800	3.129000	-8.202900	22.108160	20.113142
1273.213165	-2.604600	3.128000	-8.146600	22.105193	20.120163
1274.214743	-2.597600	3.129000	-8.127900	22.107527	20.112509
1275.216452	-2.595700	3.129400	-8.123100	22.121883	20.104682
1276.213746	-2.598300	3.129700	-8.131700	22.114011	20.113823
1277.212157	-2.611700	3.128900	-8.171600	22.113294	20.109032
1278.213316	-2.614500	3.129600	-8.182100	22.117090	20.127640
1279.211499	-2.624700	3.128600	-8.211300	22.113567	20.134104
1280.214059	-2.594600	3.129200	-8.118600	22.116019	20.111762
1281.212107	-2.611700	3.129300	-8.172300	22.121759	20.128986
1282.212970	-2.582100	3.128600	-8.078000	22.126770	20.128825
1283.211843	-2.610100	3.128800	-8.166500	22.116522	20.129662
1284.212070	-2.613800	3.129000	-8.178500	22.126545	20.115275
1285.211765	-2.607500	3.128500	-8.157200	22.131691	20.117469
1286.213254	-2.608500	3.127900	-8.158800	22.150817	20.116643
1287.214094	-2.642400	3.127100	-8.262700	22.146083	20.111901
1288.212686	-2.602600	3.128000	-8.140800	22.127921	20.128127
1289.214089	-2.597100	3.127700	-8.122800	22.118390	20.135605
1290.214872	-2.583400	3.126900	-8.077400	22.141184	20.113655
1291.213748	-2.598800	3.127800	-8.128300	22.138646	20.128138
1292.215343	-2.629400	3.128000	-8.224600	22.131910	20.140266
1293.214623	-2.603300	3.128900	-8.145000	22.144680	20.130112
1294.215024	-2.610000	3.127800	-8.163500	22.142827	20.140840
1295.216475	-2.582100	3.127200	-8.074200	22.146195	20.137181
1296.213306	-2.593200	3.127200	-8.109300	22.132242	20.130975
1297.212294	-2.623600	3.127400	-8.204800	22.139218	20.140185
1298.212139	-2.605500	3.127300	-8.147900	22.141537	20.148800
1299.212442	-2.594500	3.127500	-8.113800	22.157975	20.144911
1300.212703	-2.609700	3.127200	-8.160500	22.165604	20.141081
1301.212473	-2.605900	3.127100	-8.148800	22.152294	20.151803
1302.212329	-2.615600	3.126600	-8.177400	22.144899	20.152168
1303.211831	-2.615800	3.126700	-8.178400	22.150516	20.147802
1304.212080	-2.580000	3.126600	-8.066700	22.159800	20.162654
1305.209350	-2.614000	3.127300	-8.173900	22.153279	20.153530
1306.211491	-2.609200	3.126600	-8.157800	22.161059	20.145780
1307.212550	-2.605500	3.126600	-8.145900	22.158371	20.174916
1308.214081	-2.592400	3.127400	-8.107100	22.162633	20.172894
1309.209983	-2.590600	3.127200	-8.101000	22.157541	20.163722
1310.212880	-2.619900	3.128000	-8.194600	22.152096	20.159007
1311.212745	-2.597300	3.126700	-8.120200	22.160277	20.153879
1312.214696	-2.616400	3.126800	-8.180700	22.168126	20.159892
1313.214677	-2.596100	3.126900	-8.117900	22.169240	20.176922
1314.210161	-2.587400	3.126800	-8.090200	22.178471	20.172106
1315.212348	-2.604900	3.125800	-8.141600	22.179124	20.172020
1316.211294	-2.598500	3.127100	-8.125300	22.170418	20.163668
1317.214095	-2.592200	3.126100	-8.103100	22.180227	20.171644
1318.211105	-2.600300	3.126400	-8.129300	22.168292	20.176343
1319.213511	-2.585800	3.126500	-8.084100	22.180264	20.174273
1320.215530	-2.608100	3.125000	-8.150100	22.161969	20.181111
1321.217275	-2.617700	3.126900	-8.184800	22.167489	20.169617
1322.215971	-2.586700	3.126700	-8.087500	22.178615	20.171880
1323.216435	-2.573500	3.126000	-8.044200	22.176843	20.176767
1324.212807	-2.584800	3.126900	-8.082200	22.172458	20.185698
1325.212319	-2.586400	3.126400	-8.085800	22.167034	20.193218
1326.212029	-2.593300	3.126600	-8.108100	22.189190	20.195428
1327.209966	-2.592100	3.126100	-8.102700	22.188296	20.181208
1328.210189	-2.613300	3.127400	-8.172400	22.180661	20.193545
1329.212421	-2.594200	3.127300	-8.112300	22.193870	20.183831
1330.209260	-2.640900	3.125700	-8.254200	22.203154	20.187581
1331.209116	-2.639800	3.126500	-8.252700	22.205172	20.182201
1332.216256	-2.598900	3.127100	-8.126400	22.197495	20.184132
1333.214142	-2.591900	3.126200	-8.102400	22.181834	20.176586
1334.214406	-2.598700	3.125100	-8.120900	22.202517	20.194345
1335.215110	-2.615300	3.124900	-8.172300	22.198577	20.189657
1336.210447	-2.591200	3.126200	-8.100000	22.194690	20.193535
1337.211997	-2.613400	3.125200	-8.167100	22.203862	20.208645
1338.213147	-2.607100	3.125400	-8.147600	22.216738	20.208591
1339.208686	-2.599100	3.126000	-8.124200	22.199755	20.216374
1340.212216	-2.620100	3.126200	-8.190900	22.217434	20.189674
1341.215307	-2.586800	3.126200	-8.086400	22.204226	20.223444
1342.210948	-2.623800	3.125200	-8.199500	22.201737	20.214288
1343.213220	-2.607900	3.126800	-8.154200	22.199992	20.194035
1344.211023	-2.609900	3.126500	-8.159300	22.212440	20.198364
1345.211819	-2.577700	3.124900	-8.054800	22.211455	20.187015
1346.212735	-2.600900	3.125600	-8.129200	22.205245	20.196707
1347.212526	-2.582000	3.125600	-8.070200	22.212971	20.175580
1348.212846	-2.606200	3.123800	-8.141100	22.203730	20.187788
1349.210915	-2.582400	3.125300	-8.070700	22.200475	20.178235
1350.213675	-2.586900	3.125100	-8.084200	22.219284	20.155627
1351.212997	-2.600000	3.125100	-8.124900	22.222105	20.171778
1352.211736	-2.616800	3.125400	-8.178200	22.233183	20.157708
1353.212114	-2.623000	3.125000	-8.196600	22.225211	20.151942
1354.212758	-2.581600	3.125900	-8.069500	22.207998	20.145431
1355.213298	-2.613900	3.125200	-8.168700	22.229607	20.131179
1356.213188	-2.592300	3.125300	-8.101500	22.210392	20.138946
1357.213418	-2.620500	3.124800	-8.188200	22.214788	20.129656
1358.211714	-2.596200	3.124100	-8.110400	22.232761	20.136559
1359.214998	-2.621100	3.124800	-8.189800	22.220688	20.119282
1360.211801	-2.583200	3.125200	-8.072600	22.210998	20.105132
1361.211804	-2.607200	3.124900	-8.146900	22.230604	20.085912
1362.212846	-2.586300	3.124800	-8.081500	22.222049	20.076600
1363.211175	-2.589300	3.126100	-8.094100	22.236376	20.090585
1364.209629	-2.620800	3.124700	-8.188600	22.232966	20.081246
1365.210664	-2.609500	3.124500	-8.153100	22.248053	20.067122
1366.208542	-2.588300	3.125900	-8.090500	22.229132	20.057048
1367.215194	-2.592300	3.123700	-8.097500	22.240232	20.044850
1368.211687	-2.590300	3.124400	-8.092700	22.243342	20.053519
1369.210995	-2.593700	3.124900	-8.105200	22.245495	20.030876
1370.208464	-2.624700	3.125200	-8.202000	22.234932	20.055456
1371.210928	-2.592900	3.124600	-8.101500	22.223769	20.036499
1372.209023	-2.591100	3.123900	-8.093600	22.236330	20.026505
1373.213832	-2.598900	3.124000	-8.118700	22.232331	20.047668
1374.215286	-2.603200	3.124500	-8.133000	22.236470	20.031827
1375.214611	-2.586500	3.125200	-8.082900	22.235276	20.023228
1376.214322	-2.587600	3.125200	-8.086300	22.237247	20.011507
1377.216212	-2.601600	3.124500	-8.128400	22.244737	20.020863
1378.213541	-2.585600	3.124300	-8.077800	22.247768	20.026120
1379.216977	-2.615100	3.124400	-8.170500	22.246756	20.024367
1380.211899	-2.594700	3.124800	-8.108000	22.245675	20.021062
1381.209923	-2.591500	3.124400	-8.096500	22.245949	20.022817
1382.213162	-2.595100	3.124300	-8.107500	22.250649	20.024566
1383.211487	-2.626100	3.124300	-8.204000	22.236125	20.019637
1384.212810	-2.617200	3.124600	-8.177200	22.250559	20.030768
1385.209866	-2.584300	3.124400	-8.074300	22.257541	20.009632
1386.210862	-2.598400	3.124400	-8.118400	22.260255	20.021236
1387.215299	-2.600100	3.124400	-8.123500	22.254040	20.009826
1388.214547	-2.604800	3.124300	-8.137800	22.268705	20.016377
1389.211806	-2.594400	3.124100	-8.105100	22.255770	20.022294
1390.211989	-2.641800	3.123800	-8.252300	22.239880	20.000080
1391.214244	-2.590900	3.123200	-8.091700	22.265868	20.019087
1392.213519	-2.594000	3.123600	-8.102000	22.266125	20.024897
1393.212625	-2.584300	3.123500	-8.071700	22.267095	19.995886
1394.216424	-2.608500	3.123400	-8.147000	22.264210	19.997067
1395.211226	-2.600000	3.124100	-8.122100	22.243539	20.002266
1396.208779	-2.608100	3.122600	-8.143800	22.271374	19.995362
1397.212595	-2.615800	3.123600	-8.170600	22.254767	20.007594
1398.210845	-2.610900	3.123700	-8.155800	22.276579	20.005760
1399.213358	-2.582300	3.124300	-8.067200	22.272329	20.005942
1400.213183	-2.600100	3.123000	-8.119400	22.251605	19.986657
1401.209230	-2.611100	3.123300	-8.155000	22.263684	19.992838
1402.208929	-2.633200	3.122400	-8.221400	22.262517	20.017950
1403.211303	-2.598800	3.123600	-8.117400	22.281057	19.988778
1404.209579	-2.634700	3.123600	-8.229300	22.269044	19.994138
1405.213355	-2.594600	3.124000	-8.105100	22.266240	20.003542
1406.211066	-2.577200	3.123200	-8.048900	22.264490	19.999198
1407.214790	-2.628500	3.122400	-8.206600	22.272087	19.987932
1408.211127	-2.611200	3.122700	-8.153300	22.272152	19.997252
1409.209965	-2.594900	3.122100	-8.100600	22.278791	20.001314
1410.212407	-2.603900	3.123300	-8.132400	22.272844	19.990912
1411.211658	-2.593300	3.122600	-8.097200	22.262447	19.982715
1412.214563	-2.587600	3.122900	-8.080600	22.271716	19.995335
1413.216327	-2.582300	3.123100	-8.064600	22.267942	19.990072
1414.216791	-2.576900	3.124300	-8.050600	22.268217	20.005153
1415.211318	-2.571700	3.122100	-8.028700	22.274669	20.001254
1416.214642	-2.617200	3.121800	-8.170100	22.274793	20.002489
1417.210539	-2.606300	3.122200	-8.137000	22.252512	20.022360
1418.212495	-2.609800	3.122300	-8.148100	22.277408	20.014733
1419.211810	-2.619900	3.122800	-8.181000	22.286006	20.001140
1420.211422	-2.593700	3.123400	-8.100800	22.264517	19.988121
1421.215075	-2.599300	3.123900	-8.119600	22.277699	20.000960
1422.216867	-2.582700	3.124300	-8.069000	22.285474	19.997275
1423.212618	-2.602400	3.121500	-8.123400	22.279162	19.981326
1424.213461	-2.585800	3.121500	-8.071200	22.277087	19.987761
1425.209455	-2.591200	3.122300	-8.090000	22.282249	20.003298
1426.211920	-2.603900	3.123200	-8.132300	22.262799	19.987880
1427.215922	-2.604100	3.123000	-8.132200	22.281780	19.978767
1428.213706	-2.569900	3.121700	-8.022000	22.269986	19.991380
1429.215025	-2.598300	3.122900	-8.114000	22.263541	19.973446
1430.216513	-2.629700	3.122400	-8.210700	22.274742	19.968383
1431.213366	-2.593400	3.123100	-8.099100	22.282694	19.971169
1432.211806	-2.575900	3.122200	-8.042000	22.274745	19.967275
1433.214032	-2.594400	3.123500	-8.103500	22.271598	19.981150
1434.209714	-2.606200	3.122400	-8.137400	22.279951	19.965089
1435.211446	-2.608700	3.122100	-8.143800	22.279283	19.977005
1436.210916	-2.586200	3.122800	-8.075900	22.289541	19.960262
1437.212500	-2.600800	3.121700	-8.118800	22.281587	19.965248
1438.212443	-2.608800	3.122600	-8.145500	22.277519	19.970055
1439.216173	-2.599700	3.122400	-8.116600	22.287194	19.954209
1440.211136	-2.601700	3.121300	-8.120300	22.284572	19.959355
1441.212528	-2.608200	3.120600	-8.138900	22.278995	19.951175
1442.210783	-2.610800	3.121500	-8.149200	22.265473	19.943177
1443.213675	-2.612000	3.121100	-8.151700	22.287846	19.961155
1444.213276	-2.589500	3.121700	-8.083200	22.286649	19.962176
1445.213303	-2.628300	3.122300	-8.205900	22.274952	19.957118
1446.213323	-2.592800	3.121300	-8.092600	22.284119	19.946315
1447.209800	-2.590600	3.121900	-8.087600	22.281738	19.955034
1448.210901	-2.597900	3.121300	-8.108400	22.278943	19.942609
1449.214514	-2.606600	3.121400	-8.135900	22.291814	19.946993
1450.214212	-2.581100	3.122100	-8.058100	22.272591	19.971780
1451.214169	-2.581800	3.122200	-8.060400	22.280473	19.961540
1452.214491	-2.612600	3.121600	-8.155300	22.294527	19.957115
1453.214122	-2.614100	3.121600	-8.159700	22.270409	19.986251
1454.211564	-2.589000	3.121300	-8.080500	22.281776	19.939895
1455.213058	-2.604700	3.121000	-8.129000	22.285043	19.962047
1456.211215	-2.597900	3.121000	-8.107700	22.288326	19.960156
1457.211859	-2.627200	3.121200	-8.199800	22.287610	19.949813
1458.210686	-2.579000	3.121200	-8.049100	22.285389	19.947217
1459.210773	-2.580300	3.121400	-8.053900	22.285785	19.947244
1460.215359	-2.585300	3.121600	-8.069700	22.286283	19.941080
1461.214429	-2.594800	3.121200	-8.098500	22.270732	19.950668
1462.215384	-2.626600	3.120200	-8.195400	22.280434	19.970756
1463.212712	-2.619200	3.120200	-8.172300	22.273251	19.959855
1464.213480	-2.598700	3.120700	-8.109800	22.291903	19.951524
1465.209101	-2.626200	3.121100	-8.196300	22.291031	19.948059
1466.213323	-2.590600	3.121400	-8.085800	22.283456	19.960087
1467.213842	-2.597700	3.119700	-8.104000	22.279748	19.952670
1468.213425	-2.589100	3.120300	-8.078400	22.286913	19.971695
1469.215498	-2.588900	3.120800	-8.079400	22.293322	19.966642
1470.215169	-2.619300	3.120000	-8.171600	22.280891	19.967142
1471.212971	-2.616300	3.120000	-8.162300	22.297118	19.951567
1472.215220	-2.624700	3.119500	-8.187700	22.298426	19.945105
1473.211890	-2.603400	3.121000	-8.124900	22.285119	19.954350
1474.210271	-2.603200	3.120600	-8.123000	22.305431	19.949903
1475.212727	-2.619500	3.120600	-8.174200	22.287637	19.933553
1476.211441	-2.600900	3.120500	-8.115600	22.294727	19.956575
1477.217166	-2.585800	3.119800	-8.067000	22.275059	19.941308
1478.212184	-2.588400	3.120900	-8.077700	22.284241	19.932000
1479.213310	-2.596200	3.119800	-8.099200	22.294179	19.930483
1480.210775	-2.621700	3.120100	-8.179400	22.273167	19.940523
1481.211574	-2.574400	3.119700	-8.031100	22.282981	19.935920
1482.213390	-2.593900	3.120200	-8.093100	22.281147	19.943337
1483.211606	-2.595200	3.120200	-8.096800	22.287574	19.938671
1484.212710	-2.606900	3.118500	-8.129300	22.283719	19.939992
1485.214551	-2.566300	3.120200	-8.007100	22.299804	19.943524
1486.214698	-2.607700	3.119000	-8.133000	22.284997	19.928685
1487.214601	-2.616600	3.119000	-8.160900	22.274279	19.927200
1488.212554	-2.586300	3.120100	-8.068700	22.270790	19.949616
1489.213451	-2.612500	3.119100	-8.148600	22.281520	19.929644
1490.212793	-2.614700	3.120000	-8.157800	22.284729	19.935821
1491.213050	-2.607900	3.120100	-8.136800	22.275592	19.925554
1492.210860	-2.610500	3.118600	-8.141000	22.283447	19.926392
1493.214044	-2.566100	3.120600	-8.007700	22.291093	19.934795
1494.212857	-2.624100	3.118900	-8.183700	22.280318	19.933622
1495.212479	-2.599500	3.118900	-8.107400	22.279255	19.942551
1496.209816	-2.610100	3.120000	-8.143200	22.281493	19.931468
1497.213310	-2.586600	3.119100	-8.067300	22.291111	19.942216
1498.212217	-2.616300	3.119400	-8.161000	22.291792	19.934385
1499.211161	-2.598300	3.118900	-8.103600	22.278378	19.964253
1500.212260	-2.602600	3.118700	-8.116500	22.300983	19.970247
1501.215449	-2.576700	3.120100	-8.039400	22.304877	19.953790
1502.216587	-2.583500	3.120300	-8.061200	22.294111	19.969654
1503.214326	-2.589100	3.119200	-8.075200	22.282148	19.962848
1504.213273	-2.603500	3.119900	-8.122400	22.285174	19.941079
1505.213634	-2.619500	3.118300	-8.167900	22.294196	19.943827
1506.210826	-2.608100	3.118400	-8.132800	22.301544	19.948599
1507.211433	-2.619500	3.119200	-8.170300	22.288268	19.949362
1508.211874	-2.569200	3.119900	-8.015100	22.293119	19.936084
1509.211516	-2.600300	3.118400	-8.108300	22.302603	19.935224
1510.212094	-2.599000	3.119300	-8.106700	22.278957	19.930037
1511.211395	-2.620100	3.118900	-8.171400	22.277213	19.930140
1512.215427	-2.602100	3.118900	-8.115800	22.301687	19.932084
1513.213988	-2.602000	3.117500	-8.111300	22.299942	19.914418
1514.211792	-2.611800	3.118000	-8.143600	22.288327	19.930171
1515.211139	-2.585900	3.118800	-8.064500	22.282381	19.932727
1516.212320	-2.581300	3.119300	-8.051500	22.288096	19.904027
1517.213435	-2.604500	3.117700	-8.119300	22.277352	19.905847
1518.212931	-2.612500	3.117200	-8.143400	22.299538	19.906980
1519.216926	-2.588200	3.118100	-8.069400	22.280477	19.909718
1520.212056	-2.586900	3.118600	-8.067400	22.299254	19.896329
1521.213449	-2.627800	3.117700	-8.192400	22.288826	19.905129
1522.215285	-2.620100	3.117300	-8.167200	22.302539	19.902953
1523.213380	-2.595600	3.118300	-8.093500	22.297519	19.921985
1524.212330	-2.569200	3.118800	-8.012700	22.286562	19.903600
1525.212368	-2.588700	3.117900	-8.070900	22.292099	19.905077
1526.208714	-2.612700	3.118600	-8.147400	22.285045	19.902450
1527.211800	-2.585900	3.117700	-8.062100	22.282077	19.918726
1528.211047	-2.615500	3.116400	-8.150700	22.286528	19.895422
1529.213731	-2.600900	3.118400	-8.110300	22.283884	19.908321
1530.211890	-2.598900	3.117500	-8.102000	22.296284	19.917785
1531.212078	-2.591100	3.118300	-8.080000	22.284904	19.924150
1532.215985	-2.635800	3.116500	-8.214100	22.287329	19.920658
1533.215043	-2.595100	3.117600	-8.090200	22.295212	19.934850
1534.212037	-2.630300	3.117100	-8.198300	22.278447	19.947294
1535.212501	-2.613400	3.118400	-8.149700	22.285884	19.945492
1536.212261	-2.611500	3.117800	-8.142200	22.286508	19.922055
1537.215452	-2.582200	3.117500	-8.049500	22.285635	19.910076
1538.211758	-2.604200	3.116800	-8.116500	22.285871	19.905870
1539.217566	-2.584700	3.117600	-8.057900	22.284541	19.939704
1540.214363	-2.591100	3.117200	-8.077000	22.290946	19.928724
1541.210854	-2.622900	3.116700	-8.174400	22.278885	19.938108
1542.212694	-2.596300	3.116700	-8.091400	22.302994	19.937837
1543.212448	-2.592000	3.116800	-8.078900	22.285815	19.935058
1544.213453	-2.598300	3.117100	-8.098800	22.289505	19.919876
1545.209992	-2.578400	3.117500	-8.038200	22.273563	19.923520
1546.214135	-2.584300	3.118900	-8.059700	22.285135	19.930675
1547.213649	-2.607000	3.116000	-8.122800	22.271205	19.937445
1548.212440	-2.614100	3.117000	-8.147700	22.273942	19.940189
1549.213539	-2.604300	3.116800	-8.116600	22.286925	19.940982
1550.212356	-2.624200	3.117000	-8.179200	22.288741	19.943913
1551.212985	-2.638900	3.115800	-8.222100	22.277944	19.946790
1552.213146	-2.613000	3.116400	-8.142800	22.297403	19.935935
1553.217212	-2.588300	3.115500	-8.063600	22.294003	19.943263
1554.212255	-2.584000	3.115300	-8.049400	22.273655	19.931756
1555.214034	-2.600300	3.115800	-8.101700	22.274648	19.929050
1556.213494	-2.590200	3.116500	-8.072400	22.289713	19.932301
1557.214788	-2.577600	3.116500	-8.033100	22.282317	19.918596
1558.212060	-2.602500	3.117100	-8.111500	22.287484	19.928957
1559.212009	-2.590600	3.116600	-8.073400	22.282651	19.915970
1560.212490	-2.597000	3.117400	-8.095400	22.289159	19.936188
1561.211848	-2.586400	3.116800	-8.061200	22.284036	19.936237
1562.212652	-2.603000	3.115700	-8.109800	22.274192	19.935996
1563.212963	-2.615900	3.116100	-8.151500	22.302917	19.908144
1564.209575	-2.576800	3.116700	-8.030500	22.268794	19.934289
1565.213130	-2.567500	3.116300	-8.001000	22.279423	19.928652
1566.212386	-2.592700	3.116200	-8.079000	22.284978	19.912008
1567.213378	-2.586500	3.115700	-8.058500	22.285949	19.907799
1568.214048	-2.568300	3.115100	-8.000200	22.294806	19.922598
1569.209652	-2.630400	3.114700	-8.192700	22.274071	19.945500
1570.212184	-2.607500	3.114800	-8.121600	22.289044	19.929039
1571.213022	-2.595500	3.116100	-8.087400	22.288167	19.931863
1572.212244	-2.626000	3.114600	-8.178300	22.284233	19.933103
1573.214179	-2.565600	3.115400	-7.992500	22.286678	19.933701
1574.214882	-2.612300	3.115700	-8.138800	22.293688	19.929991
1575.216036	-2.612700	3.115700	-8.139900	22.285980	19.918935
1576.213815	-2.622400	3.114900	-8.168300	22.277510	19.927106
1577.211748	-2.591200	3.114900	-8.070700	22.282487	19.946160
1578.213274	-2.607100	3.114900	-8.120400	22.280160	19.938275
1579.212367	-2.620400	3.116200	-8.165100	22.281001	19.942080
1580.210811	-2.619100	3.114200	-8.156400	22.286473	19.943861
1581.210107	-2.603400	3.115800	-8.111100	22.279850	19.945369
1582.215572	-2.610400	3.115100	-8.130600	22.283304	19.946609
1583.213388	-2.598900	3.115600	-8.096600	22.286781	19.948612
1584.215783	-2.579500	3.116200	-8.037900	22.278143	19.940697
1585.212668	-2.633000	3.114700	-8.200500	22.288932	19.943734
1586.212377	-2.600100	3.115100	-8.099200	22.286049	19.930480
1587.209872	-2.574700	3.115700	-8.021600	22.289769	19.943463
1588.214856	-2.597300	3.115400	-8.091400	22.286357	19.935601
1589.214704	-2.626700	3.114200	-8.180000	22.279966	19.951408
1590.216070	-2.614100	3.116300	-8.145800	22.273229	19.937993
1591.213614	-2.598800	3.115000	-8.095000	22.283382	19.938542
1592.213874	-2.614000	3.113900	-8.139400	22.288972	19.937481
1593.214145	-2.619400	3.115000	-8.159100	22.283423	19.933031
1594.211963	-2.594800	3.115400	-8.083100	22.291493	19.939637
1595.214271	-2.583600	3.115100	-8.048000	22.288609	19.944522
1596.214353	-2.597600	3.113700	-8.087400	22.292474	19.940251
1597.213229	-2.585500	3.114900	-8.053700	22.290128	19.937900
1598.210911	-2.608600	3.113000	-8.120100	22.293129	19.935354
1599.211596	-2.587300	3.114100	-8.056600	22.283570	19.950577
1600.211915	-2.578400	3.114200	-8.029300	22.289549	19.951015
1601.210897	-2.598300	3.112500	-8.087000	22.291156	19.957068
1602.215474	-2.592700	3.113500	-8.071800	22.287534	19.947516
1603.213032	-2.608000	3.113900	-8.120800	22.275442	19.951687
1604.213591	-2.617300	3.113800	-8.149400	22.274749	19.948401
1605.212569	-2.592600	3.114500	-8.074500	22.272719	19.949698
1606.215638	-2.604600	3.114500	-8.111600	22.296372	19.971549
1607.214075	-2.599400	3.114700	-8.096500	22.300717	19.957395
1608.212026	-2.629000	3.113400	-8.184800	22.295835	19.965088
1609.212742	-2.608100	3.112700	-8.117800	22.280788	19.979254
1610.213904	-2.606200	3.113800	-8.114400	22.273054	19.959288
1611.216091	-2.581900	3.113700	-8.039200	22.296181	19.965805
1612.215659	-2.586300	3.113700	-8.052500	22.285331	19.967519
1613.216637	-2.592500	3.112700	-8.069500	22.282262	19.955929
1614.214562	-2.620400	3.113000	-8.156500	22.295267	19.981917
1615.213352	-2.603700	3.114200	-8.108200	22.293195	19.960962
1616.213043	-2.595400	3.113000	-8.079500	22.298077	19.978440
1617.213694	-2.595800	3.114000	-8.083100	22.297593	19.975735
1618.211342	-2.580800	3.113000	-8.033600	22.285689	19.977872
1619.211967	-2.594400	3.113300	-8.077000	22.296291	19.964065
1620.213370	-2.612600	3.113000	-8.132700	22.294459	19.970373
1621.212079	-2.610300	3.113400	-8.126200	22.296173	19.962836
1622.214794	-2.587600	3.114000	-8.057600	22.316691	19.971922
1623.213122	-2.598600	3.112700	-8.088300	22.297764	19.968503
1624.214371	-2.577800	3.113400	-8.025800	22.304433	19.968892
1625.214338	-2.595100	3.113000	-8.078200	22.304794	19.972956
1626.213809	-2.598200	3.112800	-8.087300	22.314208	19.969434
1627.217113	-2.616900	3.113500	-8.147700	22.296257	19.976246
1628.211988	-2.574100	3.112900	-8.012700	22.315168	19.975948
1629.210441	-2.592600	3.112100	-8.067900	22.305267	19.981203
1630.212125	-2.612800	3.112400	-8.132000	22.299638	19.986298
1631.213995	-2.588800	3.113200	-8.058900	22.294726	19.995811
1632.211794	-2.622500	3.112100	-8.161000	22.305903	19.987763
1633.212804	-2.619700	3.111300	-8.150400	22.305321	19.983478
1634.211432	-2.593900	3.111000	-8.069200	22.309106	19.977277
1635.213563	-2.609600	3.111500	-8.119100	22.318151	19.996705
1636.216433	-2.607400	3.112200	-8.114400	22.311441	19.982208
1637.215026	-2.605100	3.110700	-8.103600	22.311144	19.972286
1638.212934	-2.573700	3.112300	-8.009900	22.305828	19.967329
1639.214077	-2.607200	3.111700	-8.112400	22.313186	19.986177
1640.213935	-2.597700	3.111600	-8.082700	22.302199	19.989234
1641.214678	-2.592600	3.111600	-8.067000	22.301297	19.996844
1642.212619	-2.580600	3.111700	-8.029700	22.304847	19.971158
1643.213460	-2.629300	3.110200	-8.177200	22.314021	19.991826
1644.210990	-2.598400	3.112300	-8.086500	22.312802	19.978020
1645.215845	-2.596300	3.110900	-8.076100	22.306093	19.993135
1646.210387	-2.616500	3.111700	-8.141200	22.313450	19.991995
1647.211648	-2.608600	3.110500	-8.114100	22.312937	19.995182
1648.208750	-2.602800	3.111800	-8.098900	22.314959	19.965374
1649.211947	-2.613100	3.110600	-8.128000	22.324556	19.988317
1650.211352	-2.603600	3.110700	-8.098800	22.297583	19.997194
1651.211072	-2.634700	3.111000	-8.196100	22.315859	19.989226
1652.212746	-2.561900	3.110400	-7.968200	22.306011	19.978618
1653.212903	-2.598700	3.109900	-8.081400	22.312604	19.984854
1654.213212	-2.602200	3.110300	-8.093400	22.331831	19.998569
1655.209575	-2.626100	3.110200	-8.167300	22.316489	19.993559
1656.210211	-2.604900	3.110500	-8.102400	22.306748	19.990091
1657.216207	-2.604000	3.110000	-8.098100	22.330405	19.986405
1658.214981	-2.601100	3.109200	-8.086900	22.329213	19.992244
1659.215547	-2.598800	3.109900	-8.081600	22.322081	19.988058
1660.216794	-2.609000	3.110500	-8.114900	22.327858	19.984963
1661.218043	-2.604900	3.110100	-8.101100	22.323914	19.992856
1662.211936	-2.580400	3.110700	-8.026500	22.327917	19.981691
1663.213445	-2.588900	3.110300	-8.052300	22.328915	19.982691
1664.211618	-2.571900	3.112500	-8.005400	22.320964	19.982497
1665.212396	-2.595400	3.110800	-8.073300	22.341879	20.003456
1666.212979	-2.616800	3.109200	-8.135900	22.341350	19.986268
1667.212148	-2.590900	3.110000	-8.057100	22.318521	20.014473
1668.213960	-2.606000	3.110300	-8.104800	22.337063	20.017508
1669.215348	-2.590700	3.109500	-8.055300	22.333126	20.000237
1670.216120	-2.612500	3.109600	-8.123400	22.326333	20.014159
1671.212119	-2.600100	3.110100	-8.086600	22.343299	20.011171
1672.211604	-2.592400	3.110300	-8.062500	22.336037	20.015739
1673.211084	-2.597000	3.110000	-8.076200	22.340596	20.016606
1674.214763	-2.618100	3.109400	-8.140300	22.337874	20.002773
1675.216982	-2.609700	3.109800	-8.115400	22.334835	20.021197
1676.213496	-2.589900	3.109700	-8.053800	22.351317	20.010693
1677.213094	-2.570600	3.109500	-7.992800	22.336325	20.024912
1678.213440	-2.604100	3.109900	-8.098500	22.345789	20.005523
1679.213387	-2.601100	3.109700	-8.088400	22.343017	20.015701
1680.213059	-2.578900	3.110300	-8.020600	22.355436	20.022593
1681.214445	-2.606100	3.108600	-8.100700	22.334405	20.047416
1682.212757	-2.600200	3.110400	-8.087500	22.364763	20.011582
1683.211207	-2.599700	3.109300	-8.083300	22.353496	20.020279
1684.211307	-2.584100	3.109900	-8.036100	22.351642	20.021752
1685.212203	-2.630000	3.108700	-8.175500	22.346730	20.026824
1686.215044	-2.589200	3.108900	-8.049800	22.362686	20.025417
1687.211709	-2.614400	3.109100	-8.127600	22.347718	20.020782
1688.211060	-2.596000	3.109300	-8.071400	22.370856	20.031012
1689.212859	-2.602300	3.110000	-8.092700	22.382825	20.018207
1690.217094	-2.599900	3.109000	-8.083200	22.375191	20.032026
1691.213178	-2.581900	3.109700	-8.028100	22.380755	20.028718
1692.215524	-2.600000	3.108600	-8.082100	22.359934	20.031172
1693.211984	-2.604900	3.107500	-8.094500	22.379770	20.050309
1694.212557	-2.582700	3.108200	-8.027000	22.372456	20.050013
1695.214756	-2.598900	3.107900	-8.076900	22.368918	20.043137
1696.213627	-2.609100	3.109200	-8.112000	22.375614	20.032819
1697.215281	-2.593900	3.108000	-8.061700	22.360569	20.030698
1698.215313	-2.615000	3.107200	-8.125100	22.391883	20.034686
1699.214638	-2.621900	3.107200	-8.146700	22.392485	20.037141
1700.211816	-2.581100	3.108900	-8.024300	22.370449	20.045040
1701.212427	-2.620100	3.108300	-8.144000	22.395270	20.042153
1702.213453	-2.605500	3.108500	-8.098800	22.372895	20.055634
1703.213362	-2.585800	3.108300	-8.037400	22.371334	20.053330
1704.212234	-2.606200	3.108200	-8.100100	22.383011	20.052817
1705.212385	-2.601200	3.107300	-8.082500	22.381637	20.059953
1706.214452	-2.605700	3.108000	-8.098100	22.392608	20.039115
1707.215126	-2.622700	3.108500	-8.152400	22.373660	20.081201
1708.213426	-2.613200	3.107200	-8.119700	22.411835	20.072818
1709.208375	-2.601000	3.107700	-8.082800	22.401460	20.063531
1710.213690	-2.592000	3.107800	-8.055100	22.412381	20.051156
1711.212049	-2.604600	3.108000	-8.095000	22.397623	20.070420
1712.214513	-2.597000	3.107600	-8.069900	22.406009	20.049212
1713.214066	-2.589800	3.108400	-8.049800	22.407117	20.045881
1714.213207	-2.602900	3.106800	-8.086700	22.409799	20.066336
1715.217690	-2.614100	3.107300	-8.122100	22.406262	20.059090
1716.216078	-2.606200	3.107200	-8.097700	22.415522	20.058006
1717.215875	-2.597200	3.106300	-8.067300	22.420371	20.055462
1718.213105	-2.610800	3.107900	-8.113800	22.408282	20.035944
1719.212147	-2.586500	3.107000	-8.036000	22.413050	20.087730
1720.213049	-2.585500	3.107900	-8.035300	22.402918	20.074246
1721.212874	-2.585400	3.106400	-8.030900	22.417559	20.088547
1722.212159	-2.607700	3.106300	-8.100200	22.421589	20.075930
1723.215924	-2.578800	3.106800	-8.011400	22.438130	20.071038
1724.215724	-2.624100	3.107300	-8.153700	22.411054	20.073516
1725.213441	-2.596800	3.107400	-8.069000	22.422924	20.075787
1726.211166	-2.590500	3.105800	-8.045400	22.439884	20.087971
1727.212300	-2.576900	3.106300	-8.003900	22.425130	20.083180
1728.211457	-2.581900	3.106400	-8.020200	22.436996	20.085447
1729.212141	-2.603700	3.105900	-8.086100	22.428894	20.074367
1730.214512	-2.585600	3.104700	-8.027000	22.427703	20.093530
1731.217034	-2.589800	3.106200	-8.043600	22.434667	20.076081
1732.216022	-2.559600	3.106000	-7.950100	22.439516	20.095745
1733.215764	-2.599900	3.106600	-8.076000	22.454473	20.076682
1734.215090	-2.593300	3.105600	-8.053600	22.417109	20.095498
1735.213659	-2.561300	3.107400	-7.958400	22.438372	20.095338
1736.211915	-2.569800	3.106400	-7.982600	22.449392	20.070110
1737.211615	-2.577200	3.107500	-8.008400	22.456484	20.080177
1738.211693	-2.586600	3.106100	-8.034000	22.439919	20.090597
1739.212147	-2.591600	3.106400	-8.050200	22.442469	20.096483
1740.212722	-2.594500	3.106000	-8.058300	22.460064	20.087837
1741.212252	-2.577800	3.105600	-8.005400	22.449982	20.106603
1742.213546	-2.593500	3.105500	-8.054000	22.455652	20.107844
1743.211374	-2.627300	3.105800	-8.159300	22.447494	20.100408
1744.216912	-2.574600	3.105900	-7.996100	22.449866	20.111299
1745.215446	-2.606800	3.105900	-8.096000	22.453743	20.108151
1746.212082	-2.603500	3.106000	-8.085900	22.450782	20.086307
1747.213524	-2.594800	3.105700	-8.058400	22.459487	20.110576
1748.212762	-2.566900	3.105600	-7.971200	22.469190	20.100683
1749.210181	-2.598500	3.104900	-8.067500	22.455544	20.111067
1750.213189	-2.560600	3.105900	-7.952300	22.477176	20.117569
1751.215501	-2.593300	3.104300	-8.049800	22.470841	20.107519
1752.213841	-2.590200	3.105300	-8.043200	22.471024	20.112514
1753.215875	-2.578400	3.105800	-8.007900	22.467826	20.117083
1754.216435	-2.587800	3.105600	-8.036500	22.467584	20.109807
1755.212302	-2.603700	3.104900	-8.084100	22.462567	20.116623
1756.213473	-2.604500	3.104000	-8.083800	22.465941	20.098167
1757.215392	-2.587000	3.103300	-8.028200	22.471241	20.098297
1758.211184	-2.613400	3.104200	-8.112000	22.469841	20.104666
1759.212126	-2.612900	3.104500	-8.111500	22.477088	20.130805
1760.212842	-2.630300	3.104700	-8.165800	22.480123	20.128665
1761.212443	-2.611800	3.104000	-8.106400	22.476081	20.113510
1762.211820	-2.579200	3.104200	-8.006000	22.479555	20.115512
1763.213035	-2.609000	3.104900	-8.100000	22.482882	20.118106
1764.211675	-2.627700	3.103500	-8.155100	22.486912	20.112521
1765.212114	-2.582800	3.103500	-8.015500	22.491261	20.118730
1766.212650	-2.612400	3.104300	-8.109300	22.503496	20.116186
1767.216095	-2.579000	3.103700	-8.004200	22.494423	20.123378
1768.212327	-2.611300	3.103700	-8.104300	22.488983	20.127550
1769.215147	-2.593200	3.104500	-8.050400	22.496520	20.125110
1770.209823	-2.586800	3.104200	-8.029600	22.501135	20.129365
1771.215131	-2.563500	3.103600	-7.955700	22.504879	20.132006
1772.208928	-2.614800	3.103200	-8.114100	22.512685	20.138348
1773.215374	-2.605400	3.103700	-8.085400	22.509807	20.132133
1774.215168	-2.618600	3.103200	-8.125900	22.508985	20.148705
1775.216424	-2.589300	3.103800	-8.036200	22.509880	20.128506
1776.212401	-2.592300	3.102900	-8.043300	22.512247	20.146052
1777.212454	-2.599600	3.102700	-8.065000	22.502272	20.154562
1778.214266	-2.580500	3.102800	-8.006100	22.500425	20.155672
1779.213623	-2.596300	3.102400	-8.054500	22.503132	20.148391
1780.214308	-2.577200	3.103500	-7.997900	22.514321	20.145910
1781.212069	-2.607400	3.103500	-8.091900	22.510672	20.147805
1782.212060	-2.631900	3.101800	-8.163200	22.515254	20.135372
1783.212592	-2.601100	3.103000	-8.070700	22.507924	20.140239
1784.215160	-2.592400	3.102700	-8.043000	22.523879	20.145865
1785.213134	-2.627200	3.103000	-8.152300	22.514010	20.143008
1786.212926	-2.592500	3.102500	-8.042700	22.526928	20.146330
1787.213904	-2.614400	3.101400	-8.107800	22.544865	20.165785
1788.214089	-2.593700	3.102000	-8.045500	22.525338	20.157320
1789.213148	-2.614600	3.103400	-8.114000	22.522776	20.169928
1790.214393	-2.601000	3.102700	-8.070100	22.541024	20.158975
1791.212774	-2.623700	3.101700	-8.137600	22.529129	20.147795
1792.211481	-2.588400	3.103100	-8.031600	22.538622	20.161380
1793.216856	-2.617500	3.101800	-8.118600	22.536793	20.166579
1794.213984	-2.588300	3.101700	-8.027800	22.549642	20.164281
1795.216498	-2.626500	3.101200	-8.145100	22.545837	20.168610
1796.214350	-2.606300	3.102800	-8.086600	22.535490	20.163793
1797.214853	-2.619000	3.101400	-8.122400	22.542844	20.172643
1798.211158	-2.593000	3.101900	-8.042700	22.545825	20.186363
1799.213566	-2.581300	3.100800	-8.003700	22.546637	20.168302
1800.210924	-2.627100	3.101500	-8.147800	22.561224	20.167005
1801.210621	-2.609500	3.102000	-8.094600	22.555362	20.177786
1802.211392	-2.609600	3.102200	-8.095200	22.549506	20.185611
1803.214787	-2.591000	3.100600	-8.032900	22.551217	20.184365
1804.219003	-2.613700	3.101700	-8.106600	22.567384	20.172439
1805.211281	-2.555800	3.102600	-7.929000	22.555380	20.185206
1806.213229	-2.619500	3.101200	-8.123700	22.559357	20.178088
1807.211999	-2.632500	3.100100	-8.160500	22.560619	20.172320
1808.215744	-2.612500	3.101600	-8.103000	22.557608	20.190029
1809.214128	-2.596000	3.101000	-8.050000	22.571163	20.185478
1810.216996	-2.605300	3.100900	-8.078500	22.563325	20.183175
1811.217407	-2.599800	3.101400	-8.062900	22.565198	20.169878
1812.213062	-2.620500	3.100900	-8.125600	22.570652	20.155728
1813.212184	-2.597100	3.101200	-8.054200	22.564608	20.150040
1814.212238	-2.607700	3.101400	-8.087000	22.583705	20.170660
1815.212812	-2.611500	3.101400	-8.098900	22.587472	20.147047
1816.213358	-2.615500	3.099300	-8.105000	22.570954	20.148999
1817.212186	-2.612600	3.099800	-8.098300	22.578335	20.144552
1818.213363	-2.588900	3.102000	-8.030500	22.571584	20.138156
1819.211286	-2.612500	3.100100	-8.098100	22.585479	20.118771
1820.218140	-2.606900	3.100600	-8.082700	22.577718	20.128758
1821.212502	-2.572500	3.100100	-7.975100	22.594413	20.119212
1822.210655	-2.615400	3.099700	-8.106100	22.576947	20.113921
1823.212491	-2.576700	3.100700	-7.989400	22.574941	20.104879
1824.213986	-2.584800	3.100000	-8.012600	22.593769	20.088217
1825.213471	-2.597100	3.100500	-8.051900	22.595578	20.072264
1826.212941	-2.569100	3.099800	-7.963600	22.600565	20.064307
1827.211697	-2.621800	3.099600	-8.126000	22.597289	20.056212
1828.215871	-2.596300	3.099900	-8.048400	22.586943	20.064719
1829.215262	-2.604100	3.099300	-8.070100	22.605827	20.043672
1830.214864	-2.591400	3.099200	-8.030900	22.596725	20.026035
1831.216064	-2.612700	3.099000	-8.096600	22.605157	20.027824
1832.216116	-2.575900	3.099300	-7.983300	22.600513	20.016136
1833.212650	-2.593400	3.098100	-8.034400	22.607205	20.034689
1834.214498	-2.610700	3.099100	-8.090600	22.609129	20.019219
1835.213523	-2.607800	3.099200	-8.081300	22.593506	20.020588
1836.213919	-2.586400	3.099200	-8.015200	22.609963	20.012282
1837.212595	-2.628800	3.100200	-8.150000	22.612808	20.004769
1838.212306	-2.594100	3.100100	-8.041600	22.621721	19.993715
1839.211403	-2.600000	3.098800	-8.056400	22.618682	20.003624
1840.212379	-2.592300	3.098200	-8.030800	22.605358	19.983606
1841.212255	-2.612500	3.098500	-8.094800	22.611099	20.013421
1842.213172	-2.602500	3.098900	-8.064300	22.619906	20.011514
1843.213919	-2.614700	3.099200	-8.103200	22.622728	19.991392
1844.214896	-2.619700	3.098700	-8.117200	22.627650	19.990034
1845.215321	-2.602300	3.099600	-8.065700	22.629574	19.990851
1846.212976	-2.624100	3.098300	-8.129900	22.617727	19.990452
1847.212851	-2.603700	3.098900	-8.068200	22.634390	19.982353
1848.213367	-2.590200	3.098000	-8.024400	22.627820	19.982060
1849.215703	-2.598500	3.098500	-8.051500	22.615888	19.983056
1850.215897	-2.598300	3.098700	-8.051000	22.630947	19.995929
1851.215292	-2.594900	3.097600	-8.037700	22.623272	20.020810
1852.214103	-2.619200	3.097900	-8.113600	22.641361	19.993043
1853.213866	-2.579800	3.097500	-7.990800	22.640012	19.990209
1854.215791	-2.612800	3.096500	-8.090300	22.629031	19.996600
1855.212300	-2.591500	3.097300	-8.026400	22.622009	19.984750
1856.216049	-2.600600	3.098100	-8.056800	22.630078	19.968407
1857.212434	-2.595700	3.097600	-8.039900	22.635854	19.980859
1858.213818	-2.607000	3.097700	-8.075100	22.646319	20.004675
1859.212102	-2.604500	3.097600	-8.067000	22.638006	19.993381
1860.212388	-2.588600	3.097200	-8.016600	22.646101	19.987799
1861.212060	-2.574400	3.098000	-7.975000	22.651925	19.976239
1862.212561	-2.593700	3.097600	-8.033800	22.651948	19.984036
1863.211298	-2.586100	3.097700	-8.010500	22.653001	19.966583
1864.218748	-2.587000	3.097300	-8.012100	22.658508	19.970623
1865.214528	-2.616700	3.097100	-8.104000	22.647164	19.960362
1866.214915	-2.608500	3.098000	-8.081000	22.649956	19.975376
1867.213470	-2.635300	3.096700	-8.160100	22.654491	19.989917
1868.214793	-2.601000	3.096800	-8.054200	22.666276	19.981001
1869.214110	-2.584300	3.096400	-8.001700	22.656989	19.985757
1870.216750	-2.608300	3.096600	-8.076600	22.662284	19.973297
1871.214181	-2.617600	3.097200	-8.106900	22.656952	19.949814
1872.214396	-2.588900	3.096300	-8.015500	22.667926	19.953411
1873.211727	-2.600700	3.096800	-8.053500	22.645549	19.946898
1874.212989	-2.611100	3.095800	-8.083300	22.656259	19.955042
1875.213872	-2.604800	3.096200	-8.064600	22.673477	19.985997
1876.212399	-2.585700	3.096000	-8.005300	22.658754	19.978272
1877.214710	-2.602600	3.096900	-8.059600	22.666902	19.976075
1878.215258	-2.610200	3.095800	-8.080500	22.646504	19.981540
1879.214450	-2.614600	3.094400	-8.090300	22.667237	19.969748
1880.212855	-2.592000	3.096000	-8.024900	22.651693	19.980819
1881.212766	-2.612400	3.095900	-8.087000	22.679437	19.973834
1882.217945	-2.626100	3.096700	-8.131400	22.654717	19.955717
1883.214003	-2.606300	3.094400	-8.064800	22.665450	19.950929
1884.210677	-2.598500	3.095500	-8.043300	22.667373	19.956929
1885.214516	-2.596400	3.096200	-8.038800	22.674863	19.945187
1886.214776	-2.598600	3.095300	-8.043300	22.673644	19.950628
1887.214374	-2.590900	3.095800	-8.020600	22.668995	19.945598
1888.215940	-2.591900	3.096300	-8.024700	22.675926	19.954027
1889.214720	-2.604900	3.094500	-8.060400	22.684470	19.969255
1890.213659	-2.588700	3.094600	-8.011000	22.671620	19.958595
1891.213519	-2.610800	3.095200	-8.080100	22.684646	19.969431
1892.214388	-2.610400	3.095600	-8.080800	22.672489	19.956875
1893.213682	-2.580100	3.094500	-7.983800	22.664382	19.943565
1894.211318	-2.584700	3.095500	-8.000800	22.679520	19.953557
1895.212672	-2.621200	3.094900	-8.111800	22.678516	19.933302
1896.215073	-2.611800	3.094200	-8.081300	22.683734	19.953340
1897.212650	-2.591700	3.094000	-8.018400	22.681935	19.962272
1898.213744	-2.606800	3.094800	-8.067200	22.687100	19.962637
1899.216587	-2.588400	3.093700	-8.007500	22.683405	19.954121
1900.212682	-2.607700	3.094500	-8.068600	22.675648	19.959671
1901.215147	-2.589800	3.095200	-8.015600	22.690547	19.962761
1902.211637	-2.594100	3.095000	-8.028400	22.696530	19.936553
1903.213871	-2.601300	3.095100	-8.051000	22.697872	19.956407
1904.217187	-2.594600	3.094300	-8.027900	22.694621	19.964253
1905.216973	-2.613400	3.094300	-8.086200	22.694066	19.944448
1906.215582	-2.593700	3.094500	-8.026100	22.691635	19.941271
1907.213611	-2.611500	3.094100	-8.080100	22.694768	19.949224
1908.215771	-2.583800	3.094000	-7.994100	22.680654	19.958026
1909.212059	-2.604400	3.094800	-8.060100	22.688720	19.944271
1910.214038	-2.607900	3.093200	-8.066100	22.697370	19.949241
1911.212949	-2.608100	3.094100	-8.069200	22.692458	19.924698
1912.211729	-2.601900	3.094100	-8.050600	22.699364	19.936062
1913.213778	-2.607800	3.093700	-8.067300	22.701468	19.931879
1914.214974	-2.609400	3.093000	-8.070700	22.689705	19.918606
1915.215153	-2.616000	3.091800	-8.087900	22.691122	19.924468
1916.214687	-2.582600	3.093500	-7.988800	22.689034	19.925337
1917.213238	-2.591200	3.094100	-8.016900	22.711743	19.928482
1918.213734	-2.603200	3.091900	-8.048700	22.707123	19.930515
1919.215091	-2.585200	3.093200	-7.996400	22.707544	19.928345
1920.214011	-2.598900	3.093000	-8.037900	22.701944	19.910886
1921.215149	-2.586800	3.092000	-7.998300	22.708032	19.920320
1922.215870	-2.598000	3.093600	-8.037000	22.686431	19.913843
1923.218469	-2.612100	3.093100	-8.079200	22.708529	19.891943
1924.213467	-2.618800	3.093800	-8.101700	22.700613	19.919916
1925.211332	-2.589400	3.091700	-8.005400	22.711553	19.929033
1926.216845	-2.582100	3.093700	-7.988200	22.711737	19.918852
1927.212015	-2.601700	3.092700	-8.046200	22.709044	19.929478
1928.211720	-2.602200	3.092300	-8.046200	22.702156	19.930717
1929.212076	-2.608300	3.092900	-8.067100	22.712939	19.919687
1930.210525	-2.555500	3.093100	-7.904200	22.720716	19.917858
1931.211041	-2.594700	3.093000	-8.024600	22.710430	19.913469
1932.213710	-2.597200	3.092500	-8.030800	22.715754	19.921028
1933.212479	-2.601600	3.091900	-8.043700	22.704700	19.912538
1934.209694	-2.582100	3.091400	-7.981900	22.696200	19.925488
1935.210701	-2.610100	3.091700	-8.069000	22.704959	19.903172
1936.212212	-2.569500	3.091200	-7.942500	22.701286	19.909855
1937.214571	-2.598900	3.091800	-8.034700	22.710568	19.918421
1938.217010	-2.599200	3.091400	-8.034600	22.705025	19.920637
1939.215437	-2.584700	3.092200	-7.991800	22.708981	19.922012
1940.211230	-2.609600	3.090300	-8.063600	22.704417	19.918547
1941.213970	-2.587400	3.091500	-7.998300	22.706705	19.914548
1942.214758	-2.578000	3.091200	-7.968600	22.710502	19.906878
1943.212364	-2.587200	3.091300	-7.997300	22.707336	19.901112
1944.210725	-2.601200	3.091200	-8.040300	22.704403	19.915942
1945.216935	-2.612000	3.090600	-8.072100	22.721516	19.925693
1946.215755	-2.616000	3.091000	-8.086000	22.716368	19.909797
1947.214056	-2.595300	3.090600	-8.020800	22.714942	19.914661
1948.213928	-2.613900	3.090200	-8.077100	22.727282	19.914816
1949.212250	-2.608500	3.090700	-8.061500	22.702670	19.925310
1950.212490	-2.585600	3.091000	-7.991100	22.720658	19.918910
1951.213414	-2.591600	3.089800	-8.007100	22.712397	19.914701
1952.215827	-2.604100	3.090600	-8.048000	22.725031	19.929588
1953.213510	-2.583200	3.090400	-7.982700	22.728322	19.932887
1954.215384	-2.579600	3.089800	-7.970200	22.712390	19.930982
1955.219073	-2.602900	3.090100	-8.042800	22.726418	19.922094
1956.214517	-2.607300	3.090300	-8.057000	22.739362	19.938402
1957.215975	-2.629000	3.088200	-8.118200	22.717315	19.935549
1958.216277	-2.601000	3.090300	-8.037600	22.726938	19.924096
1959.215798	-2.579600	3.090100	-7.970900	22.719520	19.925543
1960.215110	-2.609300	3.089600	-8.061600	22.713667	19.928930
1961.213024	-2.614900	3.089800	-8.078800	22.737240	19.925169
1962.215351	-2.599500	3.090500	-8.033700	22.724948	19.918769
1963.212710	-2.602800	3.089000	-8.039500	22.743802	19.925085
1964.211442	-2.587600	3.087900	-7.989500	22.741087	19.903853
1965.212660	-2.588800	3.089000	-7.996200	22.741344	19.902260
1966.212451	-2.604600	3.089300	-8.045900	22.733718	19.903129
1967.212376	-2.614900	3.089000	-8.077000	22.729340	19.899480
1968.213245	-2.577600	3.089600	-7.963200	22.732265	19.882052
1969.213422	-2.595000	3.089700	-8.017400	22.741968	19.865495
1970.211978	-2.611900	3.089100	-8.067900	22.731098	19.871997
1971.216331	-2.593700	3.088800	-8.011100	22.731120	19.882755
1972.217347	-2.586000	3.088200	-7.985800	22.742119	19.897113
1973.211998	-2.617200	3.087700	-8.080800	22.751607	19.884414
1974.213203	-2.622400	3.086300	-8.093100	22.738124	19.916800
1975.213212	-2.610300	3.088400	-8.061800	22.732083	19.884461
1976.214083	-2.581300	3.088000	-7.970700	22.744268	19.878538
1977.216401	-2.642000	3.087500	-8.156700	22.741498	19.882424
1978.213943	-2.617100	3.087500	-8.079700	22.737587	19.874431
1979.214688	-2.605600	3.087700	-8.045300	22.737216	19.894789
1980.212462	-2.600200	3.087200	-8.027000	22.732754	19.897720
1981.213714	-2.610100	3.087700	-8.058900	22.730271	19.877091
1982.214316	-2.610300	3.088000	-8.060400	22.724810	19.902713
1983.215111	-2.593500	3.087200	-8.006300	22.733693	19.897921
1984.213569	-2.601700	3.087800	-8.033300	22.735223	19.882055
1985.211263	-2.583400	3.088000	-7.977700	22.739466	19.889271
1986.212079	-2.591100	3.087600	-8.000000	22.733213	19.883373
1987.211952	-2.611100	3.086900	-8.059900	22.723217	19.881865
1988.213386	-2.607000	3.087300	-8.048000	22.750956	19.898939
1989.216190	-2.600800	3.087300	-8.029000	22.740855	19.876596
1990.215594	-2.624800	3.085600	-8.098300	22.749713	19.871780
1991.213375	-2.606800	3.087200	-8.047700	22.746335	19.861729
1992.214257	-2.614300	3.087200	-8.071100	22.748865	19.886477
1993.213408	-2.604400	3.086800	-8.039000	22.728315	19.890308
1994.216086	-2.588300	3.087400	-7.990500	22.735670	19.892499
1995.213153	-2.587400	3.086600	-7.985900	22.757347	19.889799
1996.214862	-2.603200	3.085500	-8.031600	22.741994	19.889955
1997.216164	-2.603500	3.086600	-8.035600	22.739913	19.896383
1998.213490	-2.615800	3.086300	-8.072600	22.741256	19.889955
1999.214406	-2.597300	3.086200	-8.015400	22.741541	19.892462
2000.212787	-2.625000	3.085600	-8.099400	22.738849	19.866440
2001.210660	-2.608700	3.086900	-8.052800	22.752248	19.872840
2002.212973	-2.607300	3.085700	-8.044600	22.745438	19.895259
2003.213116	-2.616300	3.086000	-8.073500	22.747044	19.896498
2004.212712	-2.612300	3.086000	-8.060900	22.752107	19.887507
2005.212565	-2.618800	3.085100	-8.078800	22.737892	19.886953
2006.212182	-2.623400	3.085900	-8.095300	22.755686	19.888504
2007.214029	-2.613800	3.085000	-8.063600	22.729177	19.882658
2008.212514	-2.606100	3.085800	-8.041500	22.740094	19.891011
2009.218248	-2.600100	3.086600	-8.025100	22.744313	19.883765
2010.212587	-2.581500	3.085200	-7.964200	22.725691	19.879903
2011.213611	-2.584700	3.085500	-7.974500	22.745076	19.898597
2012.213930	-2.614200	3.086200	-8.067400	22.759450	19.883763
2013.215070	-2.598100	3.084700	-8.014000	22.742379	19.869980
2014.215091	-2.583300	3.085000	-7.968900	22.750476	19.869213
2015.212386	-2.590800	3.084800	-7.991300	22.747331	19.895305
2016.213508	-2.583500	3.085300	-7.970600	22.731192	19.904298
2017.214490	-2.614800	3.085300	-8.067000	22.752815	19.873038
2018.216359	-2.606200	3.083900	-8.036900	22.751944	19.886603
2019.216123	-2.604500	3.085100	-8.034800	22.745055	19.890062
2020.216003	-2.596400	3.085800	-8.011900	22.739539	19.884902
2021.213326	-2.610300	3.083100	-8.047300	22.742860	19.893044
2022.213854	-2.588400	3.084000	-7.982500	22.753593	19.887886
2023.211570	-2.627400	3.083000	-8.100200	22.760819	19.907717
2024.215019	-2.614200	3.085200	-8.065000	22.757731	19.899438
2025.213987	-2.603000	3.083700	-8.026400	22.765377	19.893777
2026.211348	-2.564800	3.083300	-7.907800	22.758174	19.896181
2027.212623	-2.581900	3.084600	-7.963900	22.757303	19.887163
2028.213950	-2.617200	3.082000	-8.065500	22.767716	19.876501
2029.213598	-2.592400	3.082700	-7.991500	22.752891	19.871634
2030.213335	-2.584400	3.083800	-7.969600	22.750412	19.882476
2031.216443	-2.597200	3.084500	-8.011100	22.767102	19.888103
2032.214194	-2.565100	3.082500	-7.906800	22.756076	19.888895
2033.214127	-2.609900	3.083000	-8.046300	22.757288	19.865306
2034.215818	-2.594600	3.083400	-7.999600	22.756070	19.852609
2035.215399	-2.575200	3.083900	-7.941800	22.765726	19.852664
2036.215783	-2.592400	3.083500	-7.993100	22.753535	19.875241
2037.215234	-2.593700	3.083200	-7.996400	22.751129	19.854318
2038.217728	-2.575900	3.083600	-7.943100	22.753033	19.872517
2039.217187	-2.610100	3.082900	-8.046500	22.773732	19.876610
2040.211880	-2.601000	3.082700	-8.017900	22.745690	19.865155
2041.213428	-2.602900	3.082400	-8.022900	22.771827	19.886177
2042.213468	-2.596400	3.082500	-8.003500	22.740332	19.872370
2043.213685	-2.591600	3.083300	-7.990200	22.765151	19.873560
2044.214256	-2.609300	3.082100	-8.041600	22.769683	19.886988
2045.213770	-2.607700	3.081800	-8.036500	22.775011	19.885296
2046.216505	-2.589800	3.081800	-7.980700	22.772347	19.880774
2047.215830	-2.582800	3.081600	-7.958700	22.762955	19.895791
2048.212436	-2.614800	3.082000	-8.058600	22.779488	19.875347
2049.214332	-2.588400	3.081600	-7.975500	22.770942	19.916385
2050.214097	-2.580300	3.081200	-7.949800	22.767645	19.907898
2051.212903	-2.605300	3.081000	-8.026900	22.782387	19.885287
2052.216651	-2.593400	3.080300	-7.987800	22.785023	19.896074
2053.215397	-2.600500	3.082100	-8.014600	22.775023	19.916405
2054.213295	-2.600100	3.081200	-8.011200	22.778528	19.907333
2055.215960	-2.605100	3.080800	-8.025300	22.770615	19.901990
2056.217406	-2.601900	3.081100	-8.015800	22.775149	19.895800
2057.213240	-2.603600	3.080700	-8.020900	22.785487	19.898021
2058.212119	-2.605900	3.080200	-8.025800	22.781163	19.906642
2059.212903	-2.584700	3.079900	-7.960300	22.788334	19.899764
2060.213679	-2.601900	3.080000	-8.013800	22.784166	19.894475
2061.212152	-2.584900	3.080800	-7.963300	22.798432	19.898042
2062.212897	-2.600500	3.081200	-8.012300	22.786270	19.918796
2063.213735	-2.584300	3.079600	-7.958400	22.787085	19.894440
2064.215240	-2.579900	3.079000	-7.943500	22.773131	19.897479
2065.212658	-2.589800	3.080500	-7.977400	22.786343	19.927013
2066.213022	-2.602300	3.080400	-8.015900	22.805649	19.920086
2067.216406	-2.610900	3.080200	-8.042100	22.805278	19.918973
2068.216134	-2.626200	3.079400	-8.086300	22.800526	19.920872
2069.213447	-2.603800	3.079500	-8.018000	22.784938	19.912278
2070.214452	-2.608600	3.078800	-8.031000	22.794562	19.924888
2071.212767	-2.620900	3.080000	-8.072000	22.813232	19.925097
2072.214996	-2.610400	3.079800	-8.039600	22.796060	19.909361
2073.215608	-2.611700	3.079800	-8.043200	22.785483	19.912084
2074.214149	-2.604600	3.079500	-8.020400	22.785531	19.913242
2075.215008	-2.590800	3.078600	-7.975800	22.803754	19.898936
2076.213349	-2.576700	3.079300	-7.934200	22.794101	19.915542
2077.214630	-2.582500	3.078100	-7.949000	22.795207	19.901473
2078.213936	-2.596500	3.078800	-7.994400	22.809998	19.914451
2079.213115	-2.609900	3.078700	-8.034900	22.779216	19.900988
2080.213760	-2.617200	3.077300	-8.053400	22.801318	19.902787
2081.212783	-2.612000	3.077800	-8.039100	22.803186	19.927241
2082.214137	-2.604300	3.077200	-8.013600	22.804002	19.911401
2083.211474	-2.601100	3.077400	-8.004600	22.792001	19.921581
2084.214213	-2.579400	3.078100	-7.939200	22.793051	19.899681
2085.214462	-2.587700	3.076500	-7.960600	22.812064	19.925777
2086.216318	-2.607400	3.077800	-8.024600	22.799110	19.930188
2087.215981	-2.613800	3.076800	-8.041600	22.799742	19.923048
2088.213958	-2.601600	3.077500	-8.005800	22.815086	19.931768
2089.213352	-2.573700	3.076700	-7.918100	22.823578	19.931398
2090.214706	-2.601800	3.077100	-8.005600	22.804615	19.929415
2091.212675	-2.618100	3.076000	-8.052900	22.826370	19.925683
2092.214365	-2.603000	3.077200	-8.009700	22.811595	19.927157
2093.214767	-2.621800	3.075800	-8.063700	22.816893	19.925806
2094.214728	-2.629800	3.076000	-8.088600	22.813252	19.925487
2095.214484	-2.596900	3.076600	-7.989400	22.822059	19.917289
2096.214402	-2.595100	3.077400	-7.986000	22.818889	19.947797
2097.217080	-2.591500	3.076100	-7.971400	22.809578	19.922915
2098.215281	-2.621300	3.075800	-8.062500	22.822921	19.926667
2099.217226	-2.606000	3.076100	-8.015900	22.820780	19.936366
2100.215873	-2.600200	3.077000	-8.000900	22.812788	19.928354
2101.212584	-2.597500	3.076300	-7.990700	22.834067	19.923405
2102.213438	-2.600900	3.076000	-8.000200	22.818977	19.947145
2103.214913	-2.625000	3.076100	-8.074600	22.836144	19.934002
2104.213373	-2.594200	3.075900	-7.978800	22.830209	19.931012
2105.209208	-2.605500	3.075700	-8.013500	22.820713	19.945184
2106.213336	-2.579100	3.076800	-7.934800	22.845816	19.936665
2107.214025	-2.617000	3.075500	-8.048500	22.840910	19.927304
2108.214430	-2.581600	3.076000	-7.940400	22.830754	19.917122
2109.214931	-2.595900	3.075700	-7.983500	22.831225	19.927589
2110.213584	-2.630500	3.074800	-8.087600	22.832569	19.927826
2111.216527	-2.578400	3.075200	-7.928900	22.849762	19.939511
2112.214497	-2.581400	3.075800	-7.938900	22.839711	19.948313
2113.211446	-2.607700	3.075900	-8.021000	22.831506	19.936014
2114.216268	-2.595300	3.074900	-7.980000	22.838097	19.944844
2115.215112	-2.619300	3.074600	-8.052800	22.842710	19.945397
2116.214406	-2.594500	3.075100	-7.978600	22.844712	19.930376
2117.217536	-2.614200	3.074200	-8.036200	22.848403	19.936668
2118.210970	-2.606400	3.074600	-8.013100	22.835214	19.946396
2119.214330	-2.608500	3.074700	-8.019900	22.855887	19.923812
2120.213319	-2.586500	3.073900	-7.950500	22.842804	19.940309
2121.214686	-2.577100	3.073700	-7.921000	22.853562	19.934066
2122.212067	-2.577900	3.075400	-7.927900	22.858888	19.912013
2123.212304	-2.595900	3.073300	-7.977200	22.839317	19.941995
2124.209804	-2.591000	3.073400	-7.962600	22.850314	19.950429
2125.215388	-2.582700	3.072800	-7.935700	22.856377	19.956509
2126.213257	-2.590800	3.073900	-7.963500	22.850916	19.949182
2127.213689	-2.617200	3.074200	-8.045500	22.860802	19.942436
2128.213578	-2.598800	3.072900	-7.985800	22.860379	19.940531
2129.215755	-2.608500	3.073400	-8.016500	22.872932	19.950526
2130.216179	-2.604900	3.072800	-8.004300	22.861747	19.946715
2131.216806	-2.580100	3.073800	-7.929800	22.865516	19.955306
2132.216171	-2.605200	3.072200	-8.003400	22.859344	19.969477
2133.215184	-2.610600	3.073000	-8.022300	22.862639	19.949090
2134.216702	-2.600900	3.073800	-7.994700	22.868808	19.961198
2135.215844	-2.589900	3.073500	-7.959400	22.867012	19.958287
2136.212608	-2.593600	3.073100	-7.969900	22.876900	19.978195
2137.216146	-2.607600	3.073300	-8.013900	22.891692	19.956008
2138.214559	-2.621900	3.072400	-8.054800	22.892060	19.958228
2139.213996	-2.597400	3.072400	-7.979800	22.891136	19.946197
2140.212804	-2.575400	3.071900	-7.911200	22.886068	19.952220
2141.212867	-2.586000	3.072300	-7.944500	22.888442	19.958672
2142.214594	-2.608500	3.072400	-8.013800	22.892791	19.954149
2143.212260	-2.591200	3.072400	-7.961000	22.909509	19.954253
2144.212680	-2.607900	3.072300	-8.012000	22.901779	19.970934
2145.213142	-2.601200	3.071500	-7.989100	22.908607	19.960012
2146.212865	-2.596900	3.070600	-7.973500	22.916597	19.958029
2147.213401	-2.631400	3.069900	-8.077600	22.896343	19.955489
2148.215666	-2.586900	3.071000	-7.944000	22.901219	19.961489
2149.213001	-2.626700	3.071400	-8.067500	22.900058	19.979573
2150.212865	-2.604000	3.071800	-7.998700	22.904937	19.952630
2151.212762	-2.599000	3.071600	-7.982800	22.912028	19.953077
2152.216152	-2.604600	3.070900	-7.998100	22.898946	19.971055
2153.217958	-2.613700	3.070200	-8.024800	22.902479	19.972747
2154.216022	-2.569200	3.071200	-7.889700	22.903058	19.980360
2155.218988	-2.577700	3.071600	-7.917100	22.908568	19.981442
2156.214488	-2.598900	3.071200	-7.981200	22.923018	19.991118
2157.213439	-2.587500	3.070900	-7.945100	22.914422	19.970655
2158.214593	-2.616400	3.070800	-8.033900	22.921697	19.991275
2159.211682	-2.602400	3.069600	-7.987500	22.925968	19.968905
2160.213867	-2.598400	3.069800	-7.976200	22.916763	19.985217
2161.213993	-2.607900	3.068700	-8.002600	22.934458	19.973716
2162.213934	-2.600500	3.069300	-7.981300	22.935352	19.989049
2163.212566	-2.579800	3.069100	-7.917000	22.937172	19.979028
2164.213033	-2.588600	3.069600	-7.946100	22.933583	19.975800
2165.210741	-2.589400	3.068800	-7.946200	22.947004	19.980372
2166.216585	-2.586500	3.068700	-7.937100	22.929202	19.992137
2167.216134	-2.594300	3.069400	-7.962500	22.933896	19.992030
2168.215360	-2.590700	3.069600	-7.952500	22.937033	19.991475
2169.219100	-2.590900	3.070500	-7.955100	22.951007	19.979574
2170.214934	-2.586900	3.069700	-7.940400	22.944651	19.989118
2171.212709	-2.622700	3.067800	-8.045700	22.963400	19.994591
2172.212365	-2.596900	3.069300	-7.970200	22.963688	19.978962
2173.212739	-2.596000	3.067900	-7.963400	22.941377	19.981763
2174.211065	-2.584300	3.068400	-7.929200	22.955403	19.994716
2175.216807	-2.602700	3.068900	-7.987000	22.944326	19.987682
2176.213636	-2.582800	3.068700	-7.925000	22.970935	20.002516
2177.214905	-2.608400	3.068800	-8.004400	22.956324	20.009706
2178.211645	-2.591300	3.067000	-7.947000	22.962992	20.014911
2179.213115	-2.593700	3.068100	-7.957400	22.949887	20.010655
2180.216434	-2.620500	3.068500	-8.040800	22.960379	20.010070
2181.215423	-2.593100	3.067900	-7.954800	22.962777	20.024689
2182.215436	-2.622600	3.068300	-8.046500	22.980179	19.997348
2183.214061	-2.607000	3.068300	-7.999400	22.962167	20.016675
2184.215557	-2.624700	3.067500	-8.050400	22.964802	20.011543
2185.213134	-2.587400	3.067200	-7.935900	22.969997	19.991581
2186.216084	-2.615100	3.067700	-8.021900	22.980779	20.010165
2187.213141	-2.585800	3.067200	-7.931000	22.998420	20.006384
2188.214629	-2.582900	3.067300	-7.922600	22.995965	20.009474
2189.214354	-2.591700	3.066300	-7.946600	22.967801	20.014180
2190.213479	-2.583100	3.067700	-7.924000	22.982725	20.018779
2191.214123	-2.597900	3.066100	-7.965400	22.982619	20.031258
2192.212567	-2.581200	3.066300	-7.914600	22.978161	20.035672
2193.212670	-2.604600	3.065200	-7.983100	23.006111	20.040007
2194.212796	-2.577900	3.066800	-7.905100	23.009273	20.017636
2195.212638	-2.618800	3.066700	-8.030600	22.997379	20.003119
2196.212049	-2.607900	3.066800	-7.997200	22.997140	20.015835
2197.211717	-2.600700	3.065900	-7.973000	23.004867	20.026914
2198.211550	-2.616000	3.066700	-8.021800	22.991231	20.034710
2199.215043	-2.627800	3.066200	-8.056800	23.002385	20.018133
2200.213889	-2.592500	3.065900	-7.947700	23.004256	20.027412
2201.215134	-2.627100	3.064100	-8.049400	23.014065	20.041319
2202.214951	-2.583600	3.065900	-7.920700	23.000932	20.030741
2203.214403	-2.594300	3.064500	-7.949800	23.021286	20.028942
2204.217562	-2.590400	3.066000	-7.941800	23.012690	20.034388
2205.212030	-2.587600	3.065900	-7.933100	23.018253	20.035153
2206.215008	-2.602900	3.065000	-7.977500	23.018830	20.039434
2207.216136	-2.589600	3.065700	-7.938700	23.023996	20.039802
2208.217122	-2.593600	3.064800	-7.948700	23.014320	20.041204
2209.217907	-2.604900	3.064700	-7.982500	23.018723	20.034515
2210.214248	-2.596600	3.064600	-7.957000	23.024101	20.032134
2211.211650	-2.592500	3.064700	-7.944500	23.031586	20.045191
2212.213923	-2.605700	3.064600	-7.985300	23.023702	20.047650
2213.212264	-2.622600	3.063900	-8.035000	23.025677	20.047409
2214.214616	-2.591800	3.064900	-7.943000	23.054601	20.042728
2215.213782	-2.615600	3.063400	-8.012200	23.049196	20.050263
2216.214154	-2.584300	3.065400	-7.921500	23.038884	20.061762
2217.214927	-2.579300	3.063800	-7.902300	23.039806	20.044180
2218.215134	-2.617200	3.062700	-8.015600	23.054439	20.053670
2219.214113	-2.587700	3.063300	-7.926500	23.042124	20.056497
2220.213710	-2.611900	3.063400	-8.001400	23.050876	20.054539
2221.213911	-2.603800	3.063600	-7.977000	23.057519	20.054167
2222.214517	-2.623300	3.063000	-8.034500	23.045654	20.062998
2223.215558	-2.595600	3.063100	-7.950400	23.054774	20.059558
2224.214093	-2.605500	3.063200	-7.981000	23.068433	20.064370
2225.217405	-2.605300	3.061800	-7.976400	23.064369	20.054373
2226.215731	-2.603900	3.063300	-7.976300	23.062497	20.059158
2227.213661	-2.608600	3.063200	-7.990100	23.075759	20.056540
2228.216083	-2.587200	3.063200	-7.925000	23.071169	20.056379
2229.214942	-2.584500	3.063400	-7.917100	23.074648	20.068011
2230.214187	-2.603400	3.061900	-7.971100	23.076969	20.061454
2231.215520	-2.591900	3.063100	-7.939200	23.070821	20.066025
2232.215431	-2.586000	3.061900	-7.917800	23.089701	20.079402
2233.212445	-2.600300	3.063200	-7.964900	23.077175	20.068324
2234.213211	-2.600100	3.061800	-7.960600	23.076515	20.061000
2235.211164	-2.621000	3.061800	-8.024400	23.078543	20.067475
2236.212565	-2.604500	3.062700	-7.976200	23.072478	20.078049
2237.215070	-2.605000	3.060900	-7.973700	23.077671	20.074743
2238.216220	-2.605300	3.062200	-7.978000	23.102746	20.076197
2239.214167	-2.569800	3.062500	-7.869400	23.088453	20.075561
2240.213363	-2.604600	3.062900	-7.977700	23.095016	20.083252
2241.216138	-2.597300	3.062000	-7.952400	23.087371	20.089651
2242.217843	-2.611000	3.061400	-7.992900	23.113024	20.074659
2243.213820	-2.592700	3.062100	-7.938800	23.099577	20.082643
2244.214493	-2.603800	3.059900	-7.967200	23.107487	20.093165
2245.215165	-2.577800	3.061000	-7.890200	23.102212	20.092318
2246.216915	-2.595900	3.060800	-7.945100	23.106929	20.080762
2247.216771	-2.589100	3.059800	-7.921200	23.114998	20.082561
2248.215314	-2.600900	3.060600	-7.959900	23.105900	20.086763
2249.215313	-2.566800	3.059400	-7.852200	23.131712	20.089326
2250.215137	-2.591200	3.060500	-7.930100	23.122219	20.096093
2251.212749	-2.585600	3.060700	-7.913300	23.129125	20.100057
2252.214370	-2.605000	3.061100	-7.974000	23.132105	20.100084
2253.209918	-2.587600	3.061400	-7.920900	23.139776	20.118139
2254.213006	-2.596500	3.059200	-7.942800	23.145050	20.102330
2255.217715	-2.585300	3.060000	-7.910900	23.135794	20.101192
2256.216272	-2.599400	3.059400	-7.951600	23.122636	20.092810
2257.216510	-2.616000	3.059100	-8.002400	23.129306	20.108381
2258.214918	-2.597400	3.060000	-7.947800	23.124823	20.104996
2259.213351	-2.615600	3.059600	-8.002800	23.154247	20.111552
2260.212987	-2.612000	3.058900	-7.989400	23.146283	20.107267
2261.211516	-2.603200	3.058800	-7.962500	23.139191	20.110150
2262.215994	-2.603500	3.058200	-7.962000	23.138162	20.106897
2263.215388	-2.566200	3.058800	-7.848900	23.159754	20.116704
2264.216532	-2.587400	3.057700	-7.911200	23.150605	20.119744
2265.215473	-2.586300	3.059300	-7.911800	23.152845	20.102744
2266.215031	-2.578700	3.058600	-7.887200	23.155243	20.119583
2267.213819	-2.592700	3.057500	-7.926400	23.141322	20.116358
2268.212592	-2.587500	3.059300	-7.915200	23.185587	20.103744
2269.214377	-2.590100	3.058700	-7.922600	23.171929	20.104855
2270.213143	-2.598700	3.059000	-7.949200	23.175303	20.138218
2271.212387	-2.618300	3.057200	-8.004000	23.160854	20.135943
2272.213681	-2.594000	3.057000	-7.930000	23.170794	20.129254
2273.212503	-2.601800	3.057600	-7.955000	23.170767	20.134779
2274.215072	-2.589700	3.056900	-7.916200	23.167338	20.160950
2275.214170	-2.621100	3.057400	-8.013100	23.178041	20.132450
2276.212708	-2.600000	3.057100	-7.948200	23.171239	20.141544
2277.217302	-2.568600	3.057500	-7.853500	23.170158	20.131207
2278.217114	-2.613700	3.056600	-7.987900	23.172424	20.142732
2279.215875	-2.592700	3.057000	-7.925500	23.185764	20.137234
2280.214661	-2.601100	3.055300	-7.946700	23.186369	20.144131
2281.212992	-2.580600	3.056500	-7.887400	23.187028	20.127027
2282.215921	-2.580500	3.057200	-7.888500	23.182333	20.129722
2283.216228	-2.616400	3.055800	-7.994800	23.183835	20.127527
2284.216505	-2.583700	3.057000	-7.898200	23.193326	20.125570
2285.217588	-2.581600	3.056600	-7.890400	23.195723	20.127604
2286.215950	-2.577400	3.056800	-7.878000	23.181908	20.134477
2287.214601	-2.601800	3.056300	-7.951400	23.195854	20.113670
2288.216351	-2.601200	3.055900	-7.948300	23.207981	20.115097
2289.215021	-2.601700	3.056100	-7.951000	23.190658	20.116603
2290.212763	-2.615900	3.055400	-7.991800	23.204024	20.118531
2291.211999	-2.622100	3.055200	-8.010500	23.222662	20.109462
2292.216392	-2.606700	3.055400	-7.964000	23.209874	20.102190
2293.212082	-2.610600	3.055900	-7.977200	23.207105	20.084979
2294.214858	-2.602200	3.054200	-7.947600	23.225322	20.111389
2295.213539	-2.617000	3.054800	-7.994200	23.216964	20.091164
2296.213779	-2.603000	3.054700	-7.951100	23.218545	20.081275
2297.214771	-2.618200	3.054100	-7.995600	23.224214	20.085479
2298.212290	-2.606800	3.054900	-7.963100	23.214113	20.074240
2299.214039	-2.613200	3.054700	-7.982100	23.225239	20.058748
2300.216147	-2.591900	3.053900	-7.914800	23.232541	20.069401
2301.214513	-2.615600	3.054200	-7.988100	23.228849	20.032016
2302.217616	-2.600300	3.054600	-7.942500	23.233383	19.999178
2303.215330	-2.605600	3.053300	-7.954700	23.233752	20.026939
2304.215648	-2.626100	3.051900	-8.014000	23.234831	20.009513
2305.215386	-2.575300	3.054400	-7.865300	23.251123	20.003273
2306.213168	-2.606500	3.053000	-7.957300	23.230981	20.016757
2307.214468	-2.605100	3.053500	-7.954300	23.246402	19.980030
2308.212331	-2.603600	3.054200	-7.951800	23.251939	19.979290
2309.214050	-2.585400	3.052300	-7.891100	23.261033	19.956576
2310.216369	-2.603100	3.052700	-7.946000	23.246639	19.965461
2311.211807	-2.602000	3.052100	-7.941500	23.253386	19.964084
2312.216457	-2.582300	3.053300	-7.884000	23.252912	19.948801
2313.216142	-2.568600	3.052500	-7.840200	23.258790	19.950995
2314.212203	-2.611800	3.052900	-7.973400	23.263401	19.984864
2315.214092	-2.600600	3.052100	-7.937000	23.261371	19.971722
2316.214857	-2.591400	3.052700	-7.910700	23.281012	19.964028
2317.210705	-2.600900	3.050800	-7.934700	23.261108	19.941844
2318.213075	-2.600200	3.052100	-7.935800	23.266483	19.949826
2319.215651	-2.621700	3.052100	-8.001200	23.258417	19.940256
2320.215962	-2.621600	3.051300	-7.998600	23.279743	19.945728
2321.213534	-2.600000	3.052300	-7.935700	23.279610	19.952258
2322.216190	-2.618900	3.050000	-7.987500	23.287150	19.939461
2323.212388	-2.622500	3.050600	-7.999400	23.306842	19.954029
2324.212286	-2.597200	3.051900	-7.926400	23.296533	19.938506
2325.213862	-2.614500	3.049700	-7.973400	23.281453	19.934857
2326.214921	-2.569700	3.051000	-7.839600	23.276812	19.941307
2327.213243	-2.628500	3.050800	-8.018100	23.295715	19.924359
2328.212259	-2.605700	3.051700	-7.951400	23.290415	19.940514
2329.214036	-2.605700	3.050900	-7.949900	23.306178	19.938185
2330.212938	-2.597300	3.051400	-7.924400	23.301722	19.928534
2331.216332	-2.577000	3.050600	-7.861000	23.298795	19.931521
2332.214670	-2.649500	3.049700	-8.079900	23.303776	19.943180
2333.213992	-2.612900	3.048800	-7.965800	23.301351	19.929642
2334.217300	-2.632400	3.049100	-8.026100	23.316534	19.924511
2335.218004	-2.594400	3.049400	-7.911100	23.303326	19.939397
2336.213254	-2.609700	3.048900	-7.956300	23.319092	19.952619
2337.215676	-2.595900	3.048800	-7.914400	23.309599	19.941617
2338.213691	-2.597100	3.049500	-7.919400	23.311918	19.941351
2339.214252	-2.609800	3.049600	-7.958600	23.317954	19.949627
2340.215524	-2.615300	3.048600	-7.972500	23.319614	19.940187
2341.213257	-2.589800	3.048000	-7.893500	23.322883	19.943835
2342.215576	-2.593400	3.048800	-7.906300	23.309253	19.944232
2343.215097	-2.634100	3.047900	-8.027500	23.296650	19.941216
2344.215965	-2.584500	3.049000	-7.879700	23.329998	19.939867
2345.217327	-2.607600	3.048200	-7.948000	23.324224	19.939628
2346.212791	-2.590500	3.048200	-7.896100	23.307667	19.944121
2347.213074	-2.597000	3.048200	-7.915700	23.324328	19.930108
2348.213490	-2.583800	3.048800	-7.877300	23.333448	19.924818
2349.213479	-2.578400	3.047100	-7.855900	23.326435	19.921485
2350.217037	-2.578200	3.048600	-7.859700	23.334264	19.910459
2351.216791	-2.566700	3.047300	-7.821400	23.327118	19.926243
2352.211379	-2.585000	3.047700	-7.878300	23.318391	19.913047
2353.212786	-2.605900	3.046600	-7.938300	23.343644	19.917647
2354.214724	-2.612900	3.046200	-7.959000	23.343249	19.909846
2355.216050	-2.617600	3.047600	-7.976800	23.332203	19.917276
2356.217631	-2.605500	3.046500	-7.937800	23.346700	19.905904
2357.217230	-2.610300	3.046000	-7.950500	23.342245	19.914392
2358.216002	-2.597900	3.045900	-7.912900	23.351601	19.914523
2359.214845	-2.637100	3.045300	-8.030200	23.315987	19.912487
2360.214992	-2.596500	3.046000	-7.908300	23.331618	19.912987
2361.215771	-2.590900	3.044500	-7.887800	23.329324	19.898470
2362.214047	-2.614100	3.044500	-7.958000	23.331432	19.881334
2363.213091	-2.609500	3.046000	-7.948400	23.332538	19.894290
2364.214116	-2.599600	3.045500	-7.916300	23.333566	19.897543
2365.213336	-2.585500	3.046200	-7.875500	23.357553	19.892358
2366.215012	-2.597000	3.044300	-7.905600	23.336041	19.894102
2367.214608	-2.601900	3.045400	-7.923500	23.351251	19.893441
2368.214089	-2.605500	3.044200	-7.931400	23.355626	19.874137
2369.213603	-2.592200	3.044900	-7.892400	23.337542	19.889685
2370.216138	-2.592500	3.044400	-7.892100	23.350352	19.877731
2371.215407	-2.599100	3.044900	-7.914100	23.349429	19.877546
2372.216523	-2.610600	3.043300	-7.944400	23.337750	19.885821
2373.212184	-2.596000	3.044400	-7.902800	23.359181	19.894362
2374.213652	-2.626100	3.043100	-7.991400	23.351773	19.900998
2375.215407	-2.600700	3.043800	-7.915900	23.371648	19.896501
2376.216563	-2.610500	3.043500	-7.944100	23.369512	19.912498
2377.216655	-2.633300	3.043400	-8.013500	23.365477	19.896235
2378.217537	-2.599800	3.043900	-7.913300	23.353167	19.897584
2379.215626	-2.587400	3.042700	-7.872100	23.366346	19.897847
2380.213547	-2.604300	3.042600	-7.923700	23.358834	19.896604
2381.213919	-2.606300	3.042700	-7.929800	23.368982	19.882721
2382.211695	-2.616100	3.042100	-7.958100	23.354218	19.897898
2383.212911	-2.591100	3.043400	-7.885300	23.369165	19.884015
2384.213233	-2.603800	3.042900	-7.923000	23.367266	19.881741
2385.216302	-2.610500	3.042100	-7.941100	23.351923	19.870052
2386.216174	-2.595500	3.041700	-7.894400	23.372010	19.866879
2387.214000	-2.610900	3.041700	-7.940700	23.365393	19.895040
2388.213992	-2.611500	3.042300	-7.944500	23.356140	19.866507
2389.212397	-2.587000	3.041500	-7.868200	23.377939	19.869124
2390.215712	-2.600900	3.042000	-7.911600	23.379389	19.875762
2391.214577	-2.609700	3.040900	-7.935300	23.375830	19.865898
2392.214792	-2.578200	3.041500	-7.840600	23.365364	19.860582
2393.216648	-2.599100	3.040300	-7.901800	23.363492	19.888690
2394.213126	-2.610600	3.041500	-7.939800	23.368948	19.891572
2395.213906	-2.598900	3.040800	-7.902500	23.383367	19.887526
2396.212784	-2.588300	3.040500	-7.868900	23.374298	19.887314
2397.213700	-2.584400	3.041500	-7.860600	23.379279	19.891570
2398.214401	-2.581400	3.039800	-7.846700	23.389270	19.897890
2399.213075	-2.618500	3.039300	-7.958100	23.370527	19.888344
2400.214681	-2.592900	3.039300	-7.880300	23.387081	19.880517
2401.213023	-2.613500	3.039400	-7.943100	23.381993	19.882816
2402.214617	-2.570100	3.039500	-7.811700	23.373637	19.869621
2403.214626	-2.593800	3.040400	-7.885800	23.389452	19.896222
2404.214375	-2.622100	3.039300	-7.969000	23.387870	19.906481
2405.215041	-2.600500	3.037800	-7.899100	23.404898	19.886173
2406.213906	-2.595300	3.038100	-7.884400	23.397807	19.885353
2407.214014	-2.618000	3.039400	-7.956900	23.377140	19.879059
2408.210508	-2.609200	3.036600	-7.922900	23.397780	19.900874
2409.217091	-2.598000	3.037700	-7.891700	23.400283	19.895241
2410.213871	-2.590100	3.036900	-7.865500	23.399677	19.905738
2411.215634	-2.600700	3.037200	-7.898900	23.399175	19.886355
2412.215150	-2.611800	3.036900	-7.931000	23.390186	19.886223
2413.216961	-2.608400	3.037700	-7.923100	23.412170	19.887174
2414.211545	-2.618900	3.036600	-7.952200	23.418364	19.874878
2415.212886	-2.611900	3.036900	-7.931500	23.425507	19.872788
2416.213946	-2.594200	3.036500	-7.876900	23.407476	19.865807
2417.214267	-2.576300	3.036400	-7.822400	23.397986	19.894787
2418.214598	-2.608100	3.036200	-7.918700	23.416886	19.884131
2419.215169	-2.605400	3.037000	-7.912100	23.402967	19.884236
2420.213037	-2.600800	3.036200	-7.896200	23.412721	19.886246
2421.213645	-2.614700	3.036200	-7.938000	23.423501	19.879660
2422.217013	-2.617100	3.037000	-7.947800	23.405997	19.897270
2423.215242	-2.617100	3.035600	-7.943800	23.400778	19.879818
2424.212303	-2.603800	3.036200	-7.905400	23.411295	19.884815
2425.216126	-2.601600	3.035000	-7.895400	23.407841	19.853586
2426.218215	-2.585400	3.034900	-7.846200	23.419861	19.872677
2427.220901	-2.600400	3.034300	-7.889900	23.419307	19.893963
2428.213395	-2.597500	3.035600	-7.884500	23.409843	19.872994
2429.215168	-2.607100	3.035700	-7.914100	23.418594	19.867705
2430.213870	-2.606000	3.034500	-7.907400	23.420281	19.863844
2431.214959	-2.599100	3.033900	-7.885100	23.406705	19.858740
2432.213971	-2.617100	3.033800	-7.939000	23.427371	19.859850
2433.213078	-2.598100	3.035400	-7.885600	23.409156	19.870083
2434.214324	-2.605400	3.034200	-7.905000	23.432300	19.865165
2435.212620	-2.603900	3.032900	-7.896600	23.422072	19.863789
2436.214175	-2.613400	3.034400	-7.929700	23.429768	19.844485
2437.213597	-2.595000	3.032200	-7.868700	23.405174	19.852761
2438.216006	-2.587600	3.033900	-7.849700	23.423204	19.855670
2439.216785	-2.590500	3.032800	-7.855800	23.420409	19.852126
2440.213483	-2.583400	3.032700	-7.834000	23.432271	19.849217
2441.215213	-2.587000	3.033600	-7.847800	23.438096	19.851358
2442.214626	-2.590600	3.031800	-7.853700	23.431190	19.872196
2443.213581	-2.619000	3.032600	-7.942000	23.434985	19.833059
2444.217658	-2.613100	3.033000	-7.925300	23.415030	19.850432
2445.215734	-2.601600	3.031700	-7.887000	23.427288	19.841256
2446.215902	-2.592700	3.031500	-7.859000	23.424309	19.851965
2447.214314	-2.604600	3.031300	-7.894800	23.424150	19.836998
2448.216572	-2.616500	3.031400	-7.931300	23.412525	19.828668
2449.214966	-2.609700	3.029500	-7.905900	23.428156	19.831391
2450.214552	-2.611000	3.030600	-7.912700	23.420301	19.830915
2451.217559	-2.587800	3.031800	-7.845100	23.434218	19.834881
2452.215712	-2.574100	3.031600	-7.803400	23.426838	19.840434
2453.215212	-2.575000	3.029600	-7.800800	23.426099	19.851540
2454.217858	-2.628200	3.030400	-7.964100	23.425704	19.849293
2455.213536	-2.609400	3.029600	-7.905100	23.438830	19.854687
2456.212430	-2.604100	3.030200	-7.890200	23.412629	19.846542
2457.213285	-2.581100	3.028600	-7.816700	23.424649	19.844532
2458.213090	-2.612500	3.029300	-7.913600	23.435509	19.857648
2459.214529	-2.580100	3.030000	-7.817300	23.426335	19.833637
2460.214155	-2.580600	3.029200	-7.816800	23.442836	19.837233
2461.213931	-2.616900	3.028800	-7.925700	23.444206	19.843051
2462.216891	-2.590700	3.028500	-7.845600	23.438776	19.826867
2463.216391	-2.624800	3.027300	-7.945700	23.432924	19.839137
2464.213425	-2.622600	3.027600	-7.940000	23.435534	19.843976
2465.211204	-2.573300	3.028000	-7.791500	23.446420	19.835646
2466.215549	-2.621600	3.026400	-7.933900	23.456410	19.844187
2467.215810	-2.613100	3.027100	-7.909600	23.435217	19.862168
2468.217597	-2.625000	3.027000	-7.945300	23.440410	19.862935
2469.215403	-2.590900	3.025800	-7.839500	23.449873	19.859101
2470.217047	-2.623900	3.027200	-7.942500	23.456410	19.843076
2471.218007	-2.600000	3.026200	-7.867300	23.472673	19.840881
2472.213700	-2.592600	3.026600	-7.846600	23.456989	19.861798
2473.217826	-2.613800	3.025700	-7.908100	23.450979	19.857990
2474.216763	-2.567600	3.026200	-7.769800	23.452007	19.851247
2475.213290	-2.581600	3.025100	-7.809100	23.449240	19.847359
2476.213977	-2.621500	3.024600	-7.928700	23.464027	19.853309
2477.212980	-2.588000	3.025900	-7.830900	23.456383	19.839717
2478.214581	-2.585000	3.024900	-7.818800	23.453852	19.849396
2479.213784	-2.612000	3.025100	-7.901000	23.459150	19.845085
2480.212391	-2.614900	3.025500	-7.911200	23.454379	19.833265
2481.212485	-2.606300	3.024100	-7.881400	23.470774	19.850824
2482.213262	-2.608200	3.024500	-7.888300	23.463051	19.843816
2483.213650	-2.612900	3.024600	-7.902700	23.463368	19.848576
2484.214403	-2.644400	3.024200	-7.997000	23.472040	19.846169
2485.216919	-2.614200	3.023700	-7.904400	23.455460	19.850268
2486.216818	-2.598500	3.024000	-7.857700	23.475967	19.829748
2487.213534	-2.605500	3.022500	-7.874600	23.483373	19.859391
2488.214441	-2.602100	3.024100	-7.868300	23.462761	19.845376
2489.216232	-2.593000	3.022500	-7.837200	23.482846	19.850718
2490.217438	-2.606500	3.022100	-7.876200	23.469061	19.845403
2491.216930	-2.596800	3.021700	-7.846800	23.467822	19.830462
2492.216639	-2.617500	3.022600	-7.911400	23.468455	19.859603
2493.213303	-2.590700	3.021500	-7.827800	23.467532	19.839796
2494.216920	-2.582500	3.021500	-7.802900	23.479578	19.825596
2495.212451	-2.626700	3.021100	-7.935300	23.472487	19.830700
2496.214208	-2.595000	3.021300	-7.840200	23.483769	19.836094
2497.214934	-2.603000	3.020800	-7.862800	23.465186	19.823004
2498.212355	-2.607600	3.019700	-7.873900	23.475466	19.828505
2499.214796	-2.607300	3.020400	-7.874500	23.472145	19.833318
2500.217504	-2.599700	3.020700	-7.852900	23.493389	19.830938
2501.217045	-2.599000	3.020700	-7.850200	23.457806	19.836702
2502.216006	-2.616000	3.021200	-7.903300	23.479499	19.830329
2503.214781	-2.573400	3.020700	-7.773200	23.481265	19.846169
2504.213228	-2.584600	3.018700	-7.801800	23.475914	19.858941
2505.215457	-2.609200	3.018900	-7.876000	23.487353	19.850797
2506.217688	-2.596600	3.019600	-7.840100	23.477785	19.835274
2507.215283	-2.602500	3.018500	-7.855100	23.480738	19.843049
2508.217597	-2.582100	3.018000	-7.792200	23.497896	19.840642
2509.216142	-2.551700	3.020100	-7.705600	23.478708	19.862855
2510.216525	-2.595600	3.018100	-7.833500	23.492045	19.849580
2511.215778	-2.605300	3.017100	-7.860300	23.479947	19.827447
2512.217344	-2.619600	3.017200	-7.903500	23.496183	19.836702
2513.212226	-2.610500	3.016500	-7.874200	23.500216	19.835195
2514.214032	-2.590400	3.017300	-7.815700	23.500084	19.835433
2515.214179	-2.595400	3.015700	-7.826900	23.481027	19.851484
2516.214112	-2.600000	3.016700	-7.843100	23.503959	19.825252
2517.213574	-2.600900	3.016500	-7.845700	23.499425	19.851061
2518.214753	-2.624800	3.015900	-7.916000	23.507332	19.846037
2519.213935	-2.573600	3.016200	-7.762200	23.494074	19.848655
2520.215045	-2.591500	3.014800	-7.812500	23.500927	19.875151
2521.214930	-2.605700	3.016600	-7.859500	23.497738	19.860105
2522.213559	-2.597100	3.015600	-7.831300	23.509704	19.851378
2523.219134	-2.570200	3.014700	-7.747500	23.514159	19.853256
2524.217622	-2.591200	3.014700	-7.811100	23.488328	19.856218
2525.214943	-2.578100	3.014500	-7.771200	23.515898	19.849818
2526.215824	-2.596400	3.014000	-7.825300	23.510890	19.853679
2527.212774	-2.611500	3.013700	-7.869800	23.521591	19.858492
2528.216409	-2.588100	3.014800	-7.801800	23.523410	19.848099
2529.215280	-2.588000	3.013900	-7.799000	23.506252	19.858280
2530.212930	-2.587900	3.013600	-7.798300	23.513131	19.850744
2531.219239	-2.608000	3.013100	-7.857400	23.527100	19.857725
2532.218553	-2.578900	3.013600	-7.771500	23.506410	19.871396
2533.216755	-2.608000	3.012600	-7.856200	23.517611	19.854499
2534.217073	-2.586800	3.012500	-7.792300	23.506594	19.869360
2535.215561	-2.612500	3.012400	-7.869500	23.499820	19.867006
2536.214502	-2.606700	3.013200	-7.854000	23.517163	19.875891
2537.213018	-2.597100	3.010000	-7.816300	23.515292	19.861797
2538.214698	-2.612600	3.010900	-7.866000	23.528233	19.851087
2539.212300	-2.571200	3.010400	-7.740100	23.515134	19.878297
2540.210619	-2.615000	3.010200	-7.871500	23.520669	19.910504
2541.214550	-2.613200	3.010600	-7.866500	23.519114	19.879329
2542.215989	-2.602500	3.010200	-7.833900	23.515793	19.853785
2543.214151	-2.573300	3.009400	-7.743700	23.532898	19.861691
2544.214581	-2.584400	3.010200	-7.779300	23.529841	19.860845
2545.217387	-2.576900	3.008900	-7.753300	23.534717	19.882396
2546.215964	-2.602100	3.009100	-7.829800	23.538908	19.895855
2547.212632	-2.631300	3.008300	-7.915300	23.547790	19.876631
2548.214740	-2.619100	3.008600	-7.879400	23.542677	19.892233
2549.215939	-2.611800	3.008000	-7.855400	23.556092	19.879038
2550.215149	-2.608000	3.008000	-7.844400	23.533715	19.882872
2551.215511	-2.618600	3.007100	-7.874300	23.544337	19.882793
2552.216230	-2.628100	3.008100	-7.905000	23.541543	19.897019
2553.217415	-2.598800	3.007300	-7.815100	23.556698	19.911483
2554.217148	-2.617600	3.007500	-7.872000	23.554748	19.896569
2555.213928	-2.604800	3.006600	-7.831100	23.545576	19.884776
2556.216051	-2.582400	3.007000	-7.764700	23.542308	19.897415
2557.214616	-2.603500	3.006200	-7.825900	23.546446	19.895644
2558.214186	-2.598000	3.005400	-7.807900	23.543968	19.882793
2559.213522	-2.589100	3.005600	-7.781100	23.555144	19.908072
2560.216385	-2.599900	3.003600	-7.808900	23.557858	19.896728
2561.212278	-2.604200	3.004700	-7.824500	23.540437	19.888875
2562.212355	-2.596300	3.004700	-7.800400	23.561495	19.882238
2563.214673	-2.611800	3.004300	-7.846000	23.557015	19.900324
2564.216204	-2.596700	3.003700	-7.799400	23.548528	19.904396
2565.213060	-2.607800	3.003300	-7.831900	23.564553	19.892339
2566.213452	-2.610600	3.003600	-7.840700	23.547105	19.903709
2567.215980	-2.623400	3.003100	-7.878100	23.576439	19.899822
2568.218531	-2.603600	3.003400	-7.819300	23.567768	19.899637
2569.217375	-2.594100	3.002600	-7.788800	23.559519	19.889510
2570.214698	-2.594400	3.002800	-7.789900	23.560995	19.883586
2571.215222	-2.591400	3.001800	-7.778600	23.573092	19.894983
2572.215080	-2.598600	3.001800	-7.800100	23.573198	19.876949
2573.213321	-2.626400	3.001800	-7.883900	23.562655	19.901911
2574.213018	-2.600700	3.000500	-7.803500	23.582502	19.897760
2575.212990	-2.614700	3.001300	-7.847100	23.570378	19.898553
2576.213006	-2.619800	3.000200	-7.859600	23.582818	19.907702
2577.210950	-2.621600	2.999300	-7.862300	23.573936	19.916931
2578.213198	-2.625600	2.999900	-7.876000	23.578127	19.937423
2579.213134	-2.616600	2.999300	-7.847500	23.569324	19.922668
2580.214043	-2.571100	2.999600	-7.711900	23.589117	19.914022
2581.213914	-2.599100	2.999000	-7.794200	23.591041	19.928909
2582.212210	-2.593400	2.998700	-7.776300	23.589091	19.928433
2583.213025	-2.602900	2.998600	-7.804700	23.588089	19.919284
2584.217774	-2.619100	2.996800	-7.848700	23.584030	19.917803
2585.214685	-2.607700	2.997200	-7.815500	23.607223	19.921452
2586.215738	-2.570700	2.997100	-7.704300	23.593756	19.934964
2587.218815	-2.599300	2.996700	-7.789100	23.591358	19.927746
2588.213225	-2.605400	2.996600	-7.806700	23.596919	19.914075
2589.214177	-2.623300	2.995300	-7.857500	23.609147	19.925234
2590.213547	-2.597000	2.996600	-7.781800	23.599791	19.929174
2591.212160	-2.624100	2.995300	-7.859600	23.615367	19.925921
2592.213284	-2.593500	2.995000	-7.767100	23.596365	19.938322
2593.215087	-2.617700	2.993800	-7.836900	23.605405	19.955906
2594.213894	-2.588500	2.995700	-7.754200	23.609174	19.941548
2595.214420	-2.609400	2.994800	-7.814000	23.614735	19.956012
2596.214787	-2.612300	2.993800	-7.820400	23.610413	19.918729
2597.211903	-2.603200	2.993700	-7.792700	23.618741	19.923013
2598.214954	-2.581900	2.993500	-7.728500	23.611572	19.925816
2599.212370	-2.597700	2.992700	-7.773800	23.614603	19.934780
2600.215436	-2.590500	2.994000	-7.755600	23.633763	19.926239
2601.214788	-2.584600	2.993200	-7.735600	23.632103	19.947154
2602.217310	-2.577600	2.992900	-7.714200	23.626437	19.947022
2603.214490	-2.595600	2.990900	-7.762800	23.633368	19.938799
2604.216085	-2.597000	2.992800	-7.771900	23.642539	19.940967
2605.213789	-2.619300	2.990500	-7.832700	23.637664	19.948662
2606.214200	-2.593600	2.990700	-7.756600	23.641722	19.936446
2607.212762	-2.594800	2.990900	-7.760300	23.637242	19.934172
2608.215500	-2.563900	2.990300	-7.666400	23.638586	19.957731
2609.212290	-2.597900	2.990000	-7.767200	23.639034	19.945224
2610.215177	-2.620400	2.990100	-7.834600	23.649418	19.961565
2611.211975	-2.588500	2.988900	-7.736500	23.648970	19.958894
2612.217111	-2.583500	2.989400	-7.722900	23.664176	19.961195
2613.212319	-2.569100	2.988300	-7.676900	23.655611	19.948530
2614.214154	-2.603600	2.988700	-7.781000	23.658721	19.939804
2615.212211	-2.618200	2.987300	-7.820700	23.652976	19.954400
2616.213850	-2.605100	2.988100	-7.783900	23.659248	19.964024
2617.213242	-2.586300	2.988000	-7.727300	23.679488	19.975447
2618.214697	-2.607900	2.987100	-7.789700	23.667998	19.969841
2619.214666	-2.586500	2.985400	-7.721100	23.667392	19.972935
2620.214766	-2.620300	2.986700	-7.825300	23.670422	19.965611
2621.215508	-2.597800	2.984900	-7.753700	23.689450	19.956939
2622.214437	-2.600900	2.986200	-7.766400	23.675983	19.969709
2623.210487	-2.580200	2.985700	-7.703300	23.686129	19.950645
2624.213067	-2.592600	2.985500	-7.740100	23.680780	19.946759
2625.212738	-2.580500	2.983300	-7.697500	23.692006	19.966907
2626.213350	-2.580200	2.983700	-7.697800	23.664361	19.948424
2627.215668	-2.599300	2.983600	-7.754700	23.694378	19.965215
2628.215135	-2.584300	2.983400	-7.710000	23.701520	19.964977
2629.213931	-2.606600	2.982400	-7.773500	23.691717	19.962544
2630.213501	-2.614000	2.982000	-7.794800	23.687079	19.976029
2631.216344	-2.587500	2.982200	-7.716000	23.701836	19.986764
2632.214938	-2.613100	2.980800	-7.788900	23.695854	19.970397
2633.216530	-2.622000	2.980600	-7.814700	23.709426	19.979572
2634.213116	-2.613300	2.981300	-7.790700	23.709742	19.986182
2635.213505	-2.600100	2.980500	-7.748700	23.706659	19.990862
2636.213606	-2.586700	2.980700	-7.709700	23.737834	19.982164
2637.216026	-2.629900	2.980500	-7.837900	23.718281	19.993639
2638.212498	-2.621300	2.979800	-7.810400	23.720626	19.981186
2639.212164	-2.606000	2.978900	-7.762600	23.720363	20.001650
2640.213167	-2.595800	2.979000	-7.732500	23.731114	19.991709
2641.213253	-2.586600	2.978500	-7.703900	23.731563	19.982904
2642.212838	-2.579000	2.978300	-7.680700	23.729692	20.014712
2643.213502	-2.605300	2.978300	-7.759100	23.730640	19.999747
2644.215688	-2.591800	2.978100	-7.718200	23.722260	19.998002
2645.211568	-2.627500	2.976700	-7.820900	23.735252	20.001043
2646.215215	-2.610900	2.977100	-7.772700	23.733855	19.984835
2647.211079	-2.618300	2.976400	-7.792700	23.736201	19.992741
2648.216906	-2.591400	2.976000	-7.711700	23.745029	19.997527
2649.217391	-2.576000	2.977400	-7.669600	23.752592	20.000673
2650.217748	-2.591900	2.974900	-7.710100	23.749931	19.986157
2651.214039	-2.603300	2.974600	-7.743200	23.748877	19.991393
2652.216058	-2.573800	2.974500	-7.655900	23.752408	20.004930
2653.215384	-2.610300	2.973700	-7.761800	23.761289	20.008658
2654.213562	-2.629600	2.973500	-7.818800	23.755202	20.009214
2655.211425	-2.597500	2.973100	-7.722500	23.770538	20.002392
2656.214298	-2.594500	2.973600	-7.714300	23.775967	20.001176
2657.213395	-2.587400	2.972300	-7.689900	23.780420	20.013418
2658.215620	-2.585600	2.972700	-7.685900	23.783424	20.014951
2659.217886	-2.600500	2.972500	-7.729800	23.781659	20.006517
2660.216280	-2.585400	2.972100	-7.683600	23.786718	20.025660
2661.213099	-2.598500	2.972300	-7.723200	23.766982	20.027326
2662.213732	-2.611800	2.971900	-7.761700	23.796864	20.026215
2663.213857	-2.596800	2.971800	-7.717100	23.794176	20.010933
2664.213380	-2.629000	2.970300	-7.808800	23.800896	20.010643
2665.214698	-2.605600	2.970200	-7.739000	23.794703	20.002579
2666.215366	-2.619000	2.970100	-7.778600	23.794519	20.005355
2667.216032	-2.613800	2.968300	-7.758400	23.804822	20.011991
2668.213262	-2.600800	2.967800	-7.718700	23.801739	20.018892
2669.214966	-2.610300	2.968400	-7.748000	23.801713	20.011833
2670.218417	-2.621300	2.968300	-7.780700	23.820765	20.017623
2671.217141	-2.588900	2.967300	-7.682000	23.813650	20.033804
2672.212707	-2.588300	2.966800	-7.678700	23.817260	20.017438
2673.214534	-2.578400	2.966600	-7.648300	23.815995	20.023573
2674.212902	-2.610200	2.966600	-7.743000	23.819975	20.039040
2675.213257	-2.582000	2.966200	-7.658200	23.827511	20.018100
2676.215935	-2.617600	2.965100	-7.760700	23.814679	20.023732
2677.213818	-2.572600	2.965200	-7.628100	23.832966	20.030976
2678.215384	-2.605500	2.964800	-7.724200	23.815838	20.036000
2679.213796	-2.594400	2.964300	-7.689900	23.837762	20.040601
2680.213914	-2.536700	2.964500	-7.519700	23.829488	20.044143
2681.212214	-2.600800	2.962900	-7.706000	23.826036	20.021802
2682.215692	-2.592600	2.962700	-7.680700	23.833098	20.038883
2683.220613	-2.599800	2.962500	-7.701900	23.846036	20.046682
2684.212201	-2.593700	2.962900	-7.684300	23.851227	20.035235
2685.214131	-2.591100	2.962400	-7.675700	23.843402	20.030713
2686.213852	-2.598400	2.959600	-7.690100	23.853151	20.056412
2687.216702	-2.589300	2.960300	-7.665000	23.861715	20.039466
2688.214829	-2.592200	2.959400	-7.671000	23.867670	20.054324
2689.216204	-2.603300	2.958800	-7.702600	23.846617	20.043564
2690.213368	-2.615900	2.958300	-7.738500	23.850939	20.053823
2691.214176	-2.590000	2.958400	-7.662200	23.865300	20.050835
2692.211612	-2.590800	2.959700	-7.667700	23.857421	20.042560
2693.215055	-2.611500	2.957900	-7.724300	23.883692	20.051893
2694.212692	-2.625500	2.957200	-7.763300	23.871809	20.066990
2695.214431	-2.586200	2.957800	-7.649300	23.890253	20.048113
2696.213802	-2.580400	2.956600	-7.628800	23.867040	20.059985
2697.216267	-2.640400	2.955400	-7.803100	23.885379	20.031748
2698.213194	-2.614700	2.953900	-7.723100	23.870861	20.061598
2699.213798	-2.608700	2.956200	-7.711700	23.882402	20.060593
2700.213291	-2.612600	2.955600	-7.721500	23.873734	20.062630
2701.212934	-2.590900	2.955000	-7.655700	23.890281	20.071090
2702.216748	-2.588600	2.954300	-7.647000	23.886118	20.069134
2703.215196	-2.608200	2.952800	-7.701000	23.900557	20.061044
2704.215802	-2.556600	2.953000	-7.548800	23.906855	20.055519
2705.217575	-2.564600	2.952900	-7.572700	23.888385	20.069558
2706.219059	-2.600600	2.951800	-7.676200	23.901718	20.070351
2707.213704	-2.614400	2.951400	-7.716100	23.919187	20.066783
2708.214097	-2.616300	2.951300	-7.721000	23.905355	20.066228
2709.213145	-2.601800	2.950600	-7.676300	23.914024	20.057160
2710.213006	-2.604400	2.949300	-7.681300	23.916290	20.071278
2711.212842	-2.628300	2.949700	-7.752100	23.909835	20.058139
2712.213446	-2.602500	2.949000	-7.674500	23.930492	20.077016
2713.213764	-2.613300	2.947800	-7.702900	23.940240	20.071252
2714.213873	-2.607500	2.948100	-7.686800	23.938002	20.088253
2715.212932	-2.600300	2.947900	-7.664600	23.938345	20.069720
2716.215993	-2.595600	2.946800	-7.649000	23.950333	20.063983
2717.216215	-2.570900	2.946700	-7.575200	23.941612	20.086694
2718.214443	-2.609300	2.946400	-7.687900	23.944194	20.077440
2719.212420	-2.590600	2.946000	-7.631800	23.948858	20.078049
2720.212907	-2.587700	2.944800	-7.619900	23.958265	20.081196
2721.215223	-2.595400	2.945100	-7.643100	23.971175	20.093040
2722.213105	-2.595700	2.945500	-7.645200	23.963456	20.098619
2723.214359	-2.574700	2.944300	-7.580500	23.950388	20.085506
2724.214421	-2.601100	2.944300	-7.658000	23.984955	20.086511
2725.214565	-2.595300	2.944200	-7.640600	23.959715	20.095976
2726.218410	-2.599500	2.942200	-7.648000	23.980582	20.088415
2727.216520	-2.598400	2.942100	-7.644100	23.957476	20.094469
2728.217462	-2.590500	2.941000	-7.618000	23.971809	20.091456
2729.215103	-2.607100	2.941000	-7.667000	23.990278	20.098145
2730.213758	-2.587700	2.941100	-7.610000	23.990331	20.082283
2731.213341	-2.605400	2.940000	-7.659300	23.973022	20.104887
2732.214853	-2.618500	2.938700	-7.694500	23.996076	20.100261
2733.213510	-2.600400	2.939100	-7.642500	24.009749	20.102878
2734.213600	-2.597200	2.938700	-7.631900	24.001898	20.115357
2735.214660	-2.578200	2.940000	-7.579200	23.989490	20.111789
2736.213719	-2.615700	2.937200	-7.682400	23.995365	20.117314
2737.214074	-2.610900	2.936400	-7.666400	24.019445	20.092252
2738.216006	-2.606800	2.938100	-7.658400	24.007696	20.106740
2739.216053	-2.617300	2.934600	-7.680200	24.017602	20.109278
2740.212889	-2.581800	2.935500	-7.578000	24.029800	20.109674
2741.214562	-2.589200	2.935000	-7.599100	24.006115	20.111076
2742.212985	-2.607600	2.934100	-7.650300	24.023557	20.109702
2743.213528	-2.606200	2.934500	-7.647800	24.025348	20.114460
2744.214655	-2.616500	2.932000	-7.671300	24.034095	20.108803
2745.211959	-2.611500	2.932300	-7.657200	24.024426	20.112055
2746.215543	-2.626100	2.931000	-7.696400	24.020080	20.141004
2747.218246	-2.587600	2.932000	-7.586200	24.040682	20.106160
2748.215471	-2.591100	2.930700	-7.593300	24.044370	20.124296
2749.215397	-2.608400	2.929700	-7.641500	24.040946	20.116418
2750.213898	-2.623300	2.930800	-7.687900	24.053038	20.118929
2751.216004	-2.601500	2.929500	-7.620500	24.068239	20.127892
2752.217449	-2.607400	2.928300	-7.634700	24.049008	20.132281
2753.213291	-2.590100	2.927800	-7.583000	24.065816	20.131752
2754.213667	-2.585700	2.928400	-7.571700	24.065631	20.137119
2755.215324	-2.599600	2.928500	-7.613000	24.063050	20.133788
2756.213000	-2.614300	2.926000	-7.649200	24.069926	20.137728
2757.217296	-2.582900	2.926300	-7.557800	24.080912	20.140609
2758.214723	-2.551600	2.925800	-7.465500	24.065659	20.140477
2759.212502	-2.606500	2.924500	-7.622500	24.086049	20.138362
2760.212821	-2.606600	2.924300	-7.622300	24.078357	20.151739
2761.213527	-2.596800	2.923500	-7.591400	24.077831	20.165645
2762.218027	-2.606100	2.923500	-7.618700	24.096798	20.141747
2763.213161	-2.609000	2.922500	-7.624500	24.096140	20.147378
2764.213310	-2.629400	2.922300	-7.683200	24.097036	20.133473
2765.217455	-2.580800	2.921800	-7.540300	24.106941	20.145634
2766.217334	-2.608900	2.920200	-7.617900	24.094876	20.145000
2767.217513	-2.609100	2.920300	-7.619000	24.108311	20.140717
2768.215281	-2.591600	2.919500	-7.565800	24.102411	20.129244
2769.214140	-2.591800	2.919000	-7.565600	24.112659	20.131015
2770.212832	-2.589800	2.918500	-7.558100	24.106179	20.117850
2771.214810	-2.598400	2.917600	-7.580900	24.131338	20.107197
2772.213828	-2.572000	2.918000	-7.504600	24.128913	20.089959
2773.213983	-2.602800	2.916200	-7.590300	24.133182	20.095723
2774.213627	-2.614800	2.915300	-7.622000	24.118403	20.092366
2775.215432	-2.594200	2.916300	-7.565000	24.139267	20.084805
2776.215835	-2.611700	2.913500	-7.608700	24.144088	20.085572
2777.215294	-2.575900	2.913300	-7.503600	24.126702	20.077006
2778.214643	-2.616900	2.912200	-7.620800	24.142824	20.056173
2779.215309	-2.580300	2.911900	-7.513000	24.147329	20.056993
2780.213723	-2.595100	2.911700	-7.555500	24.143036	20.065269
2781.212586	-2.591200	2.912200	-7.545700	24.159367	20.039834
2782.216712	-2.581600	2.910600	-7.513600	24.160000	20.034547
2783.213978	-2.617300	2.909000	-7.613400	24.148068	20.022571
2784.215294	-2.587700	2.909600	-7.528900	24.155313	20.009854
2785.220102	-2.584000	2.909600	-7.518000	24.170485	19.989177
2786.217335	-2.611200	2.906900	-7.589800	24.164006	20.001552
2787.218102	-2.601000	2.906200	-7.558400	24.171777	19.981219
2788.216910	-2.618900	2.906900	-7.612200	24.175518	19.972019
2789.213367	-2.620800	2.906500	-7.616900	24.179233	19.979079
2790.214864	-2.603700	2.906100	-7.565900	24.184527	19.990686
2791.213385	-2.643000	2.902900	-7.671700	24.166404	19.988783
2792.214200	-2.584100	2.904400	-7.504700	24.187110	19.964775
2793.214550	-2.605900	2.904600	-7.568600	24.196883	19.957188
2794.215614	-2.625400	2.903200	-7.621700	24.201072	19.965094
2795.216299	-2.625200	2.902800	-7.620300	24.189983	19.972842
2796.216568	-2.611700	2.901100	-7.576100	24.212558	19.948120
2797.215886	-2.594600	2.901600	-7.528100	24.201442	19.941774
2798.212639	-2.600700	2.900100	-7.542100	24.201969	19.969696
2799.214180	-2.588900	2.899700	-7.506500	24.207817	19.967423
2800.217414	-2.608200	2.898900	-7.560800	24.221989	19.963510
2801.218067	-2.613100	2.898000	-7.572100	24.214614	19.963880
2802.217467	-2.586700	2.896100	-7.490900	24.216037	19.966789
2803.216244	-2.584600	2.896500	-7.485900	24.219435	19.948361
2804.214290	-2.599900	2.895600	-7.527500	24.228023	19.952169
2805.217184	-2.574200	2.895600	-7.453500	24.235741	19.946220
2806.212580	-2.600300	2.894600	-7.526600	24.224731	19.946273
2807.216236	-2.597000	2.893300	-7.513500	24.243197	19.965919
2808.214052	-2.615400	2.893100	-7.566300	24.239377	19.967638
2809.212754	-2.623800	2.892100	-7.588200	24.247543	19.970283
2810.212592	-2.597900	2.892300	-7.513700	24.251495	19.956111
2811.214004	-2.594300	2.889800	-7.496400	24.255895	19.969411
2812.218357	-2.620800	2.888900	-7.570900	24.263428	19.967719
2813.215643	-2.570100	2.890100	-7.427600	24.280680	19.943578
2814.212049	-2.570200	2.889100	-7.425300	24.274359	19.944267
2815.214875	-2.603000	2.888400	-7.518200	24.270593	19.941226
2816.215504	-2.608000	2.887200	-7.529500	24.287425	19.936282
2817.216118	-2.621200	2.885100	-7.562300	24.286715	19.936680
2818.218540	-2.610200	2.885600	-7.531800	24.283896	19.926817
2819.217843	-2.575700	2.886400	-7.433900	24.277970	19.923829
2820.216069	-2.595100	2.883700	-7.483200	24.286847	19.930890
2821.217513	-2.574500	2.884400	-7.425300	24.299542	19.925496
2822.218078	-2.598500	2.883300	-7.491500	24.297226	19.923541
2823.217644	-2.596700	2.881900	-7.483000	24.290720	19.939221
2824.216154	-2.586300	2.882100	-7.453500	24.284109	19.922219
2825.217272	-2.615800	2.879200	-7.531100	24.303838	19.929068
2826.215298	-2.597700	2.878600	-7.477200	24.313030	19.919417
2827.213166	-2.589100	2.877500	-7.449500	24.291961	19.937874
2828.214386	-2.610900	2.876900	-7.510700	24.299020	19.939779
2829.213568	-2.637000	2.875300	-7.581800	24.306106	19.937267
2830.215156	-2.641900	2.874900	-7.594800	24.319407	19.928779
2831.214643	-2.634800	2.875800	-7.576800	24.305158	19.937057
2832.217369	-2.592800	2.874300	-7.452100	24.320514	19.956174
2833.218908	-2.591200	2.873700	-7.446200	24.311796	19.948163
2834.217267	-2.596000	2.873100	-7.458500	24.327416	19.935339
2835.215134	-2.631800	2.872400	-7.558700	24.321991	19.934335
2836.216374	-2.595800	2.871400	-7.453200	24.322018	19.926959
2837.215171	-2.601600	2.870400	-7.467000	24.324021	19.931190
2838.213591	-2.616700	2.869300	-7.507800	24.339402	19.939968
2839.218634	-2.588800	2.868900	-7.426900	24.333502	19.922570
2840.215002	-2.587000	2.867500	-7.418000	24.354679	19.922359
2841.215087	-2.602700	2.868100	-7.464600	24.337559	19.942560
2842.216488	-2.627100	2.867200	-7.531600	24.344829	19.921355
2843.215700	-2.603600	2.865400	-7.459700	24.341037	19.925692
2844.214051	-2.627400	2.864700	-7.526300	24.346121	19.923393
2845.213744	-2.605800	2.864600	-7.464400	24.339879	19.921569
2846.213418	-2.654200	2.863000	-7.598200	24.363215	19.916862
2847.217398	-2.592200	2.861000	-7.415900	24.365954	19.918131
2848.215224	-2.639100	2.860400	-7.548300	24.356842	19.911944
2849.215883	-2.597700	2.861300	-7.432400	24.365771	19.927202
2850.212960	-2.577500	2.860500	-7.372600	24.372198	19.913294
2851.220344	-2.615700	2.858800	-7.477200	24.367327	19.929135
2852.217794	-2.608600	2.857900	-7.455100	24.379020	19.924586
2853.215606	-2.618100	2.856800	-7.479000	24.365404	19.891296
2854.214183	-2.612500	2.855800	-7.460200	24.368118	19.908088
2855.213887	-2.605600	2.855300	-7.439200	24.372701	19.905286
2856.213954	-2.577600	2.855000	-7.358600	24.393666	19.898199
2857.215004	-2.610400	2.854100	-7.449700	24.382869	19.915493
2858.215424	-2.627800	2.851100	-7.491600	24.388611	19.904230
2859.219852	-2.616600	2.850600	-7.458100	24.382001	19.911661
2860.214612	-2.612900	2.851000	-7.449300	24.401622	19.916182
2861.214052	-2.604300	2.850100	-7.422300	24.397146	19.918352
2862.216631	-2.609400	2.849600	-7.435100	24.392248	19.898626
2863.213638	-2.603300	2.847700	-7.413000	24.393460	19.912430
2864.214081	-2.567200	2.847400	-7.309300	24.399676	19.896089
2865.212751	-2.600400	2.844900	-7.397100	24.405970	19.890562
2866.215271	-2.559000	2.845500	-7.281200	24.403021	19.894635
2867.212052	-2.607800	2.843400	-7.414500	24.404709	19.890407
2868.214349	-2.560100	2.843300	-7.278700	24.408845	19.901964
2869.216660	-2.612800	2.843400	-7.429300	24.412822	19.890779
2870.214380	-2.618700	2.841400	-7.440500	24.417220	19.898896
2871.213665	-2.593300	2.839900	-7.364300	24.412981	19.903895
2872.214484	-2.584900	2.839900	-7.340500	24.416038	19.906964
2873.215160	-2.604700	2.838700	-7.393700	24.421332	19.873408
2874.217289	-2.583800	2.837900	-7.332000	24.424072	19.898001
2875.215160	-2.608200	2.834900	-7.393800	24.416434	19.877006
2876.213945	-2.589200	2.835200	-7.340500	24.420807	19.900646
2877.215727	-2.611100	2.833800	-7.398500	24.428393	19.897158
2878.216083	-2.602400	2.834600	-7.376000	24.440325	19.905065
2879.212113	-2.592400	2.832000	-7.341700	24.427526	19.894066
2880.211228	-2.582100	2.831700	-7.311300	24.424971	19.891130
2881.210927	-2.610500	2.831100	-7.389900	24.458471	19.905516
2882.213125	-2.582500	2.829800	-7.307100	24.447781	19.904778
2883.213991	-2.563900	2.827800	-7.250000	24.449124	19.895020
2884.211085	-2.606900	2.827100	-7.370000	24.439382	19.898565
2885.214533	-2.618300	2.825600	-7.398200	24.449837	19.885741
2886.214842	-2.591600	2.825800	-7.323100	24.474093	19.888624
2887.213537	-2.611100	2.824800	-7.375200	24.464481	19.888598
2888.215849	-2.608300	2.823700	-7.364700	24.472857	19.874426
2889.216508	-2.588100	2.822800	-7.305800	24.448314	19.883101
2890.216938	-2.573000	2.820900	-7.258400	24.465721	19.860968
2891.214025	-2.610200	2.819700	-7.359900	24.465749	19.879506
2892.213783	-2.587900	2.819600	-7.296400	24.481605	19.870253
2893.215542	-2.603800	2.818500	-7.338600	24.477629	19.875886
2894.217041	-2.598400	2.816800	-7.318600	24.477445	19.877552
2895.215104	-2.589600	2.815800	-7.291500	24.485452	19.881890
2896.212899	-2.596500	2.815200	-7.309800	24.484346	19.885592
2897.214276	-2.564300	2.814000	-7.215700	24.476421	19.912433
2898.214530	-2.593900	2.813000	-7.296000	24.489354	19.875812
2899.213593	-2.597900	2.811600	-7.303800	24.496728	19.890251
2900.214475	-2.625000	2.810800	-7.377900	24.487800	19.887209
2901.213868	-2.589900	2.809700	-7.276300	24.488697	19.888110
2902.212914	-2.571800	2.808700	-7.222900	24.495782	19.881527
2903.212696	-2.591900	2.807900	-7.277600	24.492334	19.881767
2904.216905	-2.588400	2.806300	-7.263800	24.494363	19.871958
2905.217359	-2.610300	2.804800	-7.320800	24.500078	19.863999
2906.212949	-2.602200	2.804000	-7.296000	24.525519	19.876587
2907.213839	-2.615600	2.803500	-7.332600	24.521254	19.867862
2908.213032	-2.582600	2.801400	-7.234900	24.517805	19.877357
2909.213145	-2.568300	2.800800	-7.193100	24.505588	19.865829
2910.213913	-2.642700	2.798600	-7.395700	24.519994	19.867708
2911.217898	-2.601100	2.797900	-7.277500	24.519521	19.871305
2912.215135	-2.592100	2.796100	-7.247700	24.524287	19.883865
2913.216455	-2.601900	2.795100	-7.272200	24.520049	19.877759
2914.216602	-2.586600	2.795100	-7.229400	24.505567	19.889501
2915.215474	-2.618500	2.792600	-7.312300	24.526134	19.852772
2916.216110	-2.621800	2.791400	-7.317900	24.539276	19.872262
2917.215971	-2.608300	2.790800	-7.278700	24.537460	19.858221
2918.214327	-2.604500	2.790400	-7.267800	24.540490	19.856451
2919.213109	-2.610600	2.788500	-7.279000	24.536700	19.854497
2920.215661	-2.583500	2.787600	-7.201200	24.540019	19.846353
2921.212430	-2.602900	2.786600	-7.252100	24.526878	19.846485
2922.212806	-2.582300	2.785000	-7.191700	24.535464	19.858439
2923.214139	-2.609700	2.783500	-7.263400	24.537203	19.866478
2924.216611	-2.585500	2.782100	-7.192800	24.548842	19.853362
2925.217046	-2.606800	2.780800	-7.248600	24.557086	19.854607
2926.217451	-2.609900	2.779300	-7.253400	24.556246	19.852282
2927.215240	-2.598900	2.779500	-7.223400	24.559432	19.859924
2928.209968	-2.612700	2.777000	-7.255300	24.557142	19.847258
2929.215288	-2.597400	2.775100	-7.207900	24.578577	19.861009
2930.215481	-2.584600	2.773900	-7.169400	24.567808	19.859450
2931.216269	-2.598000	2.772500	-7.202800	24.573655	19.858288
2932.216319	-2.571100	2.772200	-7.127400	24.569996	19.865719
2933.215327	-2.598100	2.770100	-7.196700	24.576213	19.870111
2934.218582	-2.588800	2.769600	-7.169700	24.579794	19.862972
2935.215093	-2.583100	2.768200	-7.150100	24.592856	19.872017
2936.215847	-2.631600	2.766100	-7.278800	24.583668	19.852794
2937.211322	-2.601200	2.764800	-7.191500	24.593411	19.860727
2938.213572	-2.584100	2.764000	-7.141800	24.588726	19.882307
2939.214326	-2.602600	2.761500	-7.186800	24.581486	19.870594
2940.213951	-2.626400	2.760000	-7.248900	24.605395	19.880906
2941.214353	-2.603100	2.759000	-7.181600	24.592284	19.870702
2942.214215	-2.599200	2.758000	-7.168200	24.600815	19.862609
2943.217728	-2.577400	2.756300	-7.103700	24.612561	19.867741
2944.216398	-2.599200	2.754200	-7.158800	24.622804	19.875436
2945.213686	-2.615800	2.753800	-7.203000	24.615645	19.854549
2946.213726	-2.602300	2.751900	-7.160700	24.609825	19.872768
2947.214459	-2.587700	2.751400	-7.119400	24.606352	19.871871
2948.215568	-2.612600	2.749900	-7.183900	24.620439	19.854181
2949.215385	-2.615800	2.747700	-7.187100	24.630578	19.879171
2950.218397	-2.565200	2.745300	-7.041300	24.620441	19.896756
2951.215008	-2.626000	2.744900	-7.207900	24.645641	19.872085
2952.215424	-2.592300	2.742900	-7.110100	24.633715	19.858998
2953.215329	-2.586700	2.741500	-7.091100	24.634136	19.876821
2954.214924	-2.575800	2.740600	-7.058300	24.638456	19.877827
2955.220362	-2.580300	2.738100	-7.064800	24.644960	19.874734
2956.217074	-2.609800	2.737000	-7.142500	24.648780	19.873016
2957.212933	-2.594000	2.734300	-7.092600	24.622845	19.863631
2958.214585	-2.588900	2.733600	-7.076600	24.662764	19.885579
2959.214006	-2.616800	2.730800	-7.145400	24.652444	19.891504
2960.215185	-2.610900	2.730600	-7.129100	24.666241	19.872042
2961.214596	-2.619200	2.727400	-7.143100	24.665427	19.869744
2962.215200	-2.593100	2.726900	-7.070500	24.673774	19.862578
2963.214703	-2.597600	2.724600	-7.076800	24.684044	19.878075
2964.213566	-2.597000	2.723100	-7.071700	24.680938	19.871623
2965.214171	-2.607000	2.721100	-7.093800	24.670748	19.859169
2966.214272	-2.579600	2.720000	-7.015800	24.681938	19.843382
2967.216588	-2.571400	2.718100	-6.989000	24.692474	19.848410
2968.217083	-2.599100	2.714600	-7.055300	24.684943	19.841217
2969.213582	-2.612700	2.712900	-7.087800	24.699058	19.867979
2970.214603	-2.622300	2.712400	-7.112600	24.708667	19.835056
2971.215420	-2.591500	2.709100	-7.020000	24.693819	19.844578
2972.218727	-2.608300	2.708200	-7.063900	24.709725	19.852407
2973.215815	-2.607300	2.706800	-7.057000	24.708855	19.860419
2974.216844	-2.616700	2.704500	-7.076500	24.707461	19.842730
2975.214931	-2.590800	2.702500	-7.001300	24.699458	19.866160
2976.218663	-2.627100	2.699500	-7.091400	24.718575	19.861666
2977.213118	-2.606500	2.697200	-7.029700	24.696670	19.840407
2978.214411	-2.589500	2.694900	-6.978100	24.720656	19.843395
2979.215340	-2.578900	2.694800	-6.949000	24.726371	19.846173
2980.213856	-2.600600	2.692500	-7.001600	24.720106	19.838770
2981.218277	-2.590900	2.690300	-6.969900	24.718265	19.864687
2982.215063	-2.647400	2.687200	-7.113500	24.734353	19.869368
2983.214227	-2.618600	2.685300	-7.031600	24.722584	19.865323
2984.215096	-2.612300	2.683000	-7.007900	24.736303	19.866884
2985.213183	-2.619800	2.682100	-7.025900	24.724062	19.860514
2986.212485	-2.625100	2.679500	-7.033700	24.745680	19.856311
2987.217422	-2.614200	2.677600	-6.999600	24.724459	19.858321
2988.215954	-2.609500	2.674700	-6.979600	24.741180	19.891773
2989.219270	-2.615100	2.672600	-6.989000	24.737494	19.865489
2990.215992	-2.617100	2.670800	-6.989700	24.745107	19.857586
2991.219534	-2.590900	2.668800	-6.914100	24.744160	19.848490
2992.215972	-2.613000	2.666300	-6.966600	24.724783	19.853093
2993.218489	-2.614000	2.664800	-6.965600	24.749742	19.847063
2994.214220	-2.609600	2.661500	-6.944900	24.753351	19.868828
2995.217023	-2.610500	2.658400	-6.939200	24.752852	19.836489
2996.214945	-2.580800	2.656600	-6.855300	24.755225	19.834799
2997.213784	-2.594400	2.654300	-6.885800	24.754119	19.845536
2998.215198	-2.614200	2.649900	-6.927000	24.755042	19.848314
2999.213529	-2.602900	2.648700	-6.894100	24.762968	19.855534
3000.215085	-2.622000	2.646700	-6.939300	24.765761	19.858710
3001.215886	-2.619600	2.643900	-6.925800	24.787457	19.840148
3002.216545	-2.581000	2.640200	-6.813800	24.771636	19.864240
3003.213412	-2.601700	2.638400	-6.863900	24.778325	19.865405
3004.216918	-2.607700	2.634500	-6.869500	24.780801	19.871594
3005.217953	-2.586600	2.631400	-6.806300	24.778327	19.862815
3006.211863	-2.611200	2.630400	-6.868100	24.788439	19.856312
3007.218559	-2.620500	2.626500	-6.882400	24.802076	19.858163
3008.216376	-2.610100	2.623000	-6.845700	24.789628	19.865281
3009.217158	-2.580400	2.621800	-6.765200	24.795867	19.863032
3010.214838	-2.608200	2.618500	-6.829200	24.797422	19.865335
3011.214514	-2.642300	2.614200	-6.906700	24.803899	19.870730
3012.214054	-2.578200	2.612000	-6.734000	24.819513	19.867903
3013.214836	-2.629500	2.608700	-6.859200	24.799532	19.846353
3014.214212	-2.556000	2.605700	-6.659900	24.812539	19.860157
3015.214941	-2.591400	2.603500	-6.746700	24.831311	19.869387
3016.215429	-2.601700	2.600900	-6.766200	24.811962	19.869943
3017.216497	-2.598700	2.597700	-6.750200	24.820494	19.868147
3018.214179	-2.617400	2.593600	-6.788300	24.819258	19.856911
3019.216331	-2.566800	2.591600	-6.651600	24.834529	19.882614
3020.213633	-2.644800	2.587800	-6.843600	24.834424	19.869922
3021.215628	-2.594600	2.585300	-6.707600	24.830371	19.876957
3022.218143	-2.599500	2.580500	-6.707500	24.828556	19.868101
3023.213917	-2.588000	2.577600	-6.670200	24.832322	19.872994
3024.217963	-2.609700	2.575200	-6.720300	24.846724	19.874502
3025.218367	-2.626900	2.570700	-6.752500	24.841013	19.879502
3026.214743	-2.579100	2.567200	-6.620700	24.858547	19.870459
3027.217485	-2.615200	2.561800	-6.699300	24.851650	19.872787
3028.214569	-2.572100	2.558600	-6.580500	24.866158	19.867738
3029.215393	-2.575600	2.556100	-6.583200	24.865817	19.877391
3030.213627	-2.626300	2.550600	-6.698100	24.873399	19.875752
3031.214464	-2.586900	2.547300	-6.589400	24.860212	19.867319
3032.214918	-2.618600	2.542400	-6.657500	24.880696	19.881970
3033.213768	-2.623300	2.538900	-6.660000	24.879460	19.894427
3034.216955	-2.589900	2.534100	-6.562300	24.887885	19.880307
3035.218683	-2.628700	2.528900	-6.647700	24.881676	19.878512
3036.216481	-2.580700	2.524300	-6.514000	24.900182	19.894139
3037.213994	-2.600000	2.521000	-6.554400	24.894234	19.877059
3038.216445	-2.622600	2.516000	-6.598300	24.903845	19.867833
3039.219293	-2.604100	2.510300	-6.536300	24.914851	19.898878
3040.217639	-2.611400	2.504800	-6.540600	24.925515	19.884787
3041.217451	-2.629600	2.500000	-6.573900	24.921542	19.877095
