LabVIEW Measurement	
Writer_Version	2
Reader_Version	2
Separator	Tab
Decimal_Separator	.
Multi_Headings	No
X_Columns	One
Time_Pref	Absolute
Operator	admin
Description	Clolumns are: time, Current, Voltage, Power, Battery Temp, and Chamber Temp
Date	2024/08/16
Time	13:07:17.8513970375061035156
***End_of_Header***	
	
Channels	6						
Samples	1	1	1	1	1	1	
Date	2024/09/14	2024/09/14	2024/09/14	2024/09/14	2024/09/14	2024/09/14	
Time	00:42:51.859401702880859375	00:42:51.8673954010009765625	00:42:51.8774023056030273437	00:42:51.8400673866271972656	00:42:51.8400673866271972656	00:42:51.8400673866271972656	
X_Dimension	Time	Time	Time	Time	Time	Time	
X0	0.0000000000000000E+0	0.0000000000000000E+0	0.0000000000000000E+0	0.0000000000000000E+0	0.0000000000000000E+0	0.0000000000000000E+0	
Delta_X	1.000000	1.000000	1.000000	1.000000	1.000000	1.000000	
***End_of_Header***							
X_Value	Untitled	Untitled 1	Untitled 2	Untitled 3	Untitled 4	Untitled 5	Comment
0.000000	-0.005661	4.082900	-0.023058	20.804713	0.000460	20.783376
1.004433	-3.032400	3.915700	-11.873000	20.766532	0.000459	20.783602
1.999353	-3.006800	3.908900	-11.752000	20.792611	0.000458	20.795930
3.000216	-3.014100	3.904700	-11.769000	20.785123	0.000457	20.795081
4.003842	-3.007900	3.901500	-11.735000	20.789542	0.000459	20.793809
4.997313	-3.007100	3.897600	-11.719000	20.797803	0.000457	20.796380
6.000729	-3.002400	3.897700	-11.701000	20.800897	0.000456	20.780982
7.005717	-2.987000	3.895100	-11.634000	20.811129	0.000454	20.802594
7.998594	-3.000500	3.891700	-11.676000	20.799724	0.000456	20.787870
9.000546	-2.997500	3.890100	-11.660000	20.806987	0.000454	20.785176
10.004365	-3.000600	3.888000	-11.665000	20.820787	0.000454	20.791390
11.004632	-3.010500	3.887300	-11.702000	20.847865	0.000455	20.772949
12.003805	-3.011500	3.885400	-11.700000	20.832069	0.000451	20.801724
13.004256	-2.999700	3.885100	-11.653000	20.849013	0.000451	20.759399
14.003231	-3.013800	3.882500	-11.699000	20.831246	0.000451	20.781935
15.005957	-2.998000	3.883000	-11.640000	20.863887	0.000451	20.782334
16.010099	-3.012300	3.881400	-11.691000	20.877613	0.000451	20.787527
17.003992	-2.995200	3.881100	-11.624000	20.871723	0.000452	20.799654
18.008996	-2.984100	3.879100	-11.575000	20.888891	0.000449	20.776520
19.009233	-3.003800	3.880400	-11.656000	20.910027	0.000450	20.791968
20.005556	-3.022400	3.878000	-11.720000	20.882704	0.000448	20.745202
21.006338	-2.982400	3.876900	-11.561000	20.906907	0.000450	20.784581
22.008826	-2.999900	3.877500	-11.631000	20.888667	0.000449	20.768710
23.006606	-3.006200	3.875800	-11.651000	20.930140	0.000449	20.786005
24.008483	-3.012800	3.874400	-11.672000	20.946384	0.000447	20.772379
25.010251	-2.984000	3.875600	-11.563000	20.937003	0.000447	20.772480
26.005792	-3.003600	3.873600	-11.633000	20.955093	0.000447	20.766864
27.007010	-3.012700	3.873800	-11.670000	20.966421	0.000448	20.785781
28.007830	-2.984200	3.873600	-11.559000	20.961780	0.000446	20.772604
29.005923	-3.008300	3.871300	-11.646000	20.964725	0.000445	20.756583
30.008096	-2.993500	3.870900	-11.586000	20.978099	0.000446	20.784184
31.013399	-3.008500	3.871400	-11.645000	20.977451	0.000445	20.789700
32.008718	-3.025600	3.870800	-11.711000	20.995340	0.000443	20.787204
33.010656	-3.008300	3.871000	-11.644000	21.013855	0.000445	20.788178
34.012843	-3.007200	3.869800	-11.636000	21.013978	0.000446	20.771705
35.010351	-2.992500	3.870100	-11.579000	21.004697	0.000445	20.758155
36.012581	-2.985300	3.869400	-11.550000	21.035337	0.000444	20.763671
37.012464	-3.006300	3.867600	-11.626000	21.051929	0.000443	20.758929
38.012384	-3.019000	3.867000	-11.673000	21.053252	0.000444	20.775426
39.013978	-2.990700	3.867800	-11.567000	21.057245	0.000443	20.755237
40.015315	-2.984100	3.868000	-11.542000	21.076606	0.000445	20.765594
41.012357	-2.981900	3.867600	-11.532000	21.070317	0.000445	20.759778
42.012535	-3.003500	3.867400	-11.615000	21.081419	0.000445	20.762822
43.013453	-3.014300	3.867800	-11.658000	21.100007	0.000443	20.752017
44.011960	-3.007500	3.866700	-11.628000	21.110186	0.000443	20.763147
45.015468	-3.002700	3.866400	-11.608000	21.106045	0.000443	20.766592
46.014792	-3.006600	3.866400	-11.624000	21.132190	0.000443	20.775674
47.012254	-2.986800	3.866800	-11.549000	21.128049	0.000443	20.773904
48.014522	-2.981900	3.864900	-11.524000	21.136532	0.000441	20.758681
49.016859	-2.970700	3.866500	-11.485000	21.136109	0.000444	20.762051
50.012186	-2.981600	3.864600	-11.522000	21.166144	0.000443	20.745154
51.015190	-3.003400	3.864700	-11.606000	21.174875	0.000441	20.767639
52.015198	-2.997200	3.865500	-11.585000	21.167268	0.000442	20.764296
53.012516	-2.992200	3.864300	-11.562000	21.178019	0.000441	20.760826
54.015150	-2.993000	3.864800	-11.565000	21.201270	0.000443	20.772705
55.023269	-3.011200	3.863900	-11.633000	21.205862	0.000441	20.772083
56.013114	-2.985300	3.864100	-11.535000	21.218907	0.000441	20.756209
57.014572	-3.006200	3.863700	-11.614000	21.212347	0.000442	20.736844
58.030632	-2.990900	3.863200	-11.554000	21.230633	0.000442	20.753241
59.013439	-3.016000	3.862500	-11.649000	21.234349	0.000441	20.745578
60.014550	-3.013400	3.860300	-11.632000	21.253208	0.000440	20.754962
61.015510	-3.001300	3.861400	-11.588000	21.258298	0.000441	20.755786
62.015038	-2.993300	3.862500	-11.560000	21.261069	0.000441	20.761877
63.017929	-2.988900	3.861100	-11.540000	21.270099	0.000443	20.733926
64.016225	-3.004500	3.861600	-11.601000	21.280824	0.000441	20.758881
65.017982	-3.000900	3.860400	-11.583000	21.285514	0.000442	20.755512
66.018814	-2.998300	3.861900	-11.577000	21.298261	0.000442	20.738392
67.017985	-2.993700	3.860100	-11.555000	21.297762	0.000442	20.750222
68.017685	-3.007400	3.859600	-11.606000	21.303526	0.000441	20.743185
69.014400	-2.988100	3.861500	-11.537000	21.323206	0.000440	20.728260
70.024123	-3.006500	3.860100	-11.605000	21.334531	0.000442	20.723469
71.018096	-2.991800	3.860300	-11.548000	21.350445	0.000441	20.761204
72.018194	-2.996500	3.862500	-11.573000	21.355733	0.000443	20.743260
73.019197	-2.983200	3.860700	-11.516000	21.352815	0.000445	20.757411
74.020350	-2.993400	3.858700	-11.549000	21.380226	0.000444	20.734100
75.019072	-2.967900	3.859800	-11.454000	21.374466	0.000444	20.732130
76.019971	-3.007500	3.858400	-11.603000	21.378307	0.000445	20.753044
77.017567	-2.983900	3.859900	-11.516000	21.378806	0.000444	20.743585
78.019581	-3.037000	3.858300	-11.717000	21.400929	0.000443	20.740115
79.019766	-3.013900	3.857200	-11.624000	21.401103	0.000443	20.739341
80.021327	-2.994500	3.858800	-11.554000	21.414971	0.000445	20.751319
81.019604	-2.996700	3.857100	-11.558000	21.406366	0.000443	20.744606
82.021379	-3.006200	3.858100	-11.598000	21.424026	0.000444	20.749000
83.022553	-2.980300	3.858200	-11.497000	21.462060	0.000443	20.768089
84.021656	-2.992300	3.858400	-11.544000	21.458270	0.000443	20.720199
85.023860	-3.011900	3.857700	-11.618000	21.475005	0.000445	20.743583
86.023429	-3.012800	3.858200	-11.623000	21.476851	0.000445	20.744008
87.022965	-3.004200	3.856700	-11.585000	21.486353	0.000445	20.741662
88.021765	-3.012000	3.855700	-11.612000	21.485230	0.000445	20.756660
89.022130	-2.982200	3.857900	-11.504000	21.512515	0.000444	20.751719
90.022563	-3.000700	3.857100	-11.573000	21.497027	0.000444	20.753765
91.023184	-2.997600	3.856000	-11.558000	21.496952	0.000447	20.760329
92.024739	-2.998100	3.855900	-11.559000	21.511566	0.000445	20.755985
93.022327	-3.003000	3.856200	-11.580000	21.542244	0.000444	20.736895
94.022822	-3.017400	3.856000	-11.633000	21.562369	0.000446	20.758457
95.024011	-3.029800	3.855000	-11.679000	21.553640	0.000446	20.736444
96.023101	-3.005600	3.856300	-11.590000	21.577032	0.000447	20.746102
97.023695	-3.008600	3.855300	-11.598000	21.566158	0.000446	20.730953
98.025885	-2.990200	3.856000	-11.529000	21.578826	0.000444	20.748846
99.024590	-2.983600	3.856900	-11.507000	21.570945	0.000446	20.729105
100.024126	-2.990900	3.855000	-11.527000	21.573789	0.000447	20.727684
101.027828	-2.985400	3.854900	-11.506000	21.587204	0.000448	20.739212
102.027271	-3.004800	3.855200	-11.584000	21.581220	0.000446	20.732749
103.023743	-3.005600	3.852800	-11.579000	21.587951	0.000446	20.713879
104.027833	-3.000800	3.855400	-11.568000	21.629475	0.000446	20.742158
105.026745	-3.009600	3.852800	-11.595000	21.619499	0.000447	20.729803
106.028797	-2.991300	3.853900	-11.527000	21.624012	0.000446	20.752812
107.030327	-2.978300	3.853300	-11.476000	21.633465	0.000448	20.733347
108.027347	-2.982200	3.854000	-11.493000	21.648401	0.000447	20.714155
109.027442	-2.972200	3.854600	-11.456000	21.646581	0.000446	20.728455
110.032054	-3.013300	3.853100	-11.610000	21.652392	0.000448	20.726210
111.030231	-2.994700	3.853600	-11.539000	21.657703	0.000450	20.723464
112.033366	-3.014400	3.851900	-11.610000	21.689471	0.000448	20.724910
113.032457	-3.008200	3.852100	-11.587000	21.668400	0.000448	20.740808
114.031171	-2.999600	3.852000	-11.553000	21.689772	0.000448	20.729005
115.034554	-2.975700	3.853500	-11.466000	21.701416	0.000449	20.733072
116.039218	-2.999700	3.852600	-11.556000	21.727699	0.000449	20.725711
117.033433	-3.007400	3.851800	-11.583000	21.725728	0.000451	20.715202
118.035620	-3.004300	3.851400	-11.569000	21.731388	0.000451	20.744103
119.038903	-3.007900	3.852200	-11.586000	21.731687	0.000451	20.724011
120.034426	-3.002400	3.851000	-11.561000	21.751461	0.000452	20.734319
121.034090	-3.012300	3.850600	-11.599000	21.737871	0.000453	20.738736
122.036702	-3.000900	3.850800	-11.555000	21.768243	0.000452	20.716026
123.035091	-2.999500	3.851600	-11.552000	21.765649	0.000452	20.730501
124.034823	-3.001400	3.850600	-11.556000	21.780285	0.000450	20.725709
125.036346	-3.004300	3.850600	-11.567000	21.807913	0.000452	20.726334
126.034014	-2.977400	3.851200	-11.466000	21.818857	0.000453	20.724960
127.033624	-3.000300	3.850900	-11.552000	21.813397	0.000450	20.696734
128.037318	-3.012900	3.850400	-11.600000	21.811080	0.000454	20.727607
129.033988	-3.016700	3.850300	-11.614000	21.840450	0.000451	20.699629
130.040854	-3.005000	3.849600	-11.567000	21.839477	0.000453	20.719994
131.036966	-3.017600	3.849400	-11.614000	21.854786	0.000453	20.722040
132.034986	-2.999500	3.850000	-11.547000	21.850848	0.000455	20.741334
133.039426	-3.036000	3.848000	-11.682000	21.875831	0.000452	20.726510
134.039105	-3.000000	3.848300	-11.544000	21.894879	0.000455	20.698632
135.048295	-3.009700	3.848200	-11.581000	21.875082	0.000454	20.724338
136.038723	-3.002300	3.848000	-11.552000	21.876030	0.000455	20.727657
137.042987	-2.999800	3.848300	-11.543000	21.887498	0.000456	20.732498
138.040107	-2.999200	3.847200	-11.537000	21.883036	0.000455	20.735619
139.043574	-3.005100	3.848600	-11.564000	21.893181	0.000457	20.728703
140.044625	-2.998600	3.847600	-11.537000	21.904378	0.000454	20.729953
141.040961	-2.989100	3.847400	-11.499000	21.906471	0.000456	20.718298
142.044495	-3.006100	3.848400	-11.568000	21.914898	0.000457	20.721043
143.041384	-2.998300	3.847700	-11.535000	21.937087	0.000456	20.727133
144.040523	-2.993200	3.847800	-11.517000	21.948878	0.000456	20.719021
145.043575	-3.002400	3.847000	-11.549000	21.943967	0.000457	20.743504
146.042847	-2.992600	3.847700	-11.512000	21.987495	0.000459	20.730652
147.043474	-3.006300	3.846900	-11.564000	21.975478	0.000460	20.716250
148.053864	-2.988000	3.847100	-11.495000	22.010205	0.000460	20.713554
149.044921	-3.001500	3.846100	-11.542000	22.004646	0.000460	20.733122
150.045182	-3.001800	3.847800	-11.549000	22.002454	0.000458	20.723340
151.044506	-2.990700	3.846600	-11.503000	22.005370	0.000459	20.739062
152.045704	-2.994100	3.846600	-11.516000	22.013671	0.000459	20.734569
153.042451	-2.975400	3.846600	-11.444000	22.016539	0.000460	20.727483
154.043873	-2.992200	3.845200	-11.505000	22.035210	0.000462	20.729579
155.042788	-2.979000	3.846300	-11.457000	22.042215	0.000459	20.743230
156.042886	-2.953800	3.846700	-11.360000	22.061161	0.000463	20.722841
157.047048	-2.999300	3.844700	-11.530000	22.077413	0.000462	20.728680
158.043984	-2.989000	3.845300	-11.493000	22.079757	0.000461	20.740984
159.043475	-2.990200	3.844600	-11.495000	22.081452	0.000461	20.730353
160.044853	-3.002600	3.843300	-11.538000	22.087833	0.000459	20.730577
161.047909	-2.993800	3.845800	-11.513000	22.090178	0.000463	20.716328
162.046549	-3.021300	3.844000	-11.613000	22.114407	0.000463	20.732051
163.047258	-3.022000	3.843200	-11.614000	22.094888	0.000462	20.734795
164.045761	-2.990000	3.843600	-11.491000	22.076242	0.000461	20.721344
165.050472	-2.998700	3.844200	-11.527000	22.127668	0.000463	20.733947
166.049277	-3.001700	3.843200	-11.534000	22.084943	0.000464	20.727209
167.054902	-3.013200	3.843700	-11.581000	22.118868	0.000462	20.719447
168.048819	-2.993500	3.844100	-11.506000	22.119293	0.000464	20.731727
169.047837	-2.993500	3.842400	-11.501000	22.137764	0.000464	20.738840
170.047692	-2.992900	3.843100	-11.501000	22.154789	0.000465	20.716529
171.048922	-2.993200	3.842800	-11.501000	22.161417	0.000466	20.747349
172.055276	-3.014100	3.841900	-11.579000	22.158054	0.000464	20.731179
173.050376	-2.999800	3.841500	-11.523000	22.197161	0.000464	20.739513
174.049845	-3.011700	3.841600	-11.569000	22.202768	0.000465	20.735644
175.049258	-3.005700	3.842000	-11.546000	22.213188	0.000465	20.763147
176.052039	-2.976700	3.841200	-11.433000	22.209425	0.000468	20.741360
177.051295	-2.999200	3.841200	-11.518000	22.172162	0.000466	20.750520
178.051933	-2.985200	3.842000	-11.468000	22.184001	0.000466	20.725862
179.052745	-2.984300	3.840000	-11.458000	22.193172	0.000468	20.751641
180.052938	-2.984900	3.841600	-11.466000	22.206285	0.000469	20.738217
181.052803	-2.978700	3.840900	-11.440000	22.240455	0.000470	20.744928
182.052144	-2.999300	3.841300	-11.520000	22.254338	0.000467	20.736070
183.050441	-2.979200	3.841900	-11.445000	22.260220	0.000468	20.751442
184.051356	-2.989500	3.840100	-11.479000	22.270538	0.000469	20.741385
185.051099	-3.008500	3.839400	-11.549000	22.237090	0.000469	20.744878
186.053363	-2.999300	3.840300	-11.517000	22.247434	0.000469	20.746700
187.051936	-2.981000	3.840200	-11.447000	22.265454	0.000470	20.738190
188.052527	-2.981200	3.841200	-11.451000	22.262513	0.000468	20.727659
189.052024	-3.020600	3.838900	-11.595000	22.256306	0.000470	20.742307
190.051325	-3.007800	3.838900	-11.546000	22.297479	0.000472	20.725212
191.053149	-3.029100	3.837800	-11.624000	22.308246	0.000470	20.741209
192.052247	-3.013300	3.838800	-11.566000	22.322102	0.000471	20.745127
193.055525	-3.000900	3.839000	-11.519000	22.356220	0.000471	20.735194
194.057906	-2.993400	3.839400	-11.491000	22.369729	0.000473	20.741135
195.052885	-2.986900	3.838800	-11.466000	22.369030	0.000472	20.754186
196.054964	-2.988900	3.837200	-11.467000	22.369528	0.000471	20.748047
197.057854	-2.996100	3.836800	-11.495000	22.364295	0.000473	20.741858
198.057220	-3.002800	3.837100	-11.520000	22.358987	0.000472	20.739861
199.061511	-3.000100	3.837300	-11.511000	22.365542	0.000474	20.740261
200.058238	-2.990600	3.836900	-11.474000	22.349765	0.000473	20.756232
201.058600	-2.988900	3.837800	-11.470000	22.402249	0.000472	20.759002
202.057261	-2.993400	3.837200	-11.486000	22.412193	0.000475	20.751890
203.057505	-2.975900	3.836700	-11.417000	22.445685	0.000474	20.763146
204.055737	-3.001300	3.835500	-11.511000	22.423831	0.000477	20.754536
205.057173	-2.997000	3.836800	-11.498000	22.421363	0.000475	20.741158
206.057975	-2.979300	3.838000	-11.433000	22.430311	0.000475	20.765293
207.056314	-2.974000	3.836500	-11.409000	22.447554	0.000476	20.763595
208.057871	-2.981100	3.835700	-11.433000	22.448924	0.000474	20.735567
209.060132	-2.983200	3.835800	-11.442000	22.475762	0.000474	20.763394
210.059054	-2.993100	3.835200	-11.478000	22.471751	0.000477	20.740410
211.061849	-2.970600	3.835200	-11.392000	22.467763	0.000477	20.761073
212.060080	-2.974900	3.835400	-11.409000	22.470181	0.000477	20.775824
213.057866	-2.976900	3.834700	-11.414000	22.496246	0.000477	20.763046
214.059087	-2.976700	3.834800	-11.414000	22.512069	0.000479	20.781737
215.060987	-2.988300	3.833700	-11.455000	22.537287	0.000480	20.759104
216.059781	-2.981200	3.834700	-11.431000	22.549844	0.000480	20.758404
217.061145	-2.990100	3.833200	-11.461000	22.559389	0.000478	20.767489
218.061994	-2.974800	3.835100	-11.407000	22.543193	0.000479	20.765493
219.061799	-2.993300	3.832800	-11.471000	22.537586	0.000480	20.773629
220.062581	-2.974800	3.834000	-11.404000	22.535967	0.000482	20.771059
221.062354	-2.974300	3.833300	-11.400000	22.529414	0.000482	20.777772
222.062381	-2.988600	3.832900	-11.454000	22.573540	0.000481	20.763171
223.063341	-2.988300	3.832200	-11.451000	22.571873	0.000483	20.755811
224.061565	-2.983800	3.831900	-11.433000	22.586374	0.000481	20.780292
225.060082	-3.013200	3.831800	-11.545000	22.590883	0.000483	20.782911
226.060301	-2.986300	3.834100	-11.449000	22.593525	0.000482	20.763746
227.061861	-3.023900	3.830400	-11.582000	22.597736	0.000483	20.775550
228.063193	-2.992800	3.830400	-11.463000	22.637003	0.000483	20.768887
229.061767	-2.995300	3.831000	-11.474000	22.617544	0.000482	20.784959
230.065413	-2.997100	3.830500	-11.479000	22.627859	0.000485	20.786282
231.065169	-2.972400	3.831800	-11.388000	22.633241	0.000485	20.774128
232.063078	-2.986500	3.831400	-11.442000	22.610071	0.000484	20.763722
233.064651	-2.980600	3.831000	-11.418000	22.640914	0.000486	20.779917
234.063473	-3.023900	3.827600	-11.573000	22.684020	0.000484	20.794170
235.062531	-3.022600	3.828900	-11.572000	22.681302	0.000486	20.785758
236.062467	-3.029400	3.827200	-11.593000	22.710053	0.000485	20.786108
237.063334	-2.983900	3.831000	-11.430000	22.732500	0.000486	20.768288
238.064461	-2.984500	3.828600	-11.426000	22.735638	0.000486	20.777122
239.065364	-3.007700	3.829700	-11.516000	22.704173	0.000486	20.764096
240.064357	-2.995000	3.829100	-11.467000	22.716331	0.000487	20.771059
241.068067	-3.004400	3.827400	-11.498000	22.711748	0.000488	20.790650
242.065890	-2.992000	3.828000	-11.453000	22.715783	0.000488	20.776674
243.064801	-3.033200	3.826400	-11.605000	22.733845	0.000488	20.778171
244.065609	-3.005400	3.826700	-11.500000	22.736063	0.000489	20.791773
245.067583	-2.995500	3.827000	-11.463000	22.739451	0.000487	20.768139
246.067688	-2.978600	3.829000	-11.404000	22.759257	0.000489	20.797937
247.067798	-2.982200	3.828400	-11.416000	22.738802	0.000487	20.774602
248.066192	-2.991700	3.826700	-11.447000	22.760977	0.000489	20.796340
249.068341	-2.994700	3.826300	-11.458000	22.766458	0.000488	20.794244
250.067278	-2.962000	3.827600	-11.337000	22.759707	0.000489	20.798862
251.067984	-2.977700	3.827700	-11.397000	22.749095	0.000490	20.779222
252.067941	-2.999600	3.827200	-11.478000	22.759184	0.000492	20.787906
253.067666	-2.968700	3.825700	-11.356000	22.790125	0.000490	20.798986
254.069654	-2.996800	3.825500	-11.463000	22.805196	0.000492	20.784212
255.072628	-2.973900	3.826800	-11.379000	22.805819	0.000492	20.811388
256.069840	-2.997800	3.824600	-11.464000	22.848991	0.000492	20.802007
257.074710	-2.980100	3.825500	-11.398000	22.851856	0.000493	20.808195
258.072707	-2.988800	3.824500	-11.430000	22.826870	0.000492	20.783165
259.070683	-3.020100	3.824800	-11.551000	22.849789	0.000494	20.799961
260.076547	-3.006700	3.824800	-11.499000	22.840870	0.000493	20.814260
261.075554	-2.973200	3.823700	-11.367000	22.849590	0.000495	20.793124
262.071345	-3.026200	3.823000	-11.568000	22.848941	0.000494	20.780620
263.074182	-2.976000	3.822800	-11.375000	22.837582	0.000495	20.809543
264.074718	-2.993000	3.823300	-11.442000	22.855493	0.000495	20.780545
265.073299	-3.019100	3.821800	-11.537000	22.887253	0.000496	20.801932
266.076005	-3.009700	3.822200	-11.503000	22.879057	0.000497	20.810316
267.075296	-3.032200	3.820300	-11.583000	22.882570	0.000496	20.806723
268.075365	-3.021500	3.821800	-11.546000	22.893629	0.000496	20.814958
269.076704	-3.003700	3.823500	-11.484000	22.900156	0.000496	20.791625
270.078032	-3.023300	3.821300	-11.552000	22.881198	0.000495	20.795392
271.072403	-3.023400	3.821300	-11.553000	22.881048	0.000498	20.818474
272.076056	-3.007600	3.822300	-11.495000	22.910391	0.000497	20.790973
273.077932	-2.977000	3.820700	-11.373000	22.924465	0.000497	20.811712
274.077520	-2.956000	3.822100	-11.297000	22.938786	0.000499	20.805671
275.081922	-2.983600	3.821700	-11.402000	22.943070	0.000497	20.796687
276.079594	-2.973100	3.821700	-11.362000	22.941874	0.000499	20.814454
277.078453	-2.956800	3.821400	-11.298000	22.929044	0.000499	20.802549
278.078096	-2.986100	3.821500	-11.411000	22.942047	0.000498	20.828852
279.079504	-3.007700	3.821300	-11.493000	22.941199	0.000499	20.814726
280.075857	-3.022200	3.818300	-11.539000	22.951187	0.000501	20.797706
281.081840	-2.999000	3.818900	-11.452000	22.942294	0.000499	20.799703
282.081190	-2.997300	3.818500	-11.444000	22.954947	0.000498	20.816172
283.082378	-2.980900	3.819500	-11.384000	22.954821	0.000499	20.815098
284.085376	-2.994800	3.818300	-11.434000	22.969641	0.000502	20.816195
285.086258	-3.005800	3.819200	-11.479000	22.978209	0.000500	20.833314
286.082098	-2.998000	3.818800	-11.448000	23.010139	0.000500	20.823107
287.088403	-3.016400	3.817400	-11.514000	22.990712	0.000501	20.825927
288.085308	-2.992100	3.819200	-11.427000	23.023190	0.000502	20.831915
289.081014	-2.994800	3.816700	-11.430000	23.052728	0.000502	20.836855
290.085742	-2.987700	3.817000	-11.403000	23.055193	0.000502	20.831265
291.081378	-2.988200	3.817700	-11.407000	23.064433	0.000502	20.808281
292.085639	-2.997600	3.816600	-11.439000	23.046901	0.000501	20.823430
293.085414	-2.990700	3.817700	-11.417000	23.000572	0.000504	20.829642
294.087292	-2.985300	3.816600	-11.393000	23.039576	0.000503	20.830315
295.089293	-2.997900	3.816200	-11.440000	23.031430	0.000504	20.831163
296.086418	-3.000700	3.816600	-11.451000	23.036961	0.000504	20.825799
297.090086	-3.020600	3.814800	-11.522000	23.061119	0.000505	20.825349
298.087142	-3.012600	3.814100	-11.490000	23.080198	0.000504	20.835930
299.088865	-2.994300	3.815700	-11.424000	23.119847	0.000505	20.850055
300.090238	-3.001500	3.813200	-11.445000	23.121165	0.000504	20.814868
301.090405	-3.009000	3.815300	-11.480000	23.134340	0.000505	20.829017
302.089042	-3.004300	3.815600	-11.463000	23.139196	0.000508	20.823926
303.093777	-3.005100	3.814100	-11.461000	23.158969	0.000507	20.846584
304.093070	-2.974900	3.815500	-11.350000	23.149704	0.000508	20.840145
305.094009	-2.985200	3.814400	-11.385000	23.150974	0.000508	20.817237
306.095370	-3.000600	3.812900	-11.440000	23.149206	0.000506	20.828741
307.095993	-2.967800	3.814300	-11.320000	23.156129	0.000507	20.857489
308.095099	-2.999400	3.813600	-11.438000	23.147214	0.000508	20.849977
309.098063	-3.009300	3.812200	-11.470000	23.179788	0.000507	20.849903
310.097906	-2.992300	3.811900	-11.406000	23.186037	0.000509	20.839096
311.096615	-3.015700	3.812500	-11.497000	23.198562	0.000509	20.848328
312.099784	-2.977500	3.812800	-11.350000	23.203942	0.000507	20.831909
313.096625	-2.995800	3.812400	-11.421000	23.193531	0.000509	20.841390
314.097160	-3.013600	3.811800	-11.486000	23.193581	0.000509	20.847129
315.099387	-3.022600	3.811000	-11.518000	23.203592	0.000509	20.840566
316.098218	-3.011500	3.811800	-11.478000	23.206854	0.000509	20.867542
317.098744	-3.003800	3.810700	-11.446000	23.231158	0.000509	20.857285
318.099013	-3.017100	3.810000	-11.494000	23.226104	0.000508	20.868341
319.099065	-3.012100	3.811100	-11.479000	23.234222	0.000510	20.848028
320.098001	-3.011200	3.809900	-11.470000	23.223067	0.000511	20.859608
321.100898	-2.990100	3.810800	-11.393000	23.210090	0.000509	20.859406
322.102285	-2.979500	3.811000	-11.354000	23.193680	0.000512	20.850548
323.102854	-3.015500	3.810000	-11.487000	23.237909	0.000512	20.865947
324.100861	-2.998200	3.808800	-11.417000	23.255736	0.000509	20.850148
325.105455	-3.009400	3.809600	-11.464000	23.254168	0.000512	20.854266
326.100146	-3.012300	3.808600	-11.472000	23.258277	0.000511	20.853643
327.104262	-3.006500	3.808400	-11.449000	23.229217	0.000512	20.858185
328.104824	-3.000100	3.808800	-11.426000	23.232129	0.000511	20.867741
329.103869	-3.023600	3.808200	-11.514000	23.243958	0.000511	20.855888
330.103653	-3.005300	3.809200	-11.447000	23.233127	0.000512	20.849775
331.104954	-3.003400	3.808400	-11.437000	23.290026	0.000515	20.856063
332.101775	-3.015100	3.808600	-11.481000	23.280813	0.000512	20.843038
333.100645	-3.004100	3.807200	-11.436000	23.317367	0.000515	20.836050
334.104187	-3.026300	3.807000	-11.520000	23.347969	0.000515	20.867194
335.100525	-3.020200	3.806300	-11.495000	23.369009	0.000517	20.847978
336.102126	-3.002000	3.806800	-11.427000	23.344782	0.000515	20.863525
337.103471	-3.004200	3.805000	-11.430000	23.340423	0.000512	20.889975
338.102998	-3.004100	3.806800	-11.434000	23.326207	0.000514	20.840168
339.102440	-3.005600	3.805800	-11.438000	23.378642	0.000515	20.860478
340.104405	-3.009900	3.804900	-11.452000	23.401252	0.000516	20.858958
341.102479	-3.012900	3.805600	-11.465000	23.415095	0.000516	20.881840
342.102311	-3.011200	3.804500	-11.455000	23.416340	0.000516	20.865072
343.104246	-2.994600	3.804700	-11.393000	23.396495	0.000516	20.868414
344.101831	-3.018600	3.803400	-11.480000	23.396445	0.000515	20.875002
345.102702	-2.998500	3.805300	-11.409000	23.399606	0.000516	20.880541
346.105194	-2.993600	3.805300	-11.390000	23.418256	0.000518	20.864147
347.105875	-3.004600	3.804500	-11.430000	23.442456	0.000519	20.879868
348.102588	-3.024200	3.802400	-11.498000	23.442805	0.000519	20.866468
349.107075	-3.007800	3.803200	-11.438000	23.429833	0.000519	20.849673
350.104208	-3.029200	3.803300	-11.519000	23.452414	0.000518	20.867090
351.105990	-2.995600	3.802200	-11.388000	23.455452	0.000517	20.871557
352.106900	-2.980600	3.803200	-11.335000	23.445617	0.000519	20.874501
353.105118	-3.023700	3.802900	-11.498000	23.440240	0.000519	20.859629
354.108173	-3.010200	3.802900	-11.446000	23.456024	0.000518	20.866915
355.107138	-2.994800	3.801700	-11.384000	23.468474	0.000517	20.854265
356.104842	-2.998900	3.801800	-11.400000	23.443875	0.000519	20.885557
357.105713	-2.994400	3.801700	-11.383000	23.428936	0.000520	20.878170
358.111777	-2.983300	3.801200	-11.339000	23.467551	0.000518	20.852866
359.107609	-3.003100	3.800800	-11.414000	23.469468	0.000520	20.876597
360.110330	-3.016100	3.801000	-11.463000	23.506937	0.000521	20.862947
361.110869	-3.016000	3.799500	-11.458000	23.509849	0.000519	20.851168
362.106544	-2.974400	3.799200	-11.300000	23.520556	0.000523	20.877547
363.110377	-2.988500	3.800500	-11.356000	23.524961	0.000519	20.863471
364.109806	-2.979900	3.799800	-11.322000	23.553341	0.000520	20.847350
365.105995	-2.992800	3.799500	-11.370000	23.541915	0.000522	20.865293
366.108987	-2.975000	3.800500	-11.305000	23.532281	0.000521	20.839515
367.109217	-2.956700	3.800900	-11.237000	23.543857	0.000523	20.838317
368.108064	-3.003300	3.798800	-11.407000	23.529193	0.000521	20.847800
369.111152	-2.994800	3.799600	-11.378000	23.519336	0.000521	20.844557
370.116501	-2.962800	3.800200	-11.259000	23.508256	0.000520	20.855261
371.107686	-2.985400	3.798700	-11.340000	23.498050	0.000519	20.861151
372.113064	-3.014100	3.796700	-11.441000	23.505418	0.000523	20.865692
373.117666	-2.977300	3.797800	-11.306000	23.532081	0.000523	20.863021
374.109618	-2.992600	3.796900	-11.362000	23.569175	0.000524	20.833352
375.113181	-2.996000	3.797000	-11.374000	23.567333	0.000523	20.854737
376.115382	-3.014600	3.796600	-11.444000	23.583615	0.000521	20.848774
377.109756	-2.991500	3.797100	-11.358000	23.571464	0.000523	20.851767
378.114091	-3.005300	3.796100	-11.407000	23.604649	0.000524	20.843308
379.113829	-3.007100	3.795600	-11.413000	23.610873	0.000524	20.839590
380.110970	-2.996400	3.796400	-11.375000	23.637782	0.000521	20.827687
381.116989	-3.008300	3.796400	-11.420000	23.650551	0.000524	20.843806
382.115459	-2.979900	3.796400	-11.311000	23.642985	0.000524	20.843333
383.110946	-2.991200	3.794700	-11.350000	23.663570	0.000525	20.847849
384.113064	-2.999000	3.795100	-11.380000	23.641192	0.000524	20.842010
385.113944	-3.004900	3.792900	-11.397000	23.643382	0.000525	20.848473
386.115081	-2.995900	3.793400	-11.364000	23.634493	0.000525	20.846674
387.117771	-3.004400	3.793900	-11.398000	23.628072	0.000526	20.826013
388.114873	-3.004400	3.794200	-11.398000	23.641265	0.000527	20.856782
389.113164	-3.001100	3.795100	-11.389000	23.646121	0.000526	20.846951
390.114481	-3.013400	3.793600	-11.431000	23.646169	0.000524	20.826137
391.115772	-3.011600	3.793200	-11.423000	23.653710	0.000526	20.850292
392.113910	-3.005100	3.793600	-11.399000	23.627025	0.000525	20.825438
393.114626	-2.998600	3.792900	-11.373000	23.621674	0.000526	20.843305
394.116686	-2.979500	3.793500	-11.302000	23.627746	0.000523	20.844652
395.114457	-2.994200	3.792800	-11.355000	23.660954	0.000524	20.824365
396.115207	-3.014900	3.792200	-11.432000	23.690077	0.000528	20.832225
397.117011	-2.996000	3.791200	-11.358000	23.707427	0.000528	20.840610
398.114049	-2.997900	3.791500	-11.365000	23.683630	0.000525	20.823864
399.114853	-3.007400	3.789600	-11.395000	23.651047	0.000526	20.822019
400.115307	-2.995800	3.791700	-11.358000	23.644723	0.000527	20.844128
401.114483	-2.995800	3.790200	-11.354000	23.696424	0.000527	20.809665
402.116453	-3.001900	3.791300	-11.380000	23.679224	0.000527	20.849318
403.118169	-3.014600	3.789900	-11.423000	23.693985	0.000527	20.841832
404.115506	-2.996000	3.790300	-11.354000	23.713574	0.000529	20.836341
405.119069	-3.024500	3.788300	-11.457000	23.718801	0.000526	20.815978
406.119073	-3.000800	3.789200	-11.369000	23.734034	0.000530	20.815603
407.114042	-3.004400	3.788900	-11.383000	23.748372	0.000528	20.815754
408.116230	-3.008200	3.789600	-11.399000	23.774182	0.000531	20.813183
409.117799	-3.010300	3.788300	-11.403000	23.781001	0.000532	20.828555
410.119139	-3.000200	3.787400	-11.362000	23.791430	0.000528	20.830002
411.124191	-2.991400	3.787400	-11.328000	23.763902	0.000528	20.817100
412.125628	-2.998700	3.787800	-11.357000	23.744686	0.000529	20.814430
413.121945	-2.992500	3.788100	-11.334000	23.772714	0.000531	20.822616
414.121521	-2.989100	3.787800	-11.321000	23.800888	0.000528	20.803450
415.122918	-3.018800	3.786300	-11.429000	23.809774	0.000529	20.833221
416.122258	-3.020800	3.785900	-11.435000	23.799918	0.000530	20.819072
417.123312	-2.995400	3.786000	-11.339000	23.796407	0.000532	20.822190
418.126092	-2.994800	3.786900	-11.341000	23.800166	0.000531	20.812682
419.125710	-2.987500	3.786100	-11.310000	23.835383	0.000530	20.816699
420.124734	-3.009400	3.785700	-11.392000	23.849470	0.000530	20.814703
421.126050	-3.005600	3.784900	-11.374000	23.824182	0.000532	20.803573
422.123870	-3.014800	3.786000	-11.413000	23.815794	0.000532	20.826930
423.125559	-3.021200	3.784700	-11.433000	23.826497	0.000531	20.802575
424.125383	-3.020600	3.784000	-11.429000	23.828040	0.000530	20.802699
425.125259	-2.997800	3.782500	-11.338000	23.855492	0.000532	20.819793
426.128989	-2.985800	3.785300	-11.301000	23.822813	0.000531	20.805519
427.130254	-2.991500	3.783500	-11.318000	23.831846	0.000531	20.817421
428.126338	-2.987300	3.783000	-11.299000	23.858727	0.000532	20.798856
429.129339	-2.986700	3.782400	-11.296000	23.864151	0.000531	20.826105
430.129150	-2.984500	3.782900	-11.289000	23.837372	0.000531	20.802573
431.125811	-2.998400	3.783500	-11.344000	23.806459	0.000533	20.816148
432.128689	-3.000100	3.783000	-11.348000	23.804444	0.000532	20.800376
433.128442	-3.001500	3.781500	-11.349000	23.817685	0.000534	20.796109
434.126496	-3.010600	3.782100	-11.385000	23.836026	0.000533	20.805017
435.131251	-2.995100	3.782400	-11.328000	23.844116	0.000532	20.824982
436.128955	-2.994100	3.781400	-11.321000	23.843543	0.000531	20.805915
437.126208	-3.014500	3.780700	-11.396000	23.882169	0.000532	20.815723
438.129061	-3.011100	3.780100	-11.381000	23.904318	0.000532	20.804742
439.127878	-3.013800	3.780900	-11.392000	23.922436	0.000532	20.802996
440.129708	-3.005700	3.779700	-11.360000	23.923331	0.000532	20.792988
441.129515	-3.008300	3.780800	-11.373000	23.912057	0.000532	20.792588
442.128944	-3.014500	3.779100	-11.391000	23.935749	0.000533	20.780784
443.128787	-3.013100	3.781200	-11.392000	23.923953	0.000531	20.805465
444.128243	-3.006000	3.779200	-11.360000	23.940874	0.000533	20.806312
445.128589	-2.999600	3.780500	-11.339000	23.892867	0.000533	20.807958
446.129069	-3.007600	3.778500	-11.363000	23.889059	0.000534	20.824529
447.129755	-3.006600	3.778300	-11.358000	23.911980	0.000534	20.794407
448.129040	-3.024000	3.779200	-11.428000	23.924098	0.000534	20.787119
449.128470	-2.999000	3.778700	-11.331000	23.950303	0.000533	20.793956
450.129475	-2.993200	3.778300	-11.309000	23.985839	0.000534	20.804462
451.135244	-3.000400	3.777900	-11.335000	24.015005	0.000534	20.797201
452.132485	-3.006300	3.776600	-11.353000	24.000146	0.000534	20.789412
453.131469	-2.992400	3.777600	-11.303000	23.992732	0.000534	20.802365
454.131234	-2.995900	3.777800	-11.317000	23.993054	0.000533	20.815491
455.132024	-2.983100	3.778900	-11.272000	23.951122	0.000534	20.807105
456.132305	-3.006000	3.776600	-11.351000	23.947414	0.000535	20.804809
457.132627	-2.997100	3.777200	-11.319000	23.990690	0.000533	20.797947
458.133086	-3.004800	3.775300	-11.342000	23.965105	0.000535	20.813067
459.131609	-3.022700	3.775000	-11.410000	23.951170	0.000535	20.803835
460.133166	-2.998400	3.775500	-11.320000	23.998077	0.000536	20.806303
461.133722	-2.993600	3.776000	-11.303000	24.021443	0.000535	20.811718
462.133097	-2.986100	3.775200	-11.272000	24.000765	0.000535	20.799990
463.136862	-2.987700	3.774300	-11.275000	23.985184	0.000536	20.791952
464.135142	-2.988400	3.773900	-11.277000	23.993647	0.000537	20.804231
465.134953	-2.982500	3.774300	-11.255000	23.954624	0.000536	20.801609
466.135108	-2.988200	3.774000	-11.276000	23.942106	0.000534	20.796642
467.133978	-2.988300	3.773400	-11.275000	23.960373	0.000535	20.779398
468.135443	-3.001400	3.771800	-11.320000	24.005813	0.000536	20.791776
469.142332	-2.983300	3.773600	-11.257000	24.052694	0.000536	20.812713
470.135737	-3.007900	3.772400	-11.346000	24.056700	0.000536	20.806773
471.135987	-2.998700	3.772900	-11.313000	24.063020	0.000537	20.791300
472.133718	-3.001200	3.772000	-11.319000	24.083872	0.000534	20.790402
473.137228	-2.996100	3.771600	-11.299000	24.096187	0.000535	20.798012
474.139577	-3.004100	3.770700	-11.326000	24.075410	0.000537	20.797088
475.139925	-2.986000	3.771600	-11.261000	24.083274	0.000536	20.784112
476.138924	-2.998500	3.770800	-11.306000	24.056773	0.000533	20.788355
477.137949	-2.993000	3.771800	-11.288000	24.092579	0.000534	20.787280
478.140446	-3.005000	3.771600	-11.332000	24.106935	0.000535	20.786032
479.137362	-2.999000	3.770900	-11.308000	24.124676	0.000534	20.789600
480.138789	-2.981500	3.772000	-11.245000	24.123980	0.000537	20.793643
481.141212	-3.005900	3.770000	-11.332000	24.140549	0.000535	20.801728
482.139202	-3.013300	3.769900	-11.359000	24.145302	0.000536	20.781838
483.137980	-3.001200	3.769400	-11.311000	24.153935	0.000537	20.783385
484.146194	-3.020200	3.768300	-11.380000	24.167942	0.000536	20.768984
485.140793	-2.986300	3.769900	-11.257000	24.130696	0.000535	20.779043
486.138841	-2.993900	3.768000	-11.280000	24.141319	0.000535	20.811034
487.139758	-2.981400	3.769600	-11.238000	24.159734	0.000537	20.794416
488.142362	-3.001400	3.768700	-11.310000	24.184439	0.000536	20.780315
489.139044	-3.001700	3.766600	-11.305000	24.150625	0.000537	20.758727
490.139627	-3.008200	3.766300	-11.328000	24.161372	0.000535	20.789896
491.145178	-2.995100	3.768300	-11.286000	24.129078	0.000534	20.770307
492.141962	-2.998700	3.767400	-11.297000	24.115765	0.000536	20.766912
493.142837	-3.017100	3.766300	-11.362000	24.124623	0.000535	20.784332
494.151169	-3.005800	3.766300	-11.320000	24.204667	0.000536	20.766938
495.145355	-3.020500	3.765300	-11.372000	24.171847	0.000536	20.763417
496.143616	-2.995300	3.766700	-11.281000	24.175803	0.000537	20.785877
497.152483	-2.988300	3.765200	-11.250000	24.189090	0.000537	20.775971
498.143730	-2.982700	3.766400	-11.234000	24.185184	0.000535	20.768260
499.143884	-2.985700	3.765400	-11.241000	24.158212	0.000536	20.769182
500.151953	-3.005900	3.765400	-11.318000	24.177123	0.000535	20.795736
501.154610	-3.000700	3.764800	-11.296000	24.177047	0.000535	20.780013
502.148496	-2.990500	3.764200	-11.255000	24.211184	0.000535	20.781537
503.152945	-2.986900	3.764500	-11.243000	24.234818	0.000536	20.772052
504.150749	-2.992700	3.763900	-11.263000	24.256439	0.000536	20.788523
505.150467	-2.992400	3.765300	-11.266000	24.239297	0.000536	20.774174
506.156398	-2.978800	3.764800	-11.214000	24.225414	0.000537	20.772102
507.150876	-2.997500	3.763000	-11.278000	24.188841	0.000537	20.762444
508.150355	-2.981300	3.762600	-11.217000	24.188194	0.000537	20.794513
509.154350	-2.996700	3.763000	-11.275000	24.220439	0.000536	20.782284
510.149290	-2.988300	3.762900	-11.243000	24.198718	0.000536	20.784680
511.149519	-2.984100	3.762000	-11.225000	24.213123	0.000538	20.766412
512.151482	-2.990600	3.762500	-11.251000	24.241363	0.000535	20.776246
513.150185	-2.999600	3.761800	-11.283000	24.266490	0.000540	20.757827
514.153467	-2.997200	3.761000	-11.271000	24.278606	0.000535	20.785154
515.157672	-3.001300	3.760800	-11.286000	24.292064	0.000536	20.752187
516.149146	-2.984300	3.760900	-11.223000	24.284252	0.000538	20.778016
517.152794	-2.977300	3.761700	-11.199000	24.240441	0.000535	20.772476
518.154687	-2.995700	3.760500	-11.264000	24.228947	0.000535	20.758102
519.150947	-3.007500	3.760400	-11.308000	24.251935	0.000535	20.764091
520.154527	-3.002700	3.760400	-11.290000	24.296444	0.000535	20.763218
521.153261	-2.995400	3.759100	-11.259000	24.274874	0.000538	20.768134
522.152713	-2.998800	3.759000	-11.271000	24.255740	0.000538	20.748467
523.153145	-3.003500	3.758900	-11.289000	24.288184	0.000536	20.743078
524.155004	-3.004200	3.758800	-11.291000	24.341720	0.000538	20.768807
525.154507	-3.010200	3.759100	-11.314000	24.332440	0.000538	20.779413
526.156968	-3.015400	3.758000	-11.330000	24.300672	0.000536	20.773624
527.158257	-2.979500	3.758600	-11.198000	24.319977	0.000537	20.753634
528.153279	-3.024300	3.757000	-11.362000	24.286416	0.000536	20.779712
529.154689	-3.008100	3.757000	-11.301000	24.267260	0.000536	20.756229
530.159766	-2.988400	3.756400	-11.225000	24.286118	0.000537	20.765662
531.155150	-3.001700	3.757400	-11.278000	24.290595	0.000537	20.759248
532.162569	-3.020800	3.755800	-11.344000	24.325922	0.000537	20.770504
533.160795	-2.989000	3.756900	-11.229000	24.352940	0.000539	20.762519
534.155209	-2.960100	3.757100	-11.121000	24.341097	0.000536	20.765812
535.156966	-2.993800	3.756900	-11.247000	24.341471	0.000535	20.746271
536.158294	-2.983800	3.755700	-11.205000	24.346371	0.000535	20.766835
537.157278	-3.006300	3.753300	-11.283000	24.347293	0.000537	20.749741
538.163809	-3.001600	3.754200	-11.268000	24.350725	0.000538	20.767884
539.155787	-2.990000	3.755100	-11.226000	24.306966	0.000537	20.766661
540.155883	-3.001100	3.755000	-11.268000	24.314702	0.000535	20.747394
541.155837	-3.019000	3.754200	-11.333000	24.287313	0.000538	20.771603
542.156123	-2.992300	3.754600	-11.235000	24.301294	0.000536	20.745797
543.156889	-2.995800	3.753100	-11.242000	24.308410	0.000538	20.739659
544.156779	-3.023500	3.751800	-11.343000	24.308235	0.000538	20.762244
545.155322	-2.989200	3.753300	-11.218000	24.304925	0.000534	20.741853
546.156613	-3.005100	3.753100	-11.277000	24.317837	0.000535	20.746271
547.160741	-3.007600	3.752200	-11.284000	24.324131	0.000534	20.753533
548.163515	-3.023600	3.751500	-11.342000	24.333783	0.000534	20.732394
549.157045	-3.000300	3.751300	-11.254000	24.337339	0.000538	20.738807
550.156182	-2.970300	3.752300	-11.144000	24.352267	0.000539	20.751412
551.157654	-3.001400	3.751600	-11.259000	24.386672	0.000536	20.751787
552.156121	-2.997800	3.750500	-11.242000	24.395055	0.000534	20.738386
553.156866	-2.977100	3.751400	-11.167000	24.372541	0.000538	20.730972
554.158235	-2.995500	3.749700	-11.231000	24.377940	0.000537	20.743501
555.165119	-2.997500	3.750300	-11.241000	24.374532	0.000536	20.733444
556.156853	-2.998000	3.750400	-11.243000	24.347491	0.000537	20.739983
557.158105	-2.999000	3.749100	-11.243000	24.334184	0.000537	20.747022
558.155964	-2.999300	3.749500	-11.245000	24.383337	0.000537	20.751287
559.158122	-3.014800	3.748800	-11.301000	24.379358	0.000535	20.741130
560.159364	-2.992200	3.749700	-11.219000	24.399731	0.000536	20.726954
561.163014	-2.991100	3.749500	-11.214000	24.406324	0.000535	20.752062
562.157413	-3.014100	3.747300	-11.293000	24.456644	0.000537	20.739956
563.175411	-2.967800	3.749700	-11.127000	24.461122	0.000536	20.745398
564.159412	-2.967300	3.748900	-11.123000	24.452068	0.000538	20.732046
565.158117	-3.015500	3.747700	-11.300000	24.487041	0.000536	20.738210
566.170181	-2.997000	3.748800	-11.234000	24.481843	0.000537	20.734417
567.164353	-3.007300	3.746700	-11.266000	24.472465	0.000536	20.741130
568.163664	-3.002400	3.746300	-11.247000	24.460949	0.000539	20.741430
569.169699	-3.013300	3.746400	-11.288000	24.469631	0.000537	20.739709
570.164680	-2.993400	3.745200	-11.209000	24.488160	0.000536	20.726530
571.163244	-2.991700	3.746800	-11.208000	24.506494	0.000537	20.744451
572.163867	-3.019200	3.745100	-11.306000	24.471670	0.000535	20.741755
573.166676	-3.020500	3.744400	-11.308000	24.427145	0.000536	20.747345
574.165167	-2.993400	3.746500	-11.213000	24.422693	0.000536	20.725808
575.168302	-2.983000	3.744900	-11.170000	24.407618	0.000537	20.731074
576.167108	-3.009800	3.745400	-11.272000	24.461598	0.000535	20.760100
577.164470	-3.001800	3.744100	-11.238000	24.464334	0.000534	20.725859
578.166433	-3.007400	3.743300	-11.256000	24.424335	0.000535	20.743578
579.166905	-2.991300	3.743700	-11.198000	24.458215	0.000537	20.735842
580.165638	-2.997700	3.743900	-11.222000	24.456599	0.000536	20.742282
581.169296	-3.002200	3.742900	-11.236000	24.455305	0.000535	20.749519
582.167320	-3.009200	3.744000	-11.266000	24.415382	0.000535	20.749769
583.164938	-2.990500	3.744500	-11.197000	24.403666	0.000534	20.740386
584.167841	-2.986100	3.744400	-11.180000	24.410556	0.000535	20.745402
585.165682	-3.009200	3.741700	-11.259000	24.406725	0.000536	20.749145
586.166294	-2.985100	3.741700	-11.168000	24.435407	0.000534	20.730977
587.168258	-2.991500	3.742100	-11.193000	24.431303	0.000533	20.733973
588.167017	-2.978900	3.741900	-11.145000	24.461153	0.000534	20.717451
589.167864	-3.010000	3.741400	-11.261000	24.453366	0.000536	20.742832
590.166117	-3.018900	3.742100	-11.296000	24.458416	0.000535	20.745528
591.168550	-3.001700	3.742100	-11.232000	24.453442	0.000533	20.733424
592.166811	-2.992100	3.741800	-11.195000	24.491226	0.000534	20.754737
593.171227	-2.997900	3.741200	-11.214000	24.506299	0.000536	20.723392
594.168543	-2.996100	3.739800	-11.203000	24.518215	0.000535	20.736770
595.168106	-2.999800	3.739300	-11.216000	24.540501	0.000536	20.747751
596.169947	-2.993400	3.741300	-11.199000	24.603028	0.000537	20.743632
597.171374	-2.999100	3.739300	-11.214000	24.600442	0.000534	20.731080
598.168337	-2.996700	3.738500	-11.202000	24.615912	0.000534	20.752767
599.169419	-3.008400	3.738000	-11.243000	24.618921	0.000536	20.724017
600.171955	-2.987000	3.738500	-11.166000	24.615266	0.000532	20.730307
601.170733	-3.000900	3.738700	-11.219000	24.607107	0.000533	20.749622
602.170859	-2.990300	3.737800	-11.176000	24.607456	0.000533	20.740489
603.171299	-2.974000	3.737700	-11.115000	24.596412	0.000533	20.738890
604.172080	-2.989200	3.737600	-11.172000	24.595169	0.000533	20.736221
605.180030	-2.992100	3.737400	-11.183000	24.598154	0.000533	20.726413
606.172495	-2.983100	3.737500	-11.149000	24.591813	0.000533	20.722896
607.171297	-2.996700	3.736800	-11.197000	24.557637	0.000532	20.735072
608.171576	-2.985000	3.736400	-11.152000	24.566791	0.000534	20.750421
609.174221	-2.976300	3.738100	-11.124000	24.548063	0.000533	20.708395
610.172163	-3.001400	3.736900	-11.215000	24.553683	0.000533	20.739166
611.172503	-2.988900	3.737300	-11.169000	24.552141	0.000532	20.725764
612.173912	-2.992500	3.735700	-11.178000	24.563756	0.000534	20.728409
613.172912	-2.995400	3.736000	-11.190000	24.586389	0.000533	20.740688
614.175833	-3.026200	3.734000	-11.299000	24.611111	0.000533	20.743208
615.175488	-3.021700	3.734400	-11.283000	24.609270	0.000530	20.753689
616.174480	-3.019100	3.734200	-11.273000	24.583579	0.000532	20.731703
617.174218	-3.005800	3.733700	-11.222000	24.573903	0.000533	20.750445
618.178451	-2.991400	3.734600	-11.171000	24.569650	0.000532	20.722468
619.175454	-3.009300	3.734400	-11.237000	24.558259	0.000533	20.734273
620.175735	-3.013300	3.731900	-11.244000	24.581241	0.000534	20.744057
621.176047	-2.979200	3.734000	-11.124000	24.619666	0.000534	20.751793
622.176402	-3.002000	3.733600	-11.208000	24.606261	0.000532	20.750196
623.178067	-3.012500	3.733200	-11.245000	24.582733	0.000531	20.732277
624.176422	-3.005100	3.733400	-11.218000	24.607629	0.000533	20.734498
625.177287	-3.026500	3.730900	-11.291000	24.614047	0.000532	20.748525
626.177049	-3.016300	3.733000	-11.259000	24.632575	0.000530	20.734873
627.178001	-2.998600	3.731600	-11.188000	24.664434	0.000531	20.757360
628.176308	-2.971700	3.733200	-11.092000	24.673511	0.000532	20.763149
629.176677	-2.982800	3.731600	-11.130000	24.657769	0.000533	20.758258
630.178082	-2.994900	3.731300	-11.174000	24.645832	0.000531	20.733951
631.176926	-2.980500	3.731000	-11.119000	24.660902	0.000530	20.752393
632.176497	-3.001200	3.730600	-11.195000	24.693854	0.000531	20.750846
633.178345	-3.005400	3.729300	-11.208000	24.712730	0.000531	20.765046
634.176598	-2.976700	3.732000	-11.108000	24.665031	0.000530	20.758907
635.176356	-2.991400	3.729800	-11.157000	24.647921	0.000533	20.755014
636.177043	-3.005600	3.729100	-11.207000	24.619071	0.000531	20.776801
637.179103	-2.997500	3.730200	-11.181000	24.590593	0.000531	20.750121
638.178292	-2.998000	3.730700	-11.184000	24.630860	0.000529	20.749274
639.177138	-2.995200	3.730600	-11.172000	24.635982	0.000530	20.762001
640.178257	-3.016000	3.729400	-11.247000	24.661351	0.000530	20.750473
641.177789	-3.012900	3.727600	-11.230000	24.638668	0.000529	20.755687
642.177188	-2.984800	3.729000	-11.129000	24.646130	0.000531	20.763174
643.178167	-3.007600	3.727900	-11.211000	24.600319	0.000529	20.750872
644.178067	-2.988500	3.727600	-11.139000	24.664832	0.000529	20.762501
645.177948	-2.986000	3.727300	-11.129000	24.662893	0.000529	20.741113
646.177782	-2.985700	3.727700	-11.129000	24.677665	0.000530	20.761627
647.179482	-2.989700	3.728000	-11.145000	24.690423	0.000529	20.760205
648.181892	-2.997000	3.727300	-11.170000	24.648096	0.000529	20.763724
649.180062	-3.007500	3.727100	-11.208000	24.664286	0.000529	20.775229
650.179743	-3.001200	3.726800	-11.184000	24.625913	0.000531	20.769441
651.179021	-3.016100	3.726200	-11.239000	24.608154	0.000528	20.764424
652.179504	-3.006500	3.725700	-11.200000	24.624892	0.000527	20.772210
653.184909	-2.992900	3.725800	-11.150000	24.619520	0.000527	20.780570
654.184052	-2.989200	3.724900	-11.133000	24.652847	0.000527	20.758061
655.181466	-2.991400	3.725300	-11.143000	24.653642	0.000527	20.751272
656.182644	-3.001100	3.724700	-11.177000	24.669858	0.000529	20.761380
657.182968	-3.011800	3.724500	-11.217000	24.654042	0.000528	20.756888
658.183330	-2.994400	3.724400	-11.151000	24.642179	0.000526	20.778176
659.185968	-2.992200	3.723600	-11.141000	24.613131	0.000528	20.776056
660.187869	-2.991500	3.723400	-11.138000	24.646306	0.000527	20.756239
661.188298	-3.009700	3.724900	-11.210000	24.618552	0.000528	20.750200
662.188210	-3.031600	3.723100	-11.286000	24.613155	0.000528	20.774658
663.189699	-3.000800	3.723000	-11.171000	24.639517	0.000526	20.784989
664.189926	-2.970800	3.724200	-11.063000	24.660059	0.000529	20.770988
665.189093	-3.004200	3.721200	-11.178000	24.612110	0.000528	20.778350
666.188929	-2.991600	3.722600	-11.136000	24.640761	0.000528	20.769167
667.188764	-2.995900	3.722400	-11.151000	24.696393	0.000526	20.791327
668.188078	-3.000100	3.722000	-11.166000	24.663915	0.000525	20.783866
669.187695	-3.001800	3.721300	-11.170000	24.648745	0.000525	20.761531
670.190057	-2.995400	3.723500	-11.152000	24.693335	0.000526	20.782094
671.190707	-3.019700	3.721600	-11.238000	24.704923	0.000526	20.768592
672.191393	-3.006500	3.720700	-11.186000	24.750732	0.000526	20.774258
673.190739	-2.994200	3.719900	-11.137000	24.764134	0.000527	20.782018
674.190491	-2.998700	3.720000	-11.154000	24.776046	0.000526	20.787809
675.191177	-3.000300	3.719500	-11.158000	24.777439	0.000527	20.765498
676.193046	-2.987600	3.720200	-11.113000	24.828092	0.000526	20.792151
677.190969	-2.996800	3.720600	-11.149000	24.841271	0.000526	20.779773
678.190631	-2.990100	3.720600	-11.124000	24.838063	0.000524	20.767070
679.191434	-3.001000	3.719400	-11.160000	24.813246	0.000523	20.780570
680.192683	-3.023900	3.718800	-11.244000	24.798228	0.000526	20.776878
681.192334	-2.996600	3.719800	-11.146000	24.800167	0.000525	20.778824
682.192914	-3.011000	3.717200	-11.192000	24.786441	0.000525	20.784015
683.192544	-3.009000	3.717800	-11.185000	24.783879	0.000524	20.795195
684.194257	-3.003100	3.717800	-11.164000	24.792981	0.000523	20.805278
685.192944	-2.995700	3.718100	-11.137000	24.788504	0.000525	20.798888
686.193857	-3.004200	3.718400	-11.170000	24.739914	0.000522	20.778576
687.195138	-3.003700	3.717500	-11.166000	24.744986	0.000526	20.812589
688.194707	-3.017900	3.718000	-11.220000	24.746105	0.000524	20.780995
689.195354	-3.013100	3.717100	-11.199000	24.688559	0.000523	20.773034
690.195375	-2.997300	3.717200	-11.141000	24.705122	0.000522	20.788232
691.196421	-2.988500	3.716900	-11.106000	24.682465	0.000525	20.796316
692.195977	-2.973400	3.716600	-11.050000	24.706637	0.000523	20.792597
693.196432	-3.013100	3.714400	-11.191000	24.730014	0.000524	20.806099
694.196601	-2.996900	3.715600	-11.134000	24.728522	0.000526	20.775678
695.195658	-2.982400	3.716800	-11.084000	24.753513	0.000524	20.785584
696.198775	-2.993900	3.715900	-11.125000	24.797802	0.000524	20.789253
697.198753	-3.005400	3.715400	-11.165000	24.857455	0.000524	20.801231
698.200307	-2.987100	3.714400	-11.093000	24.876103	0.000523	20.805248
699.199697	-2.996800	3.714800	-11.130000	24.793624	0.000524	20.796914
700.198975	-3.014800	3.713800	-11.196000	24.779947	0.000520	20.795517
701.200289	-2.994600	3.715500	-11.125000	24.783328	0.000522	20.807918
702.198927	-2.995100	3.714500	-11.125000	24.785914	0.000521	20.789177
703.199313	-2.984000	3.714400	-11.082000	24.811451	0.000522	20.812434
704.201121	-2.991300	3.713100	-11.106000	24.829926	0.000523	20.808691
705.199021	-3.000000	3.713600	-11.140000	24.826869	0.000521	20.800406
706.199841	-2.996200	3.712800	-11.124000	24.860511	0.000520	20.812359
707.199214	-3.004500	3.712000	-11.152000	24.880900	0.000521	20.811486
708.200045	-3.019900	3.712800	-11.211000	24.896639	0.000521	20.808790
709.202309	-2.993200	3.712900	-11.112000	24.909221	0.000520	20.794866
710.202712	-2.998200	3.712200	-11.129000	24.924710	0.000521	20.810412
711.201548	-2.998000	3.712700	-11.129000	24.923119	0.000520	20.787478
712.202141	-2.995400	3.711100	-11.115000	24.866105	0.000520	20.824611
713.201513	-2.987100	3.712400	-11.089000	24.840767	0.000520	20.815302
714.202613	-3.007500	3.710000	-11.157000	24.848276	0.000520	20.829477
715.206323	-3.019300	3.708800	-11.198000	24.883385	0.000517	20.812557
716.203454	-3.002100	3.709700	-11.136000	24.909220	0.000520	20.813830
717.203569	-2.999600	3.709700	-11.127000	24.947161	0.000519	20.814454
718.205063	-2.991700	3.710800	-11.101000	24.937911	0.000518	20.805644
719.205917	-3.019600	3.710000	-11.201000	24.896090	0.000518	20.830523
720.207616	-3.005300	3.709800	-11.148000	24.910485	0.000518	20.816523
721.205622	-3.013100	3.708400	-11.173000	24.884575	0.000517	20.803794
722.206552	-2.984100	3.708700	-11.066000	24.891290	0.000520	20.842775
723.207613	-2.989400	3.709000	-11.085000	24.883085	0.000518	20.826954
724.206886	-3.001300	3.708700	-11.131000	24.890545	0.000516	20.826380
725.206172	-2.989900	3.708800	-11.087000	24.868314	0.000517	20.808337
726.208181	-2.999200	3.708600	-11.122000	24.873014	0.000518	20.809260
727.207374	-3.012000	3.708100	-11.168000	24.876071	0.000516	20.824657
728.206923	-3.000800	3.708900	-11.129000	24.823680	0.000517	20.809534
729.208349	-2.976500	3.708600	-11.037000	24.838848	0.000516	20.847515
730.208287	-3.006600	3.707500	-11.146000	24.854014	0.000516	20.825753
731.210844	-2.980900	3.707000	-11.049000	24.859436	0.000516	20.824556
732.206910	-2.996000	3.707400	-11.106000	24.895116	0.000517	20.836658
733.207829	-2.998800	3.706000	-11.113000	24.900684	0.000516	20.815221
734.209224	-3.007300	3.705400	-11.142000	24.883926	0.000516	20.842971
735.207783	-2.972900	3.707100	-11.019000	24.834245	0.000515	20.818714
736.207117	-2.976400	3.707300	-11.034000	24.874204	0.000517	20.827998
737.216404	-2.983200	3.706400	-11.056000	24.878081	0.000517	20.842320
738.210504	-3.015400	3.705100	-11.172000	24.890414	0.000514	20.835258
739.212582	-2.997100	3.705100	-11.104000	24.895812	0.000513	20.829770
740.212614	-3.015100	3.703800	-11.166000	24.919033	0.000516	20.827472
741.211453	-2.985100	3.704700	-11.058000	24.910704	0.000513	20.830019
742.214264	-2.967900	3.704400	-10.993000	24.932533	0.000516	20.841022
743.211058	-2.994200	3.705100	-11.092000	24.946805	0.000515	20.848708
744.212411	-3.012000	3.703900	-11.156000	24.942678	0.000515	20.818963
745.213725	-3.021300	3.703600	-11.189000	24.947650	0.000514	20.832962
746.210120	-3.024800	3.702400	-11.198000	24.961746	0.000513	20.820084
747.211925	-3.029000	3.702200	-11.213000	24.931290	0.000515	20.832188
748.219026	-3.009300	3.703400	-11.144000	24.951976	0.000513	20.836829
749.212510	-3.005400	3.703000	-11.128000	24.950235	0.000515	20.830815
750.212350	-2.972700	3.702900	-11.006000	24.901901	0.000514	20.854372
751.215290	-2.999900	3.702900	-11.107000	24.880665	0.000512	20.847758
752.213257	-3.012200	3.700600	-11.146000	24.908639	0.000512	20.833635
753.214107	-3.023700	3.701700	-11.191000	24.901651	0.000513	20.847010
754.213456	-2.990600	3.701400	-11.068000	24.933128	0.000511	20.842093
755.212438	-3.002800	3.702200	-11.117000	24.920173	0.000511	20.862755
756.213084	-3.021600	3.700100	-11.179000	24.900482	0.000512	20.849630
757.215226	-3.030300	3.700400	-11.213000	24.958040	0.000510	20.837226
758.212516	-3.013700	3.700100	-11.151000	24.976116	0.000511	20.849205
759.215672	-2.986900	3.701300	-11.054000	24.937828	0.000509	20.842543
760.215132	-2.977200	3.699500	-11.014000	24.893421	0.000509	20.855818
761.214768	-3.002200	3.699100	-11.104000	24.897298	0.000511	20.845486
762.214774	-3.008000	3.699500	-11.127000	24.947127	0.000511	20.862307
763.218485	-3.001100	3.699700	-11.102000	24.938873	0.000510	20.856867
764.217474	-2.965200	3.700500	-10.972000	24.983226	0.000510	20.850651
765.216810	-2.990200	3.698700	-11.060000	24.976640	0.000509	20.848308
766.220728	-3.001800	3.698900	-11.102000	24.982208	0.000508	20.859112
767.218959	-2.999600	3.699500	-11.096000	24.985341	0.000508	20.846611
768.220383	-3.019700	3.697100	-11.164000	24.977162	0.000509	20.861160
769.222527	-3.000600	3.698600	-11.097000	24.986461	0.000510	20.861484
770.218945	-3.002100	3.696900	-11.097000	24.975371	0.000509	20.856992
771.222518	-2.982100	3.698100	-11.028000	25.015499	0.000508	20.869768
772.222256	-2.983900	3.697900	-11.033000	25.010278	0.000507	20.869269
773.223053	-3.002500	3.696500	-11.098000	25.048615	0.000511	20.892577
774.219982	-3.008000	3.695900	-11.115000	25.039915	0.000508	20.880999
775.222480	-2.976800	3.697400	-11.006000	25.071387	0.000510	20.859488
776.219695	-3.004800	3.696000	-11.105000	25.069026	0.000509	20.864704
777.227697	-2.996600	3.697000	-11.078000	25.068205	0.000508	20.850130
778.224383	-3.018500	3.695300	-11.154000	25.067881	0.000508	20.877305
779.222682	-3.004300	3.696200	-11.104000	25.014481	0.000507	20.873488
780.223943	-3.001500	3.694600	-11.089000	25.000384	0.000507	20.868347
781.225429	-2.988800	3.695000	-11.043000	24.959758	0.000507	20.865501
782.221721	-2.995100	3.695200	-11.067000	24.982483	0.000509	20.876457
783.223373	-2.988000	3.695100	-11.040000	24.949117	0.000507	20.883743
784.227970	-2.992800	3.695900	-11.060000	24.936362	0.000507	20.885640
785.225693	-2.999500	3.694100	-11.080000	24.921792	0.000505	20.871965
786.225666	-2.984400	3.695000	-11.027000	24.980643	0.000503	20.855171
787.224990	-3.000700	3.695000	-11.087000	24.945537	0.000503	20.886788
788.220990	-3.007600	3.692500	-11.105000	24.970325	0.000507	20.880375
789.223741	-3.017000	3.692100	-11.138000	24.936139	0.000506	20.896320
790.226838	-3.034300	3.692200	-11.201000	24.901927	0.000503	20.882372
791.223005	-2.993600	3.692400	-11.052000	24.926442	0.000506	20.866675
792.225929	-3.010900	3.691600	-11.114000	24.924005	0.000507	20.868497
793.226642	-2.994100	3.692000	-11.053000	24.935941	0.000505	20.898018
794.223526	-3.008200	3.689800	-11.099000	24.985243	0.000504	20.884917
795.225299	-2.971900	3.693100	-10.974000	24.986312	0.000503	20.888360
796.225601	-3.006500	3.689800	-11.093000	25.049758	0.000502	20.894673
797.225982	-3.005400	3.691400	-11.093000	25.076410	0.000502	20.876857
798.229463	-3.001000	3.690100	-11.073000	25.064948	0.000501	20.882895
799.230862	-2.965500	3.692500	-10.949000	25.057813	0.000503	20.887112
800.226406	-3.012800	3.691600	-11.121000	25.128043	0.000504	20.886963
801.227461	-3.003300	3.690400	-11.082000	25.103531	0.000502	20.873737
802.230349	-2.989400	3.690000	-11.030000	25.133536	0.000502	20.885365
803.225933	-2.996900	3.689700	-11.057000	25.137291	0.000500	20.889134
804.229740	-3.012200	3.688900	-11.111000	25.112530	0.000500	20.877555
805.229924	-2.993400	3.689000	-11.042000	25.134084	0.000501	20.876906
806.226337	-3.003000	3.689900	-11.080000	25.111510	0.000500	20.879375
807.233222	-2.992800	3.689700	-11.042000	25.086478	0.000501	20.891704
808.232319	-2.980700	3.689100	-10.995000	25.058484	0.000498	20.891104
809.227903	-2.981800	3.689200	-10.999000	25.053361	0.000498	20.881695
810.232674	-3.004900	3.688200	-11.082000	25.071660	0.000500	20.889158
811.233365	-2.996700	3.687300	-11.049000	25.099626	0.000498	20.881670
812.229721	-2.997800	3.687000	-11.052000	25.103355	0.000497	20.888258
813.236488	-2.996500	3.688100	-11.050000	25.111783	0.000498	20.876330
814.233440	-3.017400	3.686400	-11.123000	25.043442	0.000499	20.876479
815.230542	-3.026800	3.687300	-11.161000	25.051472	0.000499	20.868893
816.234431	-3.019300	3.686600	-11.129000	25.070988	0.000498	20.869044
817.234913	-3.028700	3.686000	-11.162000	25.035238	0.000497	20.874409
818.232460	-3.006700	3.686700	-11.084000	25.005454	0.000499	20.867746
819.238131	-2.994500	3.686800	-11.038000	24.982755	0.000496	20.881471
820.235217	-2.986200	3.687500	-11.010000	25.005403	0.000496	20.860109
821.230883	-3.003400	3.685900	-11.070000	24.998268	0.000497	20.861482
822.237447	-2.992300	3.685900	-11.029000	24.991231	0.000497	20.874807
823.235854	-2.967600	3.685400	-10.936000	25.029271	0.000497	20.872686
824.235397	-3.005000	3.685100	-11.072000	25.018854	0.000496	20.860334
825.239545	-3.013200	3.684800	-11.102000	25.027009	0.000494	20.860934
826.236634	-3.008700	3.684600	-11.085000	25.029569	0.000496	20.862082
827.234362	-2.985700	3.684100	-10.998000	25.042298	0.000499	20.860634
828.236456	-2.990900	3.683000	-11.015000	25.046898	0.000494	20.852924
829.236713	-3.018100	3.682200	-11.113000	25.061890	0.000497	20.867023
830.235337	-3.008200	3.683100	-11.079000	25.030988	0.000495	20.859238
831.234687	-3.004000	3.683600	-11.064000	25.017189	0.000494	20.856292
832.236592	-2.995800	3.684100	-11.036000	25.035289	0.000496	20.872089
833.234218	-3.011400	3.682500	-11.088000	25.081855	0.000497	20.841073
834.236008	-3.008200	3.682300	-11.075000	25.077080	0.000494	20.857617
835.239805	-3.000200	3.682300	-11.047000	25.065372	0.000494	20.844442
836.235205	-2.992100	3.682200	-11.016000	25.051724	0.000494	20.857767
837.235468	-3.016100	3.681100	-11.101000	25.036185	0.000496	20.835059
838.239868	-3.006700	3.682100	-11.069000	25.006974	0.000493	20.842721
839.237304	-3.022100	3.682200	-11.127000	25.051973	0.000493	20.839052
840.236434	-3.014800	3.680200	-11.094000	25.084839	0.000490	20.861611
841.238509	-3.000400	3.680500	-11.042000	25.087301	0.000493	20.843221
842.237013	-3.002100	3.680100	-11.047000	25.092272	0.000490	20.859591
843.237027	-3.017900	3.678900	-11.101000	25.141518	0.000494	20.839801
844.239686	-3.006200	3.679700	-11.061000	25.123671	0.000490	20.842747
845.237728	-2.969800	3.680300	-10.929000	25.086705	0.000491	20.838830
846.239705	-3.006700	3.679400	-11.062000	25.072658	0.000494	20.818092
847.239720	-2.989100	3.679700	-10.998000	25.035293	0.000490	20.835585
848.243776	-2.996900	3.679200	-11.024000	25.063685	0.000490	20.836111
849.239532	-3.016500	3.678500	-11.095000	25.115892	0.000492	20.826878
850.238509	-3.012000	3.678800	-11.080000	25.107215	0.000489	20.841401
851.240101	-3.010900	3.678800	-11.075000	25.118103	0.000489	20.828624
852.239642	-3.028200	3.678000	-11.137000	25.117508	0.000492	20.835613
853.239403	-3.018100	3.677700	-11.099000	25.107117	0.000489	20.827078
854.240493	-3.001900	3.678700	-11.043000	25.111988	0.000491	20.816795
855.239214	-2.994900	3.676300	-11.009000	25.139308	0.000489	20.838531
856.240505	-3.011000	3.676300	-11.069000	25.128595	0.000488	20.816871
857.241164	-3.005300	3.677000	-11.050000	25.111342	0.000489	20.840802
858.241559	-2.985800	3.677400	-10.979000	25.129739	0.000489	20.839830
859.240815	-2.982300	3.675800	-10.961000	25.122083	0.000488	20.827877
860.244143	-2.999000	3.677900	-11.028000	25.143136	0.000485	20.819141
861.245289	-2.987800	3.676900	-10.986000	25.184850	0.000488	20.827352
862.239756	-2.974800	3.677200	-10.938000	25.178561	0.000487	20.815823
863.244850	-3.000000	3.676400	-11.028000	25.092597	0.000486	20.829572
864.240048	-2.985400	3.675500	-10.972000	25.103834	0.000487	20.821412
865.239702	-2.983400	3.674900	-10.963000	25.113307	0.000487	20.823809
866.243543	-2.986600	3.675500	-10.977000	25.113505	0.000483	20.816422
867.241956	-3.010900	3.674900	-11.064000	25.095732	0.000485	20.815649
868.242166	-2.991000	3.674600	-10.990000	25.131777	0.000484	20.821014
869.245978	-2.989000	3.675600	-10.986000	25.112537	0.000487	20.826830
870.240945	-2.981600	3.673700	-10.953000	25.089119	0.000482	20.814227
871.242250	-3.008000	3.672500	-11.046000	25.088348	0.000482	20.809660
872.244937	-3.030500	3.673300	-11.131000	25.101672	0.000484	20.814501
873.243202	-2.978100	3.671600	-10.933000	25.105973	0.000483	20.813602
874.244137	-2.992600	3.672900	-10.991000	25.072064	0.000485	20.821762
875.247575	-2.980200	3.672000	-10.942000	25.058914	0.000481	20.805717
876.247019	-3.012600	3.671600	-11.060000	25.122182	0.000482	20.825132
877.248317	-3.000000	3.672000	-11.015000	25.079324	0.000484	20.825731
878.250483	-2.968100	3.672400	-10.899000	25.024780	0.000483	20.818869
879.247821	-2.998800	3.672100	-11.011000	25.061250	0.000482	20.802847
880.248660	-3.001500	3.670600	-11.016000	25.091431	0.000481	20.805642
881.249509	-2.983800	3.671700	-10.955000	25.109753	0.000480	20.810759
882.248515	-2.975100	3.672100	-10.924000	25.145251	0.000482	20.832170
883.250194	-3.017400	3.669900	-11.073000	25.191612	0.000481	20.806640
884.251960	-3.000500	3.668800	-11.007000	25.230564	0.000479	20.822038
885.249523	-3.033100	3.669200	-11.128000	25.255718	0.000480	20.803197
886.250169	-2.975000	3.670000	-10.917000	25.212465	0.000478	20.821412
887.253056	-2.972700	3.670900	-10.912000	25.170682	0.000479	20.803646
888.249277	-3.000200	3.668500	-11.006000	25.171701	0.000478	20.808937
889.249918	-2.952600	3.669300	-10.833000	25.176374	0.000479	20.809361
890.252250	-2.985300	3.668600	-10.951000	25.172297	0.000477	20.822811
891.250576	-3.006800	3.668300	-11.029000	25.201031	0.000477	20.808985
892.250982	-2.988900	3.667700	-10.962000	25.149129	0.000477	20.828476
893.256420	-3.017600	3.666900	-11.064000	25.139187	0.000476	20.806642
894.254857	-2.998500	3.667300	-10.995000	25.174411	0.000477	20.796958
895.253830	-2.999900	3.666200	-10.998000	25.197702	0.000477	20.804220
896.257777	-3.021900	3.665800	-11.077000	25.167898	0.000477	20.831196
897.257224	-2.991700	3.666800	-10.969000	25.183981	0.000477	20.816997
898.254433	-3.006600	3.666900	-11.024000	25.213537	0.000478	20.818220
899.255446	-2.986900	3.667700	-10.954000	25.237871	0.000476	20.789072
900.256183	-2.967000	3.667300	-10.880000	25.261113	0.000474	20.802923
901.262818	-3.018100	3.665300	-11.062000	25.244732	0.000474	20.805443
902.258922	-3.006600	3.666400	-11.023000	25.195142	0.000473	20.777942
903.256093	-2.987100	3.665900	-10.949000	25.201183	0.000474	20.792542
904.257989	-3.006700	3.665400	-11.020000	25.226189	0.000474	20.787775
905.258076	-3.035300	3.664300	-11.122000	25.238742	0.000472	20.786628
906.257963	-2.978200	3.665500	-10.915000	25.250399	0.000474	20.816349
907.260526	-3.010700	3.664000	-11.030000	25.255346	0.000474	20.806143
908.264324	-3.006900	3.663800	-11.016000	25.278984	0.000473	20.809961
909.258062	-3.006500	3.664400	-11.015000	25.228625	0.000470	20.800178
910.260006	-3.012400	3.662600	-11.032000	25.200786	0.000473	20.803523
911.260772	-3.000600	3.663900	-10.993000	25.222188	0.000473	20.806992
912.260606	-3.006700	3.662500	-11.011000	25.233323	0.000470	20.799679
913.260430	-2.988400	3.662400	-10.944000	25.217166	0.000470	20.799579
914.262437	-2.972900	3.663500	-10.891000	25.200562	0.000472	20.796660
915.263477	-2.998700	3.662100	-10.980000	25.245927	0.000472	20.815178
916.261088	-3.010100	3.662700	-11.024000	25.262728	0.000469	20.801700
917.264868	-3.015100	3.661000	-11.037000	25.246448	0.000471	20.803847
918.260883	-3.002000	3.661300	-10.990000	25.246423	0.000468	20.804770
919.261092	-3.012800	3.659900	-11.026000	25.229619	0.000471	20.795960
920.265208	-2.968200	3.661900	-10.868000	25.298893	0.000470	20.807191
921.261527	-2.976300	3.662000	-10.898000	25.275627	0.000466	20.804694
922.261948	-2.988400	3.658900	-10.934000	25.317509	0.000469	20.794588
923.265825	-2.990400	3.660200	-10.945000	25.319050	0.000470	20.808462
924.261190	-2.970100	3.659500	-10.868000	25.328742	0.000469	20.777891
925.264278	-2.997000	3.660200	-10.969000	25.323722	0.000468	20.781860
926.269524	-3.012100	3.660000	-11.024000	25.265934	0.000469	20.794962
927.263996	-3.016400	3.659000	-11.036000	25.225565	0.000467	20.797580
928.260938	-3.013600	3.659500	-11.028000	25.192208	0.000467	20.798704
929.266057	-3.011700	3.659400	-11.020000	25.192134	0.000467	20.808113
930.263224	-3.007400	3.658500	-11.002000	25.218805	0.000466	20.795535
931.263314	-2.991400	3.658300	-10.943000	25.235657	0.000467	20.798703
932.265250	-3.009000	3.657300	-11.004000	25.240654	0.000469	20.804194
933.263875	-2.987200	3.657200	-10.924000	25.239062	0.000466	20.788845
934.262296	-2.998100	3.656700	-10.961000	25.289472	0.000466	20.814801
935.267826	-3.004400	3.657100	-10.986000	25.310199	0.000465	20.787723
936.262605	-2.983300	3.656900	-10.909000	25.295337	0.000463	20.797930
937.264280	-2.986200	3.655700	-10.916000	25.301998	0.000466	20.783281
938.264774	-2.982500	3.656900	-10.906000	25.327525	0.000463	20.777143
939.261834	-2.997000	3.655500	-10.955000	25.324789	0.000463	20.783406
940.262632	-2.977600	3.656900	-10.888000	25.370671	0.000462	20.774473
941.264699	-3.015200	3.654800	-11.019000	25.332097	0.000464	20.784105
942.262601	-3.008000	3.654300	-10.992000	25.288974	0.000465	20.792965
943.263253	-3.011000	3.655200	-11.005000	25.252213	0.000462	20.779289
944.265734	-3.003100	3.654100	-10.973000	25.259817	0.000462	20.806364
945.263502	-2.962800	3.655000	-10.829000	25.271924	0.000462	20.791018
946.263772	-2.993500	3.655200	-10.941000	25.255418	0.000463	20.781084
947.267130	-3.015800	3.653200	-11.016000	25.282436	0.000460	20.798254
948.263047	-2.973500	3.654400	-10.864000	25.211671	0.000461	20.782208
949.264745	-3.000200	3.654300	-10.963000	25.197502	0.000460	20.755181
950.265276	-3.019600	3.651800	-11.025000	25.244557	0.000459	20.797681
951.263345	-3.021800	3.652600	-11.036000	25.231059	0.000460	20.780811
952.264791	-3.004800	3.654100	-10.979000	25.261633	0.000460	20.772626
953.265989	-2.985100	3.652700	-10.903000	25.256090	0.000461	20.778914
954.272504	-3.011000	3.651700	-10.994000	25.286067	0.000459	20.771553
955.269147	-3.005800	3.650700	-10.972000	25.279181	0.000459	20.767010
956.272772	-2.996900	3.650800	-10.940000	25.274559	0.000457	20.773750
957.266128	-2.987100	3.649900	-10.902000	25.244284	0.000458	20.790769
958.267057	-2.992800	3.651900	-10.928000	25.248237	0.000457	20.766289
959.271314	-3.012000	3.650200	-10.993000	25.215974	0.000457	20.769459
960.267968	-3.001500	3.649500	-10.953000	25.182615	0.000459	20.778642
961.268172	-2.990000	3.650000	-10.912000	25.181046	0.000456	20.790344
962.271235	-3.014700	3.649100	-10.999000	25.210604	0.000455	20.773076
963.266866	-2.989800	3.648900	-10.909000	25.227159	0.000456	20.780214
964.269524	-3.002100	3.650300	-10.958000	25.260492	0.000454	20.768635
965.269285	-3.020500	3.647200	-11.015000	25.295762	0.000456	20.792193
966.270164	-3.001600	3.648700	-10.951000	25.303244	0.000457	20.774575
967.270061	-2.999500	3.648500	-10.943000	25.336971	0.000456	20.782835
968.271006	-2.990800	3.647300	-10.908000	25.341123	0.000455	20.779892
969.270440	-3.007300	3.647300	-10.967000	25.329392	0.000453	20.769060
970.269695	-3.032500	3.646100	-11.056000	25.299641	0.000454	20.772854
971.274671	-3.014600	3.647600	-10.995000	25.251520	0.000453	20.753937
972.269780	-2.990500	3.648000	-10.908000	25.255125	0.000453	20.763720
973.271166	-3.001200	3.646600	-10.943000	25.254751	0.000453	20.751491
974.272183	-3.022900	3.645000	-11.018000	25.293153	0.000455	20.748321
975.270420	-2.996200	3.645300	-10.921000	25.301530	0.000452	20.764319
976.272667	-2.998300	3.646300	-10.932000	25.307421	0.000450	20.759802
977.272866	-3.015200	3.647000	-10.996000	25.335457	0.000451	20.767563
978.270158	-2.997900	3.644200	-10.924000	25.331804	0.000448	20.752990
979.270663	-2.999900	3.646000	-10.936000	25.301232	0.000451	20.769236
980.275740	-3.015400	3.644000	-10.987000	25.323874	0.000450	20.775848
981.272151	-2.992100	3.644900	-10.905000	25.319599	0.000451	20.754486
982.274206	-2.990800	3.644600	-10.900000	25.299043	0.000448	20.779840
983.273733	-2.994700	3.643300	-10.910000	25.261685	0.000449	20.770782
984.272836	-3.011200	3.642700	-10.968000	25.265812	0.000450	20.755010
985.272165	-3.019800	3.642600	-10.999000	25.265041	0.000450	20.749968
986.273884	-3.008000	3.643700	-10.959000	25.247195	0.000448	20.768087
987.272002	-3.003600	3.643200	-10.941000	25.295762	0.000446	20.747148
988.272090	-3.001700	3.642700	-10.933000	25.338911	0.000449	20.740211
989.274074	-2.989300	3.642100	-10.887000	25.385884	0.000448	20.764617
990.271977	-2.994500	3.641200	-10.902000	25.347808	0.000448	20.744876
991.274143	-2.993200	3.641600	-10.899000	25.326034	0.000447	20.758102
992.276936	-3.005800	3.641600	-10.945000	25.346738	0.000447	20.752337
993.273922	-2.989100	3.642100	-10.886000	25.335976	0.000446	20.760498
994.274649	-3.025100	3.641100	-11.013000	25.344028	0.000446	20.743452
995.275586	-3.000900	3.641100	-10.926000	25.322976	0.000447	20.752661
996.274546	-3.013900	3.638700	-10.966000	25.329016	0.000446	20.743078
997.274576	-3.007100	3.639400	-10.943000	25.367291	0.000445	20.749741
998.279559	-3.004600	3.638600	-10.931000	25.375715	0.000445	20.745398
999.282437	-2.988600	3.639400	-10.876000	25.311890	0.000446	20.747220
1000.278003	-3.016700	3.639800	-10.979000	25.283803	0.000444	20.744149
1001.278567	-3.006400	3.640200	-10.943000	25.297571	0.000442	20.751809
1002.277430	-3.000400	3.637800	-10.914000	25.289295	0.000444	20.744922
1003.277730	-2.996600	3.638300	-10.902000	25.290339	0.000446	20.760669
1004.281214	-3.001600	3.638200	-10.920000	25.281489	0.000443	20.744670
1005.276058	-3.011700	3.637400	-10.954000	25.237692	0.000444	20.751907
1006.276353	-3.016600	3.637200	-10.971000	25.247337	0.000443	20.739779
1007.284237	-2.973400	3.637900	-10.816000	25.270426	0.000441	20.754900
1008.276312	-3.026200	3.636200	-11.002000	25.313402	0.000442	20.738780
1009.277355	-2.986800	3.636900	-10.862000	25.348619	0.000440	20.728620
1010.279113	-3.001900	3.635100	-10.911000	25.300003	0.000441	20.745241
1011.278342	-2.987000	3.636500	-10.862000	25.281958	0.000441	20.754151
1012.277621	-2.998500	3.635000	-10.899000	25.275645	0.000439	20.735010
1013.279613	-2.974100	3.637200	-10.816000	25.304501	0.000439	20.729368
1014.276232	-2.986800	3.635200	-10.857000	25.332687	0.000438	20.736332
1015.281302	-2.991900	3.633700	-10.871000	25.383213	0.000441	20.749607
1016.276600	-3.010400	3.633800	-10.938000	25.337059	0.000438	20.738351
1017.277770	-2.997200	3.634100	-10.891000	25.293339	0.000439	20.736654
1018.276030	-3.028100	3.633100	-11.000000	25.278128	0.000438	20.738925
1019.279032	-3.013900	3.633100	-10.948000	25.334399	0.000437	20.738051
1020.279663	-3.016300	3.633200	-10.959000	25.322494	0.000439	20.732262
1021.275849	-3.006500	3.632600	-10.921000	25.323984	0.000438	20.736128
1022.284209	-3.011700	3.632900	-10.940000	25.376551	0.000435	20.727270
1023.277686	-3.002200	3.632400	-10.905000	25.357762	0.000437	20.731163
1024.280757	-2.998200	3.631400	-10.887000	25.363924	0.000437	20.730238
1025.279447	-2.996300	3.631600	-10.880000	25.379956	0.000436	20.729740
1026.277645	-2.998900	3.632400	-10.892000	25.411046	0.000437	20.728716
1027.278450	-2.977700	3.631900	-10.813000	25.408561	0.000437	20.717211
1028.276641	-2.994800	3.629800	-10.870000	25.385520	0.000436	20.729164
1029.279195	-2.974300	3.630400	-10.797000	25.364992	0.000436	20.727517
1030.283342	-2.990300	3.631300	-10.858000	25.386714	0.000436	20.727517
1031.280081	-3.006100	3.629300	-10.908000	25.368920	0.000435	20.714391
1032.279870	-2.996400	3.630800	-10.878000	25.425111	0.000433	20.729563
1033.282208	-2.978900	3.630600	-10.815000	25.392305	0.000433	20.715587
1034.283681	-3.015100	3.627400	-10.936000	25.364793	0.000432	20.725420
1035.281704	-2.994900	3.627800	-10.864000	25.368546	0.000432	20.718282
1036.281718	-3.006400	3.628500	-10.908000	25.401800	0.000431	20.730812
1037.283672	-2.999100	3.626700	-10.876000	25.421979	0.000432	20.723573
1038.283714	-3.004100	3.628100	-10.897000	25.456971	0.000431	20.725520
1039.280977	-2.993200	3.628100	-10.858000	25.468775	0.000433	20.721252
1040.283638	-3.000100	3.627500	-10.882000	25.472825	0.000431	20.723422
1041.284492	-3.017600	3.627400	-10.945000	25.432244	0.000429	20.727716
1042.285536	-2.998300	3.626400	-10.872000	25.398667	0.000430	20.744736
1043.283718	-2.996200	3.626200	-10.864000	25.369887	0.000430	20.703981
1044.282753	-3.007600	3.626100	-10.905000	25.368372	0.000428	20.716211
1045.282854	-2.989300	3.625000	-10.836000	25.334024	0.000429	20.728190
1046.286730	-2.998900	3.625000	-10.870000	25.332110	0.000428	20.722475
1047.283096	-2.994300	3.625700	-10.855000	25.329326	0.000430	20.741492
1048.284748	-3.000700	3.625700	-10.879000	25.366109	0.000428	20.715835
1049.285534	-3.009700	3.623800	-10.905000	25.392057	0.000429	20.740469
1050.282544	-3.014600	3.623200	-10.921000	25.367702	0.000429	20.749205
1051.283865	-3.008100	3.623200	-10.898000	25.342027	0.000428	20.712992
1052.283971	-2.980300	3.624800	-10.802000	25.353111	0.000428	20.731235
1053.282549	-2.977800	3.623600	-10.790000	25.429087	0.000425	20.734504
1054.282841	-2.999300	3.623100	-10.866000	25.387508	0.000426	20.728315
1055.285592	-2.997800	3.621900	-10.857000	25.364494	0.000425	20.738397
1056.285182	-3.007800	3.622500	-10.895000	25.383034	0.000426	20.718606
1057.286251	-2.998800	3.622300	-10.862000	25.377169	0.000425	20.716036
1058.284989	-2.998900	3.622400	-10.862000	25.424340	0.000425	20.718357
1059.283718	-2.988500	3.620900	-10.821000	25.372870	0.000423	20.729737
1060.283734	-3.005000	3.620900	-10.880000	25.344163	0.000425	20.734579
1061.285388	-2.981400	3.621100	-10.795000	25.308944	0.000423	20.712017
1062.283296	-3.006300	3.621300	-10.886000	25.340285	0.000422	20.734952
1063.285734	-2.992100	3.620600	-10.832000	25.342622	0.000425	20.723547
1064.288713	-3.001200	3.619700	-10.862000	25.343492	0.000422	20.715411
1065.284510	-3.002700	3.619000	-10.866000	25.382686	0.000421	20.718256
1066.286466	-3.003000	3.618500	-10.865000	25.381567	0.000422	20.719503
1067.285336	-3.012900	3.618200	-10.900000	25.372544	0.000422	20.732255
1068.285581	-3.010300	3.619100	-10.894000	25.351568	0.000420	20.716882
1069.286839	-3.016900	3.618400	-10.915000	25.343961	0.000418	20.719202
1070.287817	-3.015800	3.619300	-10.914000	25.348635	0.000421	20.738121
1071.287379	-3.022200	3.617700	-10.932000	25.328826	0.000421	20.726291
1072.285745	-2.993000	3.617000	-10.825000	25.377416	0.000420	20.705377
1073.291080	-2.996000	3.617700	-10.837000	25.376321	0.000419	20.727039
1074.287419	-3.011400	3.616000	-10.888000	25.391730	0.000417	20.709319
1075.288992	-3.017700	3.616900	-10.913000	25.371251	0.000419	20.719576
1076.290637	-3.001400	3.615600	-10.851000	25.401968	0.000421	20.713910
1077.284998	-3.010000	3.616300	-10.884000	25.429307	0.000420	20.733303
1078.285338	-3.016100	3.614500	-10.901000	25.467850	0.000420	20.708943
1079.290206	-3.006500	3.615700	-10.870000	25.499561	0.000420	20.733202
1080.289898	-2.989400	3.615400	-10.806000	25.489545	0.000418	20.739740
1081.290021	-2.994000	3.615800	-10.825000	25.431915	0.000417	20.725015
1082.297147	-2.999200	3.614500	-10.840000	25.450901	0.000416	20.718950
1083.290928	-2.972500	3.615000	-10.746000	25.455300	0.000415	20.734273
1084.290778	-3.001000	3.614700	-10.847000	25.487853	0.000416	20.723815
1085.292557	-2.982100	3.613300	-10.773000	25.510370	0.000414	20.732203
1086.290080	-3.009200	3.613400	-10.873000	25.496131	0.000414	20.702728
1087.289060	-2.999700	3.613900	-10.839000	25.527839	0.000416	20.736944
1088.291672	-2.999300	3.612800	-10.835000	25.513624	0.000417	20.723616
1089.292592	-2.987400	3.612300	-10.790000	25.500478	0.000413	20.743132
1090.290425	-3.013700	3.610000	-10.877000	25.442899	0.000414	20.725140
1091.292612	-3.005800	3.610800	-10.853000	25.404179	0.000414	20.726088
1092.289528	-2.981000	3.611600	-10.765000	25.421997	0.000414	20.734023
1093.290322	-3.010500	3.611500	-10.872000	25.443221	0.000412	20.716454
1094.293409	-3.005800	3.611000	-10.853000	25.443046	0.000411	20.728607
1095.291458	-2.980400	3.610900	-10.761000	25.485020	0.000413	20.726186
1096.291862	-2.974200	3.612400	-10.743000	25.511263	0.000414	20.723616
1097.296272	-2.998600	3.609700	-10.824000	25.518965	0.000413	20.720445
1098.294511	-3.012800	3.610300	-10.876000	25.490189	0.000411	20.737542
1099.292686	-2.995700	3.609200	-10.811000	25.462034	0.000411	20.739614
1100.298073	-2.994800	3.610100	-10.810000	25.419214	0.000412	20.720322
1101.296032	-2.999500	3.609300	-10.824000	25.401742	0.000410	20.725064
1102.295609	-2.968400	3.608400	-10.711000	25.398064	0.000410	20.702402
1103.299791	-3.014500	3.606800	-10.872000	25.389041	0.000409	20.743605
1104.296864	-2.994400	3.608100	-10.803000	25.390036	0.000410	20.735595
1105.297771	-2.990600	3.608600	-10.791000	25.389465	0.000409	20.740712
1106.299461	-2.997200	3.607100	-10.810000	25.408875	0.000408	20.730329
1107.297281	-3.004400	3.606400	-10.834000	25.393864	0.000408	20.758405
1108.297452	-2.988800	3.606600	-10.777000	25.432558	0.000410	20.750318
1109.304486	-2.991800	3.607000	-10.790000	25.472023	0.000408	20.733523
1110.297126	-3.011300	3.606100	-10.858000	25.509398	0.000408	20.736443
1111.299091	-3.000500	3.606400	-10.820000	25.482361	0.000409	20.744853
1112.301707	-2.983000	3.605800	-10.755000	25.479750	0.000406	20.728480
1113.299394	-2.998500	3.605500	-10.810000	25.466580	0.000408	20.745127
1114.299113	-2.990900	3.606200	-10.785000	25.436335	0.000407	20.729929
1115.301772	-3.021200	3.604600	-10.888000	25.470630	0.000406	20.757729
1116.299334	-2.982400	3.606300	-10.753000	25.448786	0.000405	20.723938
1117.298296	-3.016900	3.605000	-10.875000	25.419659	0.000405	20.751116
1118.300618	-3.015800	3.603400	-10.867000	25.398907	0.000405	20.767262
1119.299548	-2.995300	3.604000	-10.793000	25.433700	0.000403	20.766639
1120.307611	-2.997900	3.602600	-10.799000	25.445281	0.000404	20.740808
1121.305858	-3.012600	3.602600	-10.852000	25.471895	0.000401	20.751887
1122.301069	-3.008500	3.603100	-10.839000	25.491577	0.000404	20.750790
1123.301805	-3.026900	3.602200	-10.903000	25.480146	0.000402	20.745948
1124.304603	-3.000100	3.602700	-10.807000	25.463644	0.000402	20.759249
1125.302430	-3.020800	3.602200	-10.881000	25.453083	0.000404	20.750541
1126.301268	-3.002500	3.601700	-10.813000	25.413070	0.000402	20.744500
1127.307027	-2.996300	3.601100	-10.788000	25.442570	0.000401	20.758476
1128.300398	-3.004500	3.600800	-10.817000	25.438021	0.000404	20.762442
1129.302999	-2.999000	3.599800	-10.795000	25.457951	0.000398	20.759223
1130.306260	-3.015900	3.600200	-10.857000	25.505938	0.000400	20.752883
1131.306437	-3.002000	3.600000	-10.807000	25.491251	0.000400	20.745246
1132.304864	-3.014100	3.598600	-10.846000	25.445376	0.000401	20.756078
1133.306784	-3.025600	3.599500	-10.890000	25.465555	0.000400	20.770651
1134.303295	-3.027900	3.598100	-10.893000	25.443238	0.000399	20.776217
1135.303518	-2.995600	3.598800	-10.780000	25.450792	0.000398	20.769577
1136.305564	-3.003200	3.597900	-10.804000	25.462248	0.000399	20.741725
1137.302987	-2.972500	3.600000	-10.700000	25.492516	0.000397	20.774967
1138.304039	-3.010800	3.597800	-10.832000	25.493286	0.000397	20.762937
1139.304999	-2.994400	3.597500	-10.770000	25.516074	0.000396	20.774916
1140.302437	-2.991000	3.596400	-10.756000	25.496937	0.000398	20.761862
1141.307331	-2.995800	3.596300	-10.773000	25.483718	0.000397	20.761389
1142.307641	-2.976900	3.597500	-10.708000	25.540350	0.000394	20.776062
1143.303739	-3.006500	3.595200	-10.808000	25.553270	0.000394	20.768174
1144.305846	-2.998200	3.595600	-10.779000	25.558911	0.000395	20.775262
1145.305496	-3.009900	3.595900	-10.823000	25.545716	0.000395	20.780028
1146.302375	-3.027400	3.594800	-10.882000	25.575833	0.000393	20.743892
1147.305475	-3.018800	3.594700	-10.851000	25.570614	0.000394	20.759039
1148.320881	-2.987000	3.595600	-10.739000	25.534832	0.000394	20.763408
1149.303142	-3.008600	3.594600	-10.814000	25.501931	0.000393	20.760239
1150.306021	-3.019700	3.595400	-10.856000	25.484434	0.000395	20.749306
1151.306170	-3.008400	3.593200	-10.809000	25.458961	0.000391	20.749331
1152.305595	-2.990200	3.592800	-10.742000	25.492387	0.000393	20.770096
1153.306544	-3.019600	3.593300	-10.850000	25.487541	0.000394	20.775660
1154.307406	-3.010700	3.593700	-10.819000	25.526457	0.000390	20.765903
1155.307384	-3.002900	3.591700	-10.784000	25.472406	0.000391	20.788912
1156.306111	-3.005300	3.591500	-10.792000	25.431675	0.000391	20.768873
1157.306873	-3.013400	3.591300	-10.821000	25.426730	0.000392	20.750630
1158.309445	-3.011300	3.591600	-10.815000	25.475662	0.000389	20.769421
1159.308849	-3.001800	3.590600	-10.777000	25.530581	0.000392	20.775735
1160.307581	-2.988000	3.592700	-10.734000	25.564774	0.000391	20.779727
1161.310195	-3.001600	3.590400	-10.776000	25.597301	0.000390	20.766401
1162.318069	-2.998400	3.590700	-10.766000	25.597177	0.000391	20.777182
1163.310030	-2.999200	3.591100	-10.770000	25.557320	0.000388	20.784095
1164.311185	-2.988700	3.591300	-10.731000	25.537440	0.000387	20.795900
1165.310499	-3.019900	3.589800	-10.840000	25.569122	0.000389	20.774137
1166.310675	-3.014100	3.589700	-10.819000	25.575036	0.000388	20.792405
1167.309790	-3.026000	3.586900	-10.853000	25.553617	0.000388	20.772790
1168.310999	-3.011900	3.588400	-10.807000	25.561171	0.000385	20.757143
1169.313532	-2.995100	3.588200	-10.746000	25.532594	0.000386	20.771118
1170.314089	-3.014900	3.587300	-10.815000	25.465174	0.000386	20.753673
1171.312955	-2.989300	3.587800	-10.724000	25.492436	0.000387	20.799068
1172.312951	-3.019600	3.587400	-10.831000	25.515943	0.000384	20.783320
1173.312937	-2.984600	3.587200	-10.705000	25.561866	0.000385	20.776808
1174.317108	-2.993400	3.586000	-10.734000	25.585671	0.000387	20.772739
1175.312996	-3.010300	3.585900	-10.794000	25.600903	0.000385	20.785192
1176.314514	-3.018700	3.584800	-10.821000	25.630298	0.000384	20.791955
1177.313018	-2.996700	3.586600	-10.747000	25.634845	0.000384	20.785142
1178.316638	-3.023300	3.584500	-10.837000	25.627963	0.000383	20.790558
1179.315543	-3.002100	3.584800	-10.761000	25.631690	0.000381	20.784819
1180.314737	-3.011900	3.585300	-10.797000	25.579608	0.000382	20.813117
1181.316138	-3.012700	3.584400	-10.798000	25.547628	0.000382	20.803760
1182.316626	-2.984700	3.585400	-10.700000	25.559232	0.000379	20.774636
1183.318535	-3.014800	3.584100	-10.804000	25.586615	0.000379	20.780326
1184.320101	-2.997100	3.584000	-10.741000	25.556647	0.000380	20.792429
1185.318112	-2.990100	3.583000	-10.713000	25.547652	0.000379	20.787662
1186.318318	-3.000600	3.582100	-10.748000	25.570190	0.000380	20.810771
1187.319605	-2.994800	3.581500	-10.724000	25.476730	0.000380	20.782822
1188.324901	-2.987400	3.582600	-10.702000	25.456649	0.000380	20.803908
1189.320978	-3.002300	3.582300	-10.754000	25.459060	0.000379	20.794002
1190.320815	-2.997800	3.581500	-10.735000	25.435600	0.000378	20.796048
1191.319642	-3.001300	3.581500	-10.748000	25.454365	0.000380	20.788812
1192.320659	-3.008200	3.579900	-10.768000	25.462863	0.000378	20.804932
1193.319461	-3.025100	3.581000	-10.832000	25.482743	0.000378	20.783171
1194.323215	-3.005400	3.580500	-10.759000	25.523251	0.000378	20.807254
1195.320451	-2.996000	3.579600	-10.723000	25.554015	0.000378	20.782199
1196.324059	-3.009500	3.579300	-10.771000	25.566911	0.000376	20.792780
1197.323934	-3.016100	3.578400	-10.792000	25.526778	0.000375	20.799417
1198.324659	-2.987900	3.579600	-10.695000	25.516119	0.000375	20.807205
1199.326817	-3.006400	3.579100	-10.759000	25.550236	0.000377	20.807802
1200.322973	-2.994800	3.577700	-10.714000	25.523897	0.000375	20.806954
1201.324531	-3.001700	3.578000	-10.739000	25.532445	0.000375	20.809375
1202.323174	-3.016300	3.578500	-10.793000	25.510080	0.000375	20.800192
1203.325532	-3.006900	3.578500	-10.760000	25.463460	0.000374	20.830188
1204.331450	-3.018500	3.576600	-10.795000	25.440224	0.000375	20.782673
1205.326205	-2.986600	3.577500	-10.684000	25.480285	0.000374	20.802987
1206.327251	-3.000800	3.576500	-10.732000	25.473352	0.000373	20.804560
1207.328832	-2.999300	3.575700	-10.723000	25.496165	0.000374	20.806132
1208.325544	-2.985900	3.575800	-10.676000	25.535552	0.000372	20.797796
1209.328317	-2.982800	3.575500	-10.663000	25.525538	0.000370	20.812869
1210.330342	-3.007200	3.574500	-10.749000	25.537440	0.000372	20.798270
1211.327564	-2.997400	3.575300	-10.716000	25.529490	0.000371	20.802140
1212.334541	-3.012400	3.575100	-10.770000	25.552698	0.000369	20.817386
1213.327272	-2.992800	3.574700	-10.698000	25.594221	0.000371	20.823052
1214.327425	-2.995300	3.573500	-10.703000	25.603837	0.000371	20.815640
1215.329453	-3.010200	3.573000	-10.755000	25.614946	0.000370	20.812572
1216.328646	-2.986900	3.573800	-10.674000	25.622847	0.000368	20.821455
1217.326736	-3.003500	3.573700	-10.733000	25.578022	0.000368	20.823852
1218.333788	-3.004700	3.573500	-10.735000	25.561968	0.000369	20.830489
1219.327794	-2.984500	3.573300	-10.664000	25.571336	0.000367	20.822354
1220.326577	-2.998600	3.572300	-10.711000	25.607094	0.000368	20.805160
1221.331533	-3.001500	3.571800	-10.720000	25.660367	0.000367	20.809827
1222.328443	-3.002400	3.571800	-10.723000	25.671624	0.000368	20.823029
1223.329253	-3.023000	3.569400	-10.789000	25.627917	0.000366	20.834608
1224.331154	-3.025000	3.571300	-10.802000	25.563735	0.000368	20.844117
1225.328549	-3.032700	3.571100	-10.829000	25.512643	0.000368	20.830266
1226.342010	-3.017400	3.568800	-10.767000	25.527877	0.000366	20.833237
1227.332051	-3.008200	3.570200	-10.739000	25.519653	0.000364	20.821184
1228.329000	-3.010800	3.570200	-10.748000	25.535856	0.000366	20.835559
1229.332229	-3.020000	3.568700	-10.777000	25.540478	0.000366	20.838778
1230.332893	-3.003800	3.567800	-10.716000	25.506881	0.000365	20.836807
1231.329085	-3.012200	3.568400	-10.748000	25.494256	0.000363	20.808483
1232.335342	-3.012400	3.568300	-10.748000	25.492095	0.000365	20.827175
1233.332078	-2.981800	3.569600	-10.643000	25.528699	0.000365	20.848760
1234.328671	-2.997300	3.567600	-10.693000	25.567440	0.000364	20.815122
1235.332679	-3.010300	3.567500	-10.739000	25.578250	0.000366	20.835935
1236.332299	-2.995100	3.567600	-10.684000	25.544430	0.000365	20.829945
1237.329036	-3.012000	3.565400	-10.738000	25.552307	0.000361	20.810830
1238.332138	-3.024200	3.565500	-10.782000	25.545424	0.000362	20.833788
1239.334117	-3.006900	3.567000	-10.725000	25.577852	0.000363	20.828423
1240.330482	-2.994000	3.567400	-10.680000	25.598129	0.000362	20.824131
1241.335965	-2.992100	3.567500	-10.674000	25.616120	0.000361	20.825604
1242.336488	-3.016700	3.564700	-10.753000	25.609088	0.000360	20.855051
1243.331770	-3.006200	3.564300	-10.714000	25.573827	0.000359	20.843347
1244.336812	-2.989300	3.564600	-10.655000	25.619573	0.000358	20.849935
1245.333773	-2.996600	3.565000	-10.682000	25.610255	0.000360	20.847688
1246.334698	-2.993500	3.564000	-10.668000	25.633961	0.000358	20.832617
1247.335570	-2.989500	3.563200	-10.651000	25.584663	0.000356	20.842375
1248.334114	-2.995600	3.563900	-10.674000	25.590153	0.000361	20.836035
1249.333506	-2.995100	3.562600	-10.669000	25.644198	0.000360	20.859493
1250.335349	-2.984200	3.562500	-10.631000	25.680996	0.000359	20.840977
1251.334493	-3.001500	3.562500	-10.692000	25.679729	0.000357	20.835437
1252.333189	-2.999300	3.563100	-10.686000	25.666287	0.000358	20.839006
1253.335743	-2.987300	3.561100	-10.637000	25.603397	0.000358	20.843647
1254.336705	-3.003600	3.562600	-10.699000	25.607174	0.000357	20.847914
1255.333115	-2.982100	3.562300	-10.623000	25.619400	0.000355	20.846442
1256.337584	-3.012200	3.561500	-10.727000	25.655603	0.000356	20.857197
1257.336237	-2.979400	3.561400	-10.610000	25.641664	0.000356	20.849362
1258.331957	-2.979300	3.560500	-10.606000	25.651552	0.000354	20.856922
1259.335847	-2.989900	3.560900	-10.646000	25.661144	0.000355	20.859918
1260.333351	-2.980200	3.560100	-10.609000	25.678461	0.000355	20.864508
1261.334285	-2.976100	3.559500	-10.593000	25.718936	0.000354	20.859643
1262.335225	-2.980900	3.559900	-10.611000	25.717420	0.000353	20.835836
1263.336730	-2.998900	3.559300	-10.672000	25.729793	0.000354	20.851108
1264.335603	-3.002000	3.557800	-10.680000	25.717047	0.000353	20.848738
1265.337557	-3.020000	3.559500	-10.749000	25.735184	0.000355	20.874065
1266.336149	-2.981200	3.558700	-10.609000	25.711159	0.000352	20.864160
1267.334728	-3.002600	3.556300	-10.677000	25.669392	0.000353	20.857771
1268.337294	-2.993100	3.555500	-10.641000	25.656423	0.000353	20.852806
1269.338377	-3.001100	3.558200	-10.678000	25.671083	0.000353	20.870373
1270.337763	-3.011500	3.557500	-10.713000	25.668151	0.000350	20.855576
1271.339751	-2.992000	3.557500	-10.643000	25.635899	0.000350	20.870123
1272.341504	-3.004200	3.556700	-10.684000	25.601012	0.000350	20.878233
1273.338068	-2.997400	3.555700	-10.657000	25.569429	0.000349	20.872593
1274.339459	-3.016600	3.554900	-10.722000	25.535237	0.000349	20.878558
1275.339506	-2.984400	3.554700	-10.608000	25.537101	0.000351	20.892756
1276.336590	-2.993100	3.555400	-10.641000	25.591794	0.000348	20.883674
1277.340506	-3.012400	3.554200	-10.705000	25.579420	0.000349	20.868402
1278.338716	-3.000800	3.555200	-10.667000	25.621362	0.000349	20.873067
1279.339271	-2.999600	3.554300	-10.661000	25.667753	0.000349	20.853754
1280.339396	-3.006200	3.554000	-10.684000	25.688598	0.000347	20.881801
1281.339492	-3.002000	3.554000	-10.668000	25.688946	0.000347	20.879780
1282.338250	-2.993600	3.553300	-10.636000	25.684301	0.000348	20.860417
1283.337044	-3.001100	3.554400	-10.666000	25.661765	0.000346	20.865282
1284.339715	-3.005500	3.551800	-10.674000	25.705321	0.000347	20.867779
1285.337960	-3.029600	3.550800	-10.756000	25.681095	0.000347	20.869999
1286.337675	-2.997400	3.551000	-10.642000	25.685791	0.000344	20.874715
1287.341275	-2.987700	3.550700	-10.608000	25.685121	0.000345	20.882576
1288.339500	-3.004200	3.550600	-10.666000	25.702811	0.000345	20.878533
1289.337634	-2.984800	3.551500	-10.600000	25.683780	0.000345	20.867480
1290.341755	-3.003700	3.550000	-10.663000	25.652795	0.000344	20.869549
1291.338549	-2.995200	3.550700	-10.634000	25.628445	0.000343	20.867379
1292.341695	-2.972200	3.550000	-10.550000	25.669815	0.000345	20.861040
1293.343304	-3.002300	3.549100	-10.654000	25.660896	0.000343	20.876263
1294.339859	-3.007300	3.546900	-10.666000	25.731930	0.000342	20.863212
1295.345915	-3.019800	3.549000	-10.717000	25.775930	0.000344	20.872794
1296.341252	-3.002100	3.547600	-10.648000	25.745296	0.000343	20.860990
1297.343538	-3.024000	3.547700	-10.727000	25.737298	0.000342	20.866706
1298.351797	-3.006400	3.547300	-10.663000	25.687828	0.000338	20.862537
1299.343895	-3.023600	3.546900	-10.724000	25.681095	0.000339	20.862887
1300.344786	-2.975200	3.548100	-10.556000	25.687904	0.000340	20.854079
1301.344673	-3.004800	3.546400	-10.655000	25.723161	0.000340	20.850610
1302.343190	-2.966700	3.547400	-10.523000	25.712576	0.000341	20.844246
1303.343223	-2.975100	3.547400	-10.554000	25.702911	0.000340	20.857298
1304.346841	-3.010800	3.545000	-10.673000	25.735335	0.000340	20.850985
1305.349077	-2.988700	3.546100	-10.598000	25.687980	0.000338	20.854155
1306.345560	-3.005500	3.545800	-10.656000	25.656101	0.000339	20.842051
1307.349154	-3.003000	3.544200	-10.642000	25.663877	0.000337	20.851758
1308.347912	-2.987400	3.545200	-10.590000	25.693967	0.000340	20.861116
1309.347344	-3.012900	3.543900	-10.677000	25.697570	0.000335	20.826330
1310.347565	-2.999800	3.545000	-10.634000	25.681990	0.000337	20.844820
1311.346714	-3.009700	3.543500	-10.665000	25.652994	0.000337	20.847466
1312.347980	-3.026900	3.542900	-10.723000	25.661792	0.000337	20.841603
1313.347066	-3.008500	3.542400	-10.657000	25.638211	0.000337	20.854903
1314.348175	-2.983200	3.542700	-10.567000	25.681146	0.000337	20.848240
1315.348433	-2.984600	3.541200	-10.568000	25.710316	0.000335	20.829649
1316.351153	-3.024000	3.540700	-10.706000	25.725222	0.000336	20.839880
1317.348175	-3.011300	3.540000	-10.658000	25.727757	0.000335	20.837684
1318.350032	-3.008200	3.540900	-10.651000	25.685594	0.000335	20.845121
1319.348843	-2.994000	3.542500	-10.605000	25.640051	0.000336	20.838734
1320.351864	-3.013600	3.540700	-10.670000	25.688277	0.000335	20.846393
1321.348629	-3.005100	3.540400	-10.638000	25.714315	0.000335	20.851683
1322.350989	-2.983400	3.540600	-10.561000	25.709322	0.000332	20.842401
1323.352487	-3.002500	3.539200	-10.626000	25.695807	0.000333	20.843051
1324.352101	-2.983500	3.539200	-10.558000	25.657070	0.000332	20.835912
1325.352398	-2.989500	3.539800	-10.581000	25.639478	0.000332	20.841952
1326.353006	-3.003000	3.538700	-10.625000	25.622507	0.000331	20.827278
1327.351580	-2.978700	3.537700	-10.537000	25.610282	0.000332	20.832069
1328.348515	-3.024800	3.538000	-10.701000	25.620596	0.000333	20.844324
1329.351253	-2.996500	3.537500	-10.599000	25.614059	0.000332	20.833018
1330.351461	-3.012800	3.537600	-10.657000	25.660301	0.000332	20.835365
1331.352081	-2.999200	3.536800	-10.607000	25.690416	0.000332	20.814877
1332.352729	-2.990900	3.536600	-10.577000	25.663084	0.000331	20.802599
1333.354043	-3.008400	3.535600	-10.636000	25.639430	0.000329	20.835739
1334.352081	-2.995300	3.536600	-10.592000	25.636946	0.000330	20.827555
1335.355589	-3.009500	3.534700	-10.637000	25.675608	0.000330	20.807117
1336.351939	-2.998700	3.536500	-10.605000	25.681248	0.000329	20.829851
1337.351955	-2.990200	3.534600	-10.569000	25.700976	0.000329	20.797983
1338.354574	-3.002300	3.533900	-10.609000	25.714491	0.000328	20.826257
1339.352504	-2.989900	3.534500	-10.567000	25.685769	0.000328	20.821590
1340.356026	-2.983900	3.533700	-10.543000	25.669768	0.000326	20.822588
1341.354706	-3.014400	3.532900	-10.649000	25.642760	0.000327	20.807316
1342.353520	-3.033100	3.532100	-10.712000	25.628324	0.000327	20.808939
1343.354429	-3.015200	3.532900	-10.651000	25.638461	0.000326	20.806318
1344.356320	-3.032200	3.533600	-10.714000	25.603799	0.000325	20.813231
1345.354079	-3.015800	3.531300	-10.649000	25.658215	0.000325	20.794389
1346.353160	-2.999400	3.531300	-10.590000	25.669246	0.000326	20.822538
1347.358126	-2.998500	3.531400	-10.588000	25.706093	0.000324	20.806442
1348.358735	-3.002600	3.531100	-10.601000	25.706316	0.000324	20.814727
1349.355440	-3.015000	3.529900	-10.642000	25.677173	0.000322	20.803947
1350.359756	-3.015000	3.530100	-10.642000	25.672178	0.000324	20.809836
1351.356262	-3.019900	3.531500	-10.664000	25.699733	0.000323	20.814753
1352.356202	-2.990000	3.529200	-10.551000	25.685594	0.000323	20.816673
1353.361084	-2.996000	3.530200	-10.575000	25.726864	0.000323	20.828727
1354.357724	-3.000400	3.530700	-10.591000	25.700255	0.000324	20.798207
1355.358696	-2.998600	3.530200	-10.585000	25.695186	0.000323	20.806866
1356.359485	-3.002300	3.529600	-10.596000	25.679036	0.000322	20.814353
1357.358074	-2.996700	3.529800	-10.576000	25.680925	0.000320	20.799655
1358.360560	-2.997500	3.527900	-10.574000	25.723261	0.000321	20.793814
1359.360114	-3.016700	3.528000	-10.642000	25.714541	0.000320	20.800228
1360.357256	-3.033400	3.527100	-10.698000	25.684254	0.000324	20.818171
1361.360160	-2.994500	3.528600	-10.566000	25.713524	0.000320	20.814854
1362.359294	-3.013700	3.527600	-10.630000	25.715312	0.000319	20.798632
1363.359245	-3.013700	3.525000	-10.622000	25.760133	0.000321	20.790073
1364.359502	-3.004100	3.525200	-10.588000	25.743685	0.000318	20.783508
1365.360301	-2.990500	3.526000	-10.544000	25.713200	0.000319	20.789873
1366.359657	-3.008500	3.524500	-10.603000	25.719263	0.000318	20.801178
1367.361006	-2.985500	3.526300	-10.527000	25.672950	0.000319	20.775050
1368.361353	-2.993500	3.524900	-10.551000	25.717401	0.000318	20.816377
1369.359243	-2.989500	3.523500	-10.532000	25.709673	0.000320	20.791071
1370.362895	-3.001500	3.523800	-10.576000	25.684828	0.000317	20.798359
1371.363832	-2.986900	3.524100	-10.525000	25.689598	0.000317	20.787978
1372.361764	-3.015300	3.524300	-10.626000	25.682392	0.000315	20.797335
1373.359718	-3.011400	3.522000	-10.605000	25.712430	0.000317	20.785780
1374.362688	-2.989900	3.522000	-10.529000	25.686170	0.000315	20.788801
1375.361023	-3.002600	3.522100	-10.574000	25.665000	0.000313	20.789824
1376.367981	-3.006800	3.522800	-10.591000	25.676952	0.000315	20.779544
1377.362070	-3.012500	3.523000	-10.612000	25.689499	0.000315	20.793568
1378.360821	-3.012300	3.520900	-10.605000	25.713751	0.000317	20.776675
1379.362816	-3.003700	3.521900	-10.578000	25.738669	0.000314	20.779893
1380.364623	-2.996600	3.521000	-10.551000	25.723663	0.000313	20.779993
1381.360390	-2.976800	3.520700	-10.480000	25.724136	0.000316	20.783313
1382.362535	-2.990900	3.520400	-10.527000	25.727391	0.000314	20.781367
1383.364016	-2.975500	3.519200	-10.470000	25.720135	0.000315	20.793994
1384.363525	-2.987800	3.518500	-10.511000	25.676234	0.000313	20.788305
1385.364286	-2.978500	3.518900	-10.480000	25.669375	0.000313	20.787581
1386.366963	-2.996500	3.519200	-10.545000	25.675164	0.000312	20.771584
1387.364055	-2.993300	3.518300	-10.531000	25.643735	0.000314	20.791700
1388.361443	-2.995300	3.518000	-10.537000	25.631434	0.000311	20.785510
1389.363595	-3.000100	3.518000	-10.553000	25.656779	0.000312	20.773032
1390.364186	-3.005700	3.517400	-10.571000	25.639361	0.000312	20.789204
1391.363043	-3.016200	3.517500	-10.608000	25.629273	0.000311	20.756312
1392.365558	-3.007500	3.516800	-10.576000	25.648753	0.000312	20.794844
1393.363400	-2.985900	3.516900	-10.500000	25.688087	0.000313	20.763226
1394.365143	-2.996900	3.516100	-10.537000	25.716236	0.000308	20.779646
1395.369339	-3.020800	3.515500	-10.619000	25.750150	0.000310	20.786209
1396.365425	-2.996700	3.517100	-10.539000	25.758151	0.000310	20.783341
1397.365275	-2.983700	3.516000	-10.489000	25.780187	0.000310	20.795518
1398.367757	-3.005100	3.514800	-10.561000	25.783467	0.000310	20.756612
1399.367240	-3.001400	3.513700	-10.545000	25.791169	0.000309	20.787109
1400.374353	-2.992900	3.515000	-10.519000	25.748933	0.000308	20.780246
1401.372321	-3.000300	3.513700	-10.541000	25.696757	0.000307	20.774780
1402.374596	-3.022100	3.512600	-10.615000	25.698125	0.000306	20.773783
1403.371884	-2.993000	3.513400	-10.515000	25.678445	0.000307	20.794794
1404.372961	-3.020200	3.511500	-10.605000	25.742199	0.000307	20.775378
1405.370965	-3.024100	3.511000	-10.617000	25.701899	0.000306	20.769039
1406.371297	-2.992000	3.512900	-10.509000	25.752013	0.000305	20.778124
1407.373062	-3.027100	3.510800	-10.626000	25.787763	0.000305	20.777524
1408.371214	-3.019700	3.510900	-10.600000	25.782944	0.000306	20.768889
1409.371225	-3.004600	3.511600	-10.549000	25.761057	0.000305	20.776776
1410.375562	-3.005900	3.509500	-10.549000	25.770721	0.000308	20.754240
1411.370467	-2.991000	3.510800	-10.500000	25.771564	0.000304	20.768838
1412.371736	-3.018900	3.509600	-10.594000	25.790421	0.000306	20.788728
1413.376529	-2.992000	3.509300	-10.498000	25.817973	0.000304	20.766144
1414.372242	-3.006000	3.510900	-10.553000	25.780881	0.000305	20.772507
1415.373566	-2.973300	3.509900	-10.435000	25.759365	0.000303	20.774603
1416.377369	-3.000400	3.507600	-10.523000	25.769080	0.000303	20.769188
1417.372859	-2.992700	3.508000	-10.497000	25.803762	0.000303	20.790275
1418.374554	-2.998100	3.507500	-10.514000	25.848255	0.000306	20.780442
1419.378589	-2.977200	3.507800	-10.442000	25.857223	0.000304	20.762424
1420.373120	-2.996500	3.507300	-10.509000	25.874587	0.000303	20.760901
1421.375857	-3.019900	3.505700	-10.585000	25.902037	0.000304	20.747224
1422.378210	-3.031300	3.506100	-10.627000	25.913141	0.000300	20.765967
1423.375532	-2.967300	3.506900	-10.405000	25.843037	0.000302	20.759079
1424.375482	-2.978700	3.506700	-10.444000	25.843882	0.000303	20.757556
1425.376535	-2.975400	3.507300	-10.434000	25.776755	0.000302	20.782588
1426.382012	-2.985000	3.505300	-10.463000	25.764506	0.000299	20.747049
1427.376481	-2.991500	3.505500	-10.486000	25.755289	0.000300	20.767189
1428.376815	-3.006800	3.505000	-10.539000	25.764631	0.000299	20.748597
1429.373693	-2.997300	3.503600	-10.501000	25.715635	0.000297	20.765765
1430.376107	-2.984800	3.504600	-10.459000	25.707337	0.000300	20.750318
1431.378885	-3.038200	3.502800	-10.641000	25.717176	0.000299	20.758779
1432.377226	-3.000400	3.503300	-10.510000	25.687708	0.000297	20.757156
1433.374815	-2.992500	3.503000	-10.481000	25.721945	0.000297	20.769259
1434.379337	-2.985700	3.502600	-10.457000	25.753200	0.000298	20.757030
1435.376358	-2.988500	3.503100	-10.468000	25.760976	0.000297	20.774798
1436.377003	-3.011800	3.501800	-10.546000	25.713671	0.000297	20.770905
1437.377877	-2.991100	3.501700	-10.473000	25.720950	0.000295	20.763992
1438.378044	-2.979500	3.501200	-10.431000	25.702937	0.000296	20.753960
1439.378031	-2.988200	3.501400	-10.462000	25.735881	0.000294	20.756230
1440.379291	-3.007900	3.500100	-10.528000	25.763260	0.000296	20.751962
1441.378655	-2.996300	3.500100	-10.486000	25.766938	0.000296	20.761346
1442.379271	-2.981000	3.500500	-10.434000	25.768478	0.000299	20.767160
1443.379840	-2.991000	3.499600	-10.467000	25.735309	0.000294	20.760870
1444.378709	-2.999400	3.497700	-10.490000	25.771036	0.000295	20.753609
1445.379195	-2.997600	3.498800	-10.487000	25.786513	0.000293	20.752559
1446.381263	-3.012600	3.497900	-10.537000	25.777098	0.000294	20.742154
1447.379282	-2.988600	3.499500	-10.458000	25.748104	0.000291	20.745747
1448.377227	-2.996000	3.497500	-10.477000	25.695854	0.000292	20.756802
1449.380134	-2.997700	3.497400	-10.484000	25.718911	0.000292	20.749615
1450.379352	-2.997200	3.496800	-10.480000	25.747905	0.000291	20.746495
1451.379224	-3.005200	3.496200	-10.506000	25.743257	0.000293	20.737085
1452.383885	-3.000900	3.497200	-10.494000	25.778388	0.000291	20.752933
1453.379700	-2.994600	3.497600	-10.473000	25.750785	0.000290	20.755552
1454.382896	-2.988100	3.495800	-10.446000	25.731357	0.000290	20.735088
1455.382911	-3.004700	3.496000	-10.504000	25.726015	0.000290	20.740155
1456.381097	-3.007700	3.494100	-10.507000	25.714834	0.000292	20.757849
1457.380629	-3.021600	3.493700	-10.556000	25.777418	0.000290	20.759545
1458.383003	-2.978400	3.494200	-10.406000	25.784746	0.000289	20.732766
1459.381445	-3.002400	3.493400	-10.487000	25.812696	0.000289	20.737609
1460.380285	-2.973400	3.494200	-10.388000	25.797840	0.000288	20.722211
1461.383318	-2.989400	3.493900	-10.444000	25.831453	0.000289	20.736062
1462.382162	-2.988900	3.494200	-10.443000	25.862631	0.000288	20.742251
1463.384920	-2.988000	3.492700	-10.434000	25.879648	0.000289	20.753657
1464.384245	-3.001600	3.491400	-10.479000	25.841763	0.000287	20.746419
1465.381658	-3.010700	3.491300	-10.510000	25.828174	0.000284	20.747467
1466.381913	-2.974000	3.492100	-10.384000	25.775158	0.000287	20.743998
1467.382846	-3.006300	3.490600	-10.493000	25.785643	0.000286	20.741254
1468.380565	-3.000200	3.491100	-10.473000	25.763456	0.000286	20.724182
1469.380198	-2.994900	3.489900	-10.451000	25.805244	0.000284	20.743874
1470.385076	-2.996700	3.490300	-10.459000	25.809393	0.000286	20.737136
1471.380364	-3.004100	3.490500	-10.484000	25.810684	0.000287	20.729423
1472.380742	-3.007400	3.489200	-10.493000	25.808176	0.000286	20.727377
1473.384740	-3.001500	3.489500	-10.473000	25.790163	0.000283	20.714972
1474.381121	-3.016300	3.490000	-10.525000	25.803579	0.000284	20.722285
1475.380229	-3.022100	3.489400	-10.544000	25.820348	0.000283	20.718267
1476.384576	-3.004300	3.487700	-10.477000	25.801790	0.000284	20.748939
1477.381332	-3.013700	3.488700	-10.513000	25.808646	0.000281	20.745394
1478.380849	-3.000300	3.487700	-10.463000	25.847848	0.000282	20.734987
1479.383951	-3.006800	3.486200	-10.482000	25.854307	0.000283	20.744320
1480.380173	-3.034900	3.485100	-10.575000	25.875746	0.000282	20.734089
1481.382442	-3.002100	3.486900	-10.467000	25.837836	0.000281	20.725877
1482.383468	-3.020100	3.484800	-10.524000	25.788671	0.000280	20.746192
1483.382309	-2.985600	3.486200	-10.408000	25.789193	0.000281	20.723481
1484.382050	-2.990600	3.485200	-10.421000	25.798234	0.000281	20.729245
1485.386421	-2.982100	3.485400	-10.393000	25.804073	0.000281	20.717092
1486.383399	-3.009500	3.484100	-10.485000	25.873633	0.000280	20.729120
1487.384049	-3.015300	3.484600	-10.506000	25.891121	0.000281	20.713497
1488.390477	-3.014700	3.482200	-10.497000	25.847622	0.000278	20.726699
1489.384861	-3.010500	3.483800	-10.487000	25.811898	0.000280	20.725427
1490.386852	-2.978500	3.484100	-10.377000	25.799375	0.000276	20.736081
1491.385684	-3.005600	3.483500	-10.469000	25.822506	0.000280	20.730392
1492.385459	-2.992600	3.482300	-10.420000	25.866202	0.000278	20.746787
1493.387498	-2.983600	3.484400	-10.395000	25.892485	0.000276	20.725774
1494.390303	-2.980100	3.482100	-10.376000	25.904059	0.000276	20.725073
1495.388783	-3.009600	3.482000	-10.478000	25.887813	0.000278	20.723926
1496.390262	-2.981900	3.481500	-10.380000	25.863021	0.000274	20.709450
1497.390284	-2.996600	3.481100	-10.431000	25.821832	0.000277	20.712645
1498.396869	-3.015400	3.479600	-10.491000	25.781436	0.000275	20.731811
1499.390720	-3.013500	3.480600	-10.489000	25.758058	0.000274	20.723975
1500.388703	-2.995300	3.479600	-10.421000	25.743573	0.000277	20.717486
1501.388129	-2.995500	3.479800	-10.422000	25.806280	0.000274	20.739224
1502.388474	-2.987600	3.480200	-10.397000	25.816118	0.000274	20.733459
1503.391686	-3.018100	3.477000	-10.493000	25.877205	0.000275	20.722278
1504.387118	-2.999600	3.478100	-10.432000	25.891538	0.000274	20.718184
1505.389981	-2.995100	3.478900	-10.419000	25.886048	0.000276	20.715513
1506.388537	-3.002700	3.478200	-10.443000	25.916926	0.000274	20.712395
1507.388396	-2.990000	3.477600	-10.397000	25.894344	0.000272	20.721952
1508.386981	-3.017900	3.477000	-10.493000	25.844685	0.000274	20.721378
1509.397709	-3.003300	3.477700	-10.443000	25.823496	0.000276	20.702936
1510.390703	-3.028000	3.477500	-10.529000	25.834326	0.000273	20.716187
1511.390014	-3.016000	3.476300	-10.484000	25.832961	0.000270	20.701064
1512.392301	-3.007100	3.475900	-10.452000	25.847866	0.000272	20.725995
1513.390997	-3.015000	3.475300	-10.477000	25.851616	0.000272	20.705579
1514.392085	-3.015900	3.475500	-10.481000	25.899114	0.000271	20.712518
1515.395123	-2.998900	3.474900	-10.419000	25.923137	0.000270	20.716263
1516.391151	-2.996500	3.474000	-10.409000	25.934065	0.000270	20.708749
1517.392072	-2.995400	3.475900	-10.409000	25.935656	0.000271	20.717460
1518.394821	-2.987900	3.475000	-10.382000	25.948001	0.000270	20.711370
1519.394710	-3.005100	3.473600	-10.437000	25.949791	0.000270	20.722178
1520.393409	-2.993000	3.474300	-10.397000	25.910268	0.000268	20.691953
1521.397374	-2.996900	3.474300	-10.411000	25.872484	0.000268	20.698093
1522.393837	-3.001700	3.472000	-10.421000	25.830004	0.000267	20.712793
1523.394595	-2.988200	3.471700	-10.373000	25.835866	0.000267	20.715363
1524.395897	-3.007700	3.472700	-10.444000	25.829829	0.000270	20.704082
1525.394010	-3.010900	3.470200	-10.448000	25.834499	0.000268	20.693600
1526.395693	-3.002300	3.471700	-10.423000	25.794800	0.000269	20.693076
1527.396358	-2.993000	3.472700	-10.393000	25.769533	0.000267	20.700887
1528.397138	-2.985200	3.472100	-10.364000	25.762452	0.000266	20.712742
1529.397165	-2.993700	3.470900	-10.390000	25.772936	0.000266	20.706677
1530.399027	-2.991400	3.472200	-10.386000	25.797407	0.000265	20.744536
1531.398248	-3.012800	3.469800	-10.453000	25.853179	0.000263	20.716159
1532.396743	-3.000800	3.469300	-10.410000	25.847541	0.000265	20.728988
1533.401107	-3.007900	3.469400	-10.435000	25.829430	0.000264	20.695146
1534.398214	-2.985200	3.470200	-10.359000	25.836982	0.000265	20.716958
1535.398409	-2.995200	3.469200	-10.390000	25.842298	0.000265	20.726567
1536.404073	-2.987200	3.469000	-10.362000	25.805182	0.000264	20.707299
1537.400377	-3.010000	3.467400	-10.436000	25.876431	0.000264	20.717706
1538.402115	-2.991100	3.468800	-10.375000	25.883088	0.000263	20.718705
1539.406377	-2.995900	3.467500	-10.388000	25.904153	0.000264	20.689603
1540.401158	-2.998500	3.467100	-10.395000	25.829006	0.000263	20.700885
1541.408726	-2.997500	3.467100	-10.392000	25.787764	0.000263	20.720150
1542.408156	-2.971700	3.467600	-10.304000	25.755518	0.000262	20.713837
1543.403635	-3.004200	3.465400	-10.410000	25.766722	0.000261	20.707547
1544.406298	-3.038300	3.465100	-10.526000	25.810545	0.000261	20.711739
1545.406948	-2.990200	3.464900	-10.360000	25.775243	0.000262	20.716581
1546.406465	-2.986900	3.466300	-10.353000	25.758374	0.000262	20.719551
1547.407358	-3.016700	3.465200	-10.452000	25.827216	0.000260	20.715683
1548.406419	-3.002500	3.463300	-10.398000	25.830271	0.000260	20.706423
1549.405692	-3.002900	3.464400	-10.403000	25.807986	0.000261	20.712012
1550.409231	-3.010100	3.464800	-10.429000	25.812631	0.000258	20.705772
1551.406769	-3.015500	3.463100	-10.442000	25.795688	0.000257	20.719575
1552.405424	-2.997900	3.462700	-10.380000	25.810321	0.000258	20.711039
1553.407246	-2.978800	3.464600	-10.319000	25.839115	0.000258	20.706773
1554.409545	-3.004200	3.463000	-10.402000	25.860008	0.000257	20.712587
1555.409094	-2.977000	3.462800	-10.308000	25.876254	0.000260	20.720848
1556.407989	-3.026800	3.461000	-10.475000	25.845374	0.000258	20.699783
1557.408029	-2.992800	3.462400	-10.360000	25.820557	0.000259	20.725115
1558.409497	-3.002600	3.461400	-10.392000	25.802023	0.000258	20.705074
1559.410425	-3.010800	3.461200	-10.420000	25.815910	0.000257	20.698160
1560.413814	-3.000900	3.461700	-10.387000	25.809450	0.000257	20.703051
1561.411120	-2.997400	3.460500	-10.371000	25.792186	0.000258	20.716056
1562.412594	-2.997100	3.460600	-10.371000	25.794644	0.000255	20.718051
1563.413605	-2.995900	3.459200	-10.362000	25.816382	0.000256	20.700531
1564.410312	-2.991800	3.459400	-10.349000	25.831660	0.000258	20.728208
1565.408824	-2.995400	3.459100	-10.360000	25.842641	0.000254	20.711263
1566.413826	-2.996300	3.459400	-10.364000	25.852900	0.000255	20.730579
1567.410968	-2.998100	3.458400	-10.367000	25.900026	0.000255	20.727659
1568.418151	-3.016300	3.458200	-10.430000	25.855384	0.000254	20.724065
1569.415018	-3.002000	3.457500	-10.378000	25.820530	0.000253	20.713233
1570.411821	-3.012600	3.455900	-10.411000	25.849745	0.000253	20.715555
1571.416902	-3.002400	3.456500	-10.377000	25.854688	0.000252	20.720046
1572.416896	-3.007600	3.456600	-10.395000	25.858142	0.000252	20.747699
1573.412499	-2.999200	3.457700	-10.369000	25.861794	0.000253	20.717701
1574.414028	-3.007100	3.456200	-10.392000	25.865495	0.000251	20.714780
1575.422368	-3.001600	3.455100	-10.370000	25.908471	0.000251	20.736618
1576.416793	-2.991100	3.454100	-10.330000	25.932691	0.000253	20.727759
1577.418242	-2.979300	3.456200	-10.297000	25.925586	0.000250	20.720620
1578.419306	-2.988500	3.454700	-10.323000	25.947172	0.000251	20.723341
1579.413261	-3.007200	3.455400	-10.391000	25.974619	0.000249	20.730053
1580.414000	-3.006200	3.453700	-10.382000	25.930008	0.000249	20.719847
1581.418726	-3.006600	3.454400	-10.385000	25.892746	0.000250	20.726511
1582.414186	-2.993800	3.454500	-10.341000	25.835808	0.000248	20.749445
1583.412123	-3.013900	3.452000	-10.403000	25.824131	0.000247	20.727758
1584.418866	-3.038600	3.451000	-10.485000	25.834788	0.000249	20.737041
1585.414567	-3.012100	3.451200	-10.394000	25.834042	0.000248	20.722540
1586.419647	-3.009400	3.451700	-10.387000	25.855929	0.000248	20.743580
1587.418186	-2.996400	3.451900	-10.342000	25.827806	0.000248	20.750890
1588.416385	-3.012000	3.451500	-10.395000	25.830564	0.000250	20.726633
1589.417449	-2.989100	3.452100	-10.318000	25.905588	0.000246	20.726609
1590.417308	-3.011100	3.449800	-10.386000	25.955766	0.000246	20.718697
1591.415227	-3.007600	3.450600	-10.377000	25.920617	0.000246	20.727483
1592.418693	-3.010600	3.450000	-10.385000	25.914356	0.000248	20.758178
1593.416927	-3.019300	3.448500	-10.410000	25.905761	0.000245	20.734844
1594.414874	-2.992900	3.451000	-10.328000	25.861792	0.000244	20.735244
1595.417907	-3.008100	3.450200	-10.377000	25.806766	0.000247	20.740186
1596.420971	-3.007100	3.449100	-10.371000	25.784853	0.000244	20.735718
1597.416817	-3.029800	3.448200	-10.446000	25.833297	0.000244	20.726059
1598.419470	-3.012700	3.448900	-10.389000	25.885416	0.000246	20.724837
1599.422952	-2.991200	3.447800	-10.312000	25.911301	0.000243	20.746100
1600.417046	-3.000800	3.448200	-10.346000	25.954673	0.000245	20.720445
1601.419713	-3.024700	3.447500	-10.426000	25.889962	0.000244	20.731774
1602.422582	-2.997600	3.446600	-10.330000	25.834985	0.000242	20.753835
1603.418723	-3.017500	3.446400	-10.398000	25.822491	0.000244	20.739861
1604.421301	-2.995000	3.445900	-10.319000	25.831285	0.000242	20.747747
1605.421740	-2.995900	3.446900	-10.325000	25.838315	0.000243	20.742955
1606.418054	-3.015500	3.445400	-10.389000	25.818317	0.000243	20.744678
1607.421247	-2.994600	3.445300	-10.316000	25.893490	0.000243	20.732948
1608.420948	-2.995900	3.445300	-10.321000	25.922230	0.000240	20.742854
1609.418069	-3.012200	3.443000	-10.370000	25.919373	0.000240	20.751365
1610.420665	-2.998600	3.445200	-10.330000	25.899426	0.000241	20.738912
1611.421880	-3.007800	3.445100	-10.362000	25.929160	0.000241	20.742230
1612.419142	-3.021500	3.443100	-10.402000	25.887750	0.000241	20.753735
1613.422410	-3.001100	3.443400	-10.333000	25.919920	0.000240	20.749068
1614.420745	-2.993500	3.443600	-10.308000	25.905189	0.000240	20.743753
1615.418687	-3.007500	3.442700	-10.354000	25.908790	0.000240	20.751638
1616.423426	-3.007600	3.442600	-10.353000	25.890383	0.000239	20.754009
1617.421449	-3.026400	3.441100	-10.412000	25.839705	0.000239	20.753361
1618.419559	-3.012700	3.441300	-10.367000	25.886483	0.000236	20.755781
1619.423163	-2.995300	3.441200	-10.306000	25.940439	0.000238	20.760674
1620.424182	-2.982800	3.441600	-10.265000	25.958000	0.000237	20.758402
1621.419127	-3.021500	3.440000	-10.392000	25.973847	0.000237	20.763418
1622.419661	-2.982000	3.441800	-10.262000	25.958943	0.000237	20.753659
1623.420792	-3.007900	3.438800	-10.343000	25.904742	0.000235	20.749942
1624.419386	-2.984600	3.440400	-10.267000	25.916043	0.000237	20.753235
1625.423412	-3.008500	3.440600	-10.350000	25.953827	0.000237	20.762270
1626.428306	-3.003400	3.438500	-10.327000	25.930972	0.000234	20.746421
1627.421305	-3.013200	3.438900	-10.362000	25.925582	0.000237	20.740532
1628.422050	-2.987000	3.438300	-10.269000	25.969649	0.000234	20.769632
1629.421298	-2.985600	3.439000	-10.267000	26.007925	0.000236	20.754507
1630.424061	-2.984700	3.438500	-10.261000	26.021364	0.000237	20.755206
1631.421803	-2.993300	3.437300	-10.288000	25.967090	0.000236	20.747146
1632.423859	-2.995700	3.436700	-10.295000	25.968307	0.000235	20.763067
1633.420829	-2.997000	3.436700	-10.299000	25.946299	0.000232	20.757078
1634.420791	-3.005300	3.435000	-10.322000	25.975113	0.000234	20.740033
1635.426964	-2.998700	3.436400	-10.303000	25.935965	0.000233	20.759973
1636.423109	-3.003400	3.435400	-10.317000	25.920862	0.000234	20.756180
1637.424037	-2.990100	3.435900	-10.272000	25.923744	0.000232	20.765713
1638.428869	-2.997400	3.436300	-10.299000	25.988551	0.000232	20.767759
1639.424514	-2.997400	3.434500	-10.293000	25.987160	0.000232	20.767310
1640.425874	-3.043300	3.434600	-10.452000	25.969475	0.000232	20.768982
1641.427048	-2.994500	3.434800	-10.285000	25.976082	0.000234	20.763292
1642.424729	-3.008200	3.433400	-10.327000	25.949031	0.000232	20.754132
1643.424431	-2.995000	3.433200	-10.282000	25.929358	0.000230	20.779888
1644.428495	-2.996600	3.433500	-10.288000	25.871850	0.000231	20.757677
1645.425659	-2.993000	3.433400	-10.275000	25.905387	0.000231	20.779515
1646.428252	-3.007600	3.434300	-10.327000	25.888916	0.000230	20.770080
1647.430074	-3.002400	3.431700	-10.303000	25.884818	0.000231	20.771653
1648.423456	-3.015900	3.431500	-10.348000	25.889439	0.000229	20.775347
1649.425623	-3.015700	3.431100	-10.346000	25.938922	0.000229	20.789971
1650.431885	-3.013800	3.430300	-10.337000	25.938723	0.000229	20.773649
1651.425591	-2.999300	3.431300	-10.291000	25.875502	0.000225	20.784106
1652.423545	-3.015800	3.431300	-10.347000	25.889215	0.000229	20.781760
1653.428619	-3.023500	3.429900	-10.369000	25.925384	0.000228	20.785853
1654.424900	-3.029900	3.429100	-10.389000	25.975983	0.000227	20.776469
1655.428079	-2.971300	3.431400	-10.195000	25.984552	0.000229	20.769431
1656.430579	-2.975000	3.430500	-10.205000	25.963663	0.000225	20.765040
1657.425025	-2.994200	3.429200	-10.267000	25.936860	0.000227	20.772252
1658.429064	-3.006200	3.428700	-10.307000	25.908318	0.000226	20.779614
1659.429413	-2.968100	3.430100	-10.179000	25.836699	0.000224	20.773575
1660.425813	-2.990300	3.429500	-10.255000	25.877142	0.000225	20.764416
1661.425001	-3.016000	3.427800	-10.337000	25.940834	0.000225	20.774347
1662.431002	-3.014400	3.426900	-10.330000	25.947641	0.000224	20.776444
1663.427638	-3.004100	3.427900	-10.297000	25.952882	0.000224	20.785503
1664.428685	-2.996100	3.427800	-10.270000	25.965848	0.000221	20.788572
1665.429632	-2.994400	3.426300	-10.258000	25.925806	0.000222	20.785329
1666.427505	-3.011600	3.426300	-10.318000	25.900319	0.000222	20.767785
1667.430426	-3.013300	3.425600	-10.321000	25.903574	0.000223	20.774848
1668.431680	-3.011800	3.426100	-10.318000	25.915895	0.000223	20.766837
1669.428780	-3.007800	3.424900	-10.300000	25.909957	0.000222	20.790744
1670.432621	-3.009600	3.424800	-10.305000	25.933457	0.000222	20.765514
1671.436525	-2.989200	3.423700	-10.233000	25.937034	0.000222	20.772901
1672.430178	-3.010600	3.425400	-10.311000	25.943020	0.000222	20.776070
1673.433997	-2.994600	3.424200	-10.253000	25.920889	0.000221	20.793192
1674.435784	-3.007800	3.424500	-10.300000	25.957429	0.000220	20.787701
1675.432200	-2.979500	3.424400	-10.202000	25.946500	0.000219	20.813230
1676.433803	-2.984000	3.422000	-10.210000	25.892992	0.000220	20.802624
1677.435062	-3.000200	3.422400	-10.267000	25.916889	0.000220	20.798656
1678.432162	-2.987600	3.422500	-10.224000	25.957504	0.000218	20.790621
1679.434921	-3.009700	3.422100	-10.299000	25.976283	0.000217	20.809013
1680.435778	-2.975200	3.421600	-10.179000	25.947891	0.000220	20.802300
1681.432096	-2.974200	3.422300	-10.178000	25.985497	0.000217	20.787451
1682.436416	-3.002100	3.420400	-10.268000	25.977177	0.000218	20.790471
1683.435573	-2.985100	3.421000	-10.211000	25.980977	0.000218	20.795712
1684.432816	-2.986300	3.420100	-10.212000	25.992604	0.000218	20.787004
1685.436515	-3.003500	3.420500	-10.273000	26.030854	0.000217	20.797933
1686.435508	-3.002800	3.419600	-10.268000	26.035300	0.000216	20.791968
1687.433080	-3.014700	3.418300	-10.304000	26.017417	0.000216	20.792019
1688.432506	-2.994300	3.418600	-10.235000	26.017516	0.000215	20.780265
1689.438474	-3.012100	3.418800	-10.296000	26.019155	0.000218	20.789972
1690.441670	-2.997800	3.418200	-10.247000	26.008276	0.000216	20.796111
1691.433270	-3.001600	3.417500	-10.256000	26.001819	0.000216	20.798158
1692.438895	-2.985600	3.418300	-10.205000	26.020049	0.000216	20.798931
1693.436695	-2.984400	3.416600	-10.196000	26.064138	0.000216	20.787752
1694.436401	-3.000400	3.416900	-10.251000	26.114532	0.000216	20.791446
1695.438026	-2.991000	3.417700	-10.222000	26.110706	0.000215	20.819369
1696.435252	-2.984600	3.417400	-10.198000	26.159559	0.000215	20.801602
1697.439762	-3.007700	3.416800	-10.276000	26.176274	0.000214	20.803699
1698.439050	-3.004900	3.416000	-10.264000	26.121112	0.000214	20.795687
1699.436413	-2.996800	3.416500	-10.238000	26.119671	0.000216	20.809885
1700.442253	-3.019600	3.415200	-10.311000	26.106608	0.000213	20.822364
1701.442255	-3.007600	3.414600	-10.269000	26.091035	0.000214	20.821890
1702.437999	-3.014200	3.413200	-10.288000	26.115896	0.000213	20.800876
1703.440274	-2.998100	3.415100	-10.239000	26.057380	0.000213	20.806566
1704.443324	-3.005300	3.413700	-10.258000	26.041831	0.000212	20.801376
1705.439395	-3.004500	3.413600	-10.255000	26.025959	0.000211	20.826680
1706.440259	-2.986800	3.413900	-10.196000	26.042029	0.000212	20.826230
1707.443444	-2.998800	3.412800	-10.234000	26.028493	0.000211	20.813579
1708.440035	-2.984600	3.414100	-10.189000	26.077969	0.000210	20.815874
1709.442070	-2.999400	3.413700	-10.238000	26.059814	0.000212	20.806167
1710.442594	-2.992700	3.411400	-10.208000	26.067389	0.000209	20.815675
1711.438409	-2.978000	3.412400	-10.162000	26.062099	0.000209	20.816523
1712.442311	-3.012800	3.412400	-10.280000	26.075561	0.000209	20.826731
1713.443702	-2.994600	3.411000	-10.214000	26.087780	0.000210	20.818619
1714.441006	-2.993900	3.411100	-10.212000	26.104396	0.000209	20.819667
1715.443221	-3.013000	3.410100	-10.274000	26.081422	0.000208	20.814602
1716.442679	-2.984900	3.410200	-10.178000	26.047992	0.000209	20.846445
1717.439852	-2.995400	3.409100	-10.210000	26.055169	0.000208	20.822362
1718.442833	-2.990000	3.409000	-10.191000	26.109661	0.000207	20.808362
1719.445786	-3.013600	3.408200	-10.270000	26.078715	0.000207	20.835114
1720.443282	-2.988500	3.408800	-10.186000	26.093219	0.000207	20.812704
1721.443191	-3.017900	3.407000	-10.281000	26.085694	0.000203	20.822687
1722.452244	-3.009300	3.408200	-10.255000	26.110034	0.000205	20.839082
1723.444710	-2.992800	3.408600	-10.201000	26.073722	0.000207	20.840055
1724.443055	-3.006600	3.406300	-10.240000	26.064210	0.000206	20.825282
1725.448682	-2.980900	3.407700	-10.157000	26.051915	0.000206	20.833318
1726.443645	-3.001500	3.407000	-10.225000	26.068903	0.000207	20.815773
1727.443995	-2.975000	3.406700	-10.134000	26.106084	0.000206	20.815673
1728.447990	-2.997900	3.406100	-10.210000	26.060012	0.000204	20.831970
1729.442406	-3.005800	3.406000	-10.237000	26.070467	0.000205	20.822560
1730.445308	-2.993900	3.406000	-10.196000	26.047245	0.000204	20.808238
1731.447085	-2.999600	3.405000	-10.212000	26.029361	0.000202	20.845269
1732.443998	-2.984300	3.405200	-10.161000	26.031646	0.000204	20.844246
1733.444624	-3.020800	3.403300	-10.279000	26.042574	0.000203	20.834838
1734.446338	-3.019600	3.402800	-10.274000	26.032788	0.000202	20.817894
1735.442676	-2.984500	3.404100	-10.158000	26.015948	0.000203	20.838906
1736.444623	-3.021100	3.403200	-10.281000	25.994289	0.000204	20.841327
1737.445816	-3.024400	3.403300	-10.292000	26.050001	0.000200	20.834714
1738.441612	-2.991600	3.402600	-10.179000	26.062916	0.000201	20.841052
1739.445751	-2.993400	3.403100	-10.186000	26.048412	0.000201	20.847341
1740.444059	-2.988500	3.403000	-10.169000	25.992823	0.000201	20.835587
1741.443856	-3.009500	3.401300	-10.235000	26.017066	0.000204	20.854253
1742.445067	-2.985400	3.401400	-10.153000	26.041357	0.000199	20.853529
1743.444963	-2.993400	3.402100	-10.183000	26.112963	0.000199	20.856249
1744.445489	-3.004200	3.400100	-10.214000	26.112715	0.000199	20.850310
1745.446757	-3.000400	3.401600	-10.206000	26.109411	0.000199	20.856473
1746.447321	-3.006500	3.399900	-10.221000	26.136532	0.000200	20.832517
1747.450431	-3.004900	3.401300	-10.219000	26.146740	0.000199	20.846093
1748.449783	-3.006900	3.399300	-10.220000	26.143113	0.000199	20.855250
1749.446218	-3.010100	3.399100	-10.231000	26.138518	0.000199	20.844469
1750.450782	-3.000400	3.399200	-10.198000	26.197003	0.000199	20.832590
1751.445818	-3.011200	3.399400	-10.236000	26.187691	0.000197	20.845043
1752.450140	-2.999800	3.398100	-10.192000	26.172343	0.000197	20.877033
1753.455182	-2.977300	3.400200	-10.121000	26.127267	0.000197	20.865406
1754.449562	-2.987600	3.397800	-10.150000	26.152623	0.000197	20.860065
1755.452413	-3.011000	3.397900	-10.230000	26.201076	0.000198	20.848535
1756.451059	-2.980000	3.397100	-10.123000	26.229014	0.000196	20.873289
1757.451197	-3.010700	3.396400	-10.224000	26.270908	0.000195	20.885991
1758.452044	-3.008300	3.395200	-10.213000	26.306269	0.000196	20.872216
1759.451675	-3.034900	3.396100	-10.305000	26.229040	0.000196	20.866203
1760.450259	-2.984900	3.397200	-10.140000	26.145296	0.000195	20.838953
1761.450486	-3.006500	3.397800	-10.214000	26.063261	0.000194	20.858467
1762.452780	-3.023400	3.393600	-10.260000	26.039243	0.000193	20.874163
1763.452489	-3.011400	3.395700	-10.226000	26.035269	0.000192	20.875386
1764.453288	-2.990400	3.394100	-10.149000	26.007101	0.000193	20.857043
1765.453737	-3.012200	3.394200	-10.223000	25.954045	0.000194	20.875810
1766.454419	-2.991500	3.394200	-10.153000	26.005636	0.000191	20.883071
1767.453341	-3.009200	3.393300	-10.210000	26.057796	0.000192	20.889484
1768.455904	-2.998900	3.394600	-10.179000	26.096593	0.000191	20.860189
1769.453024	-3.005500	3.393200	-10.198000	26.107445	0.000194	20.866726
1770.453454	-2.993700	3.393500	-10.158000	26.125352	0.000192	20.879128
1771.459117	-3.025500	3.392000	-10.261000	26.098554	0.000189	20.879702
1772.451772	-2.997700	3.393100	-10.170000	26.080622	0.000194	20.883970
1773.451736	-2.999100	3.392500	-10.174000	26.054021	0.000191	20.870519
1774.455888	-2.987600	3.392900	-10.135000	26.086384	0.000192	20.867001
1775.452999	-3.007000	3.391200	-10.196000	26.141098	0.000192	20.877406
1776.453420	-2.997800	3.392100	-10.168000	26.185901	0.000191	20.874062
1777.454291	-3.008100	3.391900	-10.202000	26.217267	0.000191	20.864330
1778.455296	-3.023100	3.389200	-10.245000	26.229113	0.000189	20.868647
1779.454613	-3.010600	3.389800	-10.203000	26.226256	0.000189	20.873837
1780.455314	-3.004900	3.390800	-10.188000	26.219328	0.000188	20.887263
1781.456528	-3.009800	3.389500	-10.201000	26.206389	0.000189	20.855770
1782.456026	-3.014600	3.387100	-10.211000	26.185379	0.000189	20.870219
1783.457992	-2.995800	3.388700	-10.151000	26.206986	0.000188	20.869171
1784.459512	-3.006200	3.387700	-10.183000	26.138341	0.000188	20.887911
1785.460442	-3.019700	3.386600	-10.225000	26.189998	0.000189	20.853524
1786.458434	-2.990200	3.389000	-10.133000	26.190991	0.000190	20.868746
1787.457910	-2.979700	3.387600	-10.093000	26.197894	0.000189	20.848183
1788.457273	-2.996200	3.386000	-10.145000	26.232685	0.000187	20.862280
1789.458509	-3.014500	3.386300	-10.208000	26.263876	0.000187	20.859486
1790.457792	-2.993600	3.386300	-10.136000	26.293899	0.000187	20.857889
1791.458736	-3.006800	3.387100	-10.183000	26.280986	0.000186	20.860559
1792.458121	-3.009800	3.385700	-10.190000	26.208422	0.000188	20.858288
1793.459383	-3.017200	3.386500	-10.217000	26.235044	0.000187	20.845211
1794.459472	-2.997500	3.385800	-10.149000	26.254389	0.000185	20.842841
1795.459045	-3.021600	3.383800	-10.224000	26.179513	0.000186	20.848204
1796.458310	-2.990800	3.386000	-10.126000	26.167045	0.000185	20.845633
1797.458923	-3.029700	3.383900	-10.251000	26.216739	0.000185	20.856214
1798.457641	-3.003900	3.383600	-10.162000	26.205215	0.000185	20.843212
1799.459494	-2.984400	3.383200	-10.095000	26.181249	0.000183	20.843311
1800.459399	-2.988700	3.382200	-10.107000	26.196374	0.000183	20.834328
1801.460917	-3.006200	3.382500	-10.167000	26.258606	0.000183	20.841389
1802.460526	-3.009700	3.381900	-10.177000	26.275541	0.000184	20.860777
1803.461584	-2.978200	3.384100	-10.077000	26.282892	0.000181	20.845880
1804.461682	-2.974200	3.383700	-10.062000	26.224360	0.000180	20.823571
1805.461789	-3.026200	3.380600	-10.229000	26.173052	0.000181	20.845979
1806.462476	-3.040400	3.381100	-10.279000	26.181843	0.000182	20.856235
1807.462762	-3.045500	3.380800	-10.295000	26.133189	0.000180	20.827736
1808.460961	-3.018600	3.380700	-10.203000	26.110464	0.000179	20.845204
1809.462534	-2.990100	3.380800	-10.108000	26.115058	0.000180	20.848398
1810.464826	-2.987000	3.380700	-10.098000	26.105297	0.000178	20.868460
1811.462800	-3.001800	3.380000	-10.146000	26.151293	0.000179	20.823168
1812.462483	-2.996300	3.379900	-10.125000	26.215890	0.000181	20.839714
1813.465059	-2.996200	3.378800	-10.123000	26.217131	0.000180	20.845702
1814.464203	-3.021500	3.378200	-10.205000	26.241318	0.000178	20.840611
1815.462729	-3.005400	3.378900	-10.155000	26.211616	0.000178	20.815506
1816.462819	-3.018100	3.377700	-10.193000	26.185839	0.000180	20.820897
1817.464782	-3.037900	3.377000	-10.258000	26.201433	0.000177	20.848894
1818.466620	-3.003100	3.378200	-10.144000	26.210745	0.000178	20.829329
1819.462793	-2.988800	3.378900	-10.098000	26.230936	0.000177	20.821169
1820.463467	-3.000800	3.376700	-10.131000	26.198974	0.000178	20.842630
1821.463844	-3.011600	3.375600	-10.165000	26.202599	0.000176	20.815453
1822.465703	-3.004000	3.376000	-10.140000	26.228152	0.000178	20.837338
1823.468324	-3.005100	3.375900	-10.144000	26.217648	0.000175	20.833894
1824.463500	-2.991000	3.374900	-10.094000	26.184519	0.000172	20.843277
1825.468585	-2.967400	3.376800	-10.019000	26.216082	0.000176	20.833270
1826.468390	-3.027800	3.373900	-10.214000	26.264284	0.000174	20.842353
1827.470371	-2.990900	3.375100	-10.094000	26.320628	0.000174	20.825957
1828.470823	-2.990200	3.374600	-10.090000	26.340915	0.000172	20.826431
1829.471075	-3.012300	3.374300	-10.164000	26.334335	0.000172	20.845422
1830.467404	-3.011100	3.373100	-10.156000	26.310247	0.000170	20.816947
1831.472092	-3.012900	3.374400	-10.166000	26.310768	0.000172	20.835489
1832.474411	-2.985500	3.373800	-10.072000	26.311562	0.000171	20.827752
1833.468513	-2.995200	3.374100	-10.104000	26.339350	0.000171	20.804470
1834.470174	-3.017800	3.371700	-10.174000	26.361821	0.000169	20.836536
1835.477030	-3.021000	3.372400	-10.187000	26.340690	0.000170	20.828576
1836.467858	-3.028300	3.371500	-10.209000	26.281790	0.000170	20.831022
1837.473696	-3.024000	3.369800	-10.189000	26.272403	0.000168	20.815899
1838.471262	-2.994900	3.372200	-10.098000	26.257875	0.000170	20.828801
1839.471937	-2.994100	3.372100	-10.096000	26.239896	0.000168	20.816423
1840.477808	-2.989600	3.371200	-10.078000	26.187520	0.000168	20.807413
1841.473289	-2.985300	3.370900	-10.062000	26.158861	0.000167	20.819393
1842.468775	-3.014400	3.370200	-10.157000	26.187296	0.000169	20.815723
1843.470952	-2.994600	3.369100	-10.088000	26.215112	0.000168	20.817122
1844.473249	-2.998500	3.369800	-10.103000	26.224920	0.000168	20.818443
1845.474062	-3.011700	3.368300	-10.143000	26.220053	0.000165	20.815449
1846.473487	-3.013200	3.367300	-10.146000	26.274016	0.000166	20.809935
1847.475955	-3.001100	3.367500	-10.106000	26.331949	0.000166	20.794187
1848.477235	-2.997300	3.368800	-10.096000	26.401524	0.000167	20.810533
1849.479030	-3.024500	3.368000	-10.186000	26.373317	0.000165	20.815374
1850.481286	-3.017000	3.367000	-10.157000	26.330211	0.000165	20.828476
1851.476908	-2.989800	3.367500	-10.067000	26.341162	0.000165	20.824308
1852.478834	-2.989800	3.367300	-10.066000	26.351392	0.000163	20.819418
1853.478099	-2.988000	3.367300	-10.060000	26.354869	0.000163	20.812481
1854.479738	-2.987700	3.366700	-10.057000	26.375303	0.000163	20.800775
1855.481184	-2.994000	3.366000	-10.077000	26.399438	0.000165	20.806066
1856.484272	-2.996200	3.366100	-10.084000	26.427124	0.000165	20.808762
1857.479318	-2.979600	3.365700	-10.027000	26.393382	0.000162	20.819893
1858.482014	-3.004700	3.364800	-10.109000	26.376373	0.000161	20.801850
1859.483634	-2.995300	3.365200	-10.079000	26.370661	0.000161	20.798955
1860.482137	-3.009800	3.362800	-10.121000	26.277990	0.000161	20.815825
1861.482331	-3.003700	3.363700	-10.103000	26.255318	0.000161	20.823386
1862.482197	-2.988100	3.363500	-10.050000	26.214219	0.000161	20.803896
1863.481688	-2.991300	3.364400	-10.063000	26.276600	0.000161	20.820591
1864.481613	-2.986200	3.362900	-10.041000	26.295572	0.000160	20.805045
1865.487043	-2.988400	3.363400	-10.050000	26.342306	0.000162	20.801751
1866.481279	-3.023000	3.361700	-10.161000	26.345656	0.000158	20.810334
1867.485091	-2.977200	3.363000	-10.011000	26.353305	0.000161	20.802848
1868.480631	-3.017500	3.361000	-10.142000	26.363140	0.000161	20.822215
1869.478705	-3.025300	3.361000	-10.167000	26.336048	0.000156	20.806842
1870.480859	-2.995700	3.361000	-10.068000	26.312310	0.000157	20.801951
1871.481557	-3.017500	3.360300	-10.138000	26.262223	0.000157	20.820842
1872.482735	-3.005000	3.360500	-10.097000	26.222390	0.000156	20.799305
1873.482588	-2.990800	3.360600	-10.049000	26.239303	0.000157	20.789749
1874.482726	-3.018700	3.359200	-10.139000	26.270170	0.000157	20.815552
1875.482206	-3.006000	3.360200	-10.100000	26.261377	0.000155	20.802449
1876.483941	-2.982000	3.359400	-10.016000	26.305927	0.000156	20.809762
1877.482390	-2.999800	3.358700	-10.074000	26.377590	0.000157	20.791220
1878.486680	-3.001200	3.358300	-10.078000	26.382133	0.000156	20.790096
1879.484307	-3.014700	3.358200	-10.123000	26.363362	0.000155	20.801576
1880.484270	-2.984600	3.357700	-10.020000	26.369073	0.000155	20.791669
1881.486103	-2.994500	3.357600	-10.052000	26.422781	0.000155	20.781163
1882.485783	-3.016200	3.356800	-10.124000	26.374312	0.000157	20.798357
1883.486446	-3.011800	3.357300	-10.111000	26.366292	0.000153	20.795512
1884.486818	-2.974300	3.357300	-9.984000	26.411384	0.000155	20.809537
1885.486462	-3.001900	3.356400	-10.075000	26.395839	0.000154	20.796759
1886.486653	-3.018700	3.355300	-10.128000	26.342429	0.000151	20.813255
1887.487728	-2.978400	3.357100	-9.998000	26.395343	0.000154	20.792467
1888.489034	-2.974000	3.356900	-9.982900	26.384716	0.000155	20.811184
1889.492086	-3.006400	3.354800	-10.085000	26.430601	0.000151	20.816524
1890.487045	-2.984300	3.353900	-10.009000	26.480406	0.000150	20.775072
1891.488845	-3.017100	3.354000	-10.118000	26.410464	0.000152	20.802449
1892.490390	-3.001400	3.354900	-10.067000	26.342355	0.000151	20.799904
1893.488460	-3.008100	3.353500	-10.087000	26.294307	0.000151	20.782436
1894.490897	-3.006400	3.352500	-10.078000	26.268058	0.000150	20.797783
1895.491506	-3.017100	3.353800	-10.118000	26.270268	0.000151	20.801426
1896.489189	-3.004400	3.353300	-10.073000	26.301533	0.000148	20.796336
1897.487790	-2.999300	3.352700	-10.055000	26.260658	0.000150	20.781337
1898.490930	-3.009200	3.352600	-10.088000	26.303047	0.000149	20.792168
1899.491463	-3.010700	3.351000	-10.088000	26.329543	0.000150	20.803624
1900.488641	-2.990000	3.352300	-10.023000	26.395890	0.000150	20.800129
1901.495395	-2.984800	3.351000	-10.001000	26.425786	0.000148	20.783235
1902.495984	-2.992000	3.351000	-10.026000	26.473729	0.000147	20.801077
1903.489752	-3.020500	3.350500	-10.120000	26.505931	0.000146	20.792194
1904.496469	-3.000500	3.350200	-10.050000	26.478174	0.000147	20.793691
1905.493855	-2.992800	3.349700	-10.024000	26.413520	0.000144	20.776123
1906.492194	-2.996400	3.350200	-10.038000	26.403986	0.000147	20.783609
1907.495352	-2.996200	3.349900	-10.036000	26.420721	0.000146	20.789999
1908.492312	-3.004300	3.349700	-10.063000	26.436959	0.000146	20.779292
1909.493704	-2.982600	3.349600	-9.988800	26.404086	0.000144	20.787503
1910.496098	-2.993700	3.348500	-10.024000	26.408158	0.000147	20.785433
1911.495431	-3.011900	3.348300	-10.084000	26.428841	0.000146	20.782039
1912.493764	-2.976700	3.349000	-9.967600	26.472367	0.000144	20.773629
1913.496158	-2.956000	3.348700	-9.898400	26.465861	0.000143	20.784161
1914.493750	-3.008900	3.347600	-10.072000	26.426880	0.000143	20.786706
1915.494267	-2.993100	3.347700	-10.019000	26.454614	0.000143	20.795615
1916.496561	-2.984700	3.347700	-9.990600	26.465986	0.000142	20.815106
1917.494321	-3.007800	3.345400	-10.062000	26.508491	0.000143	20.786707
1918.494917	-2.999900	3.345300	-10.034000	26.544465	0.000141	20.768813
1919.498476	-3.018700	3.345200	-10.097000	26.525895	0.000141	20.769587
1920.494389	-2.980800	3.346300	-9.973700	26.504173	0.000143	20.755813
1921.495619	-2.999900	3.346400	-10.037000	26.494588	0.000144	20.771310
1922.497046	-2.990100	3.345500	-10.003000	26.526442	0.000141	20.772508
1923.496473	-3.013800	3.345000	-10.080000	26.452729	0.000139	20.772858
1924.497118	-3.010300	3.344000	-10.065000	26.393139	0.000140	20.771760
1925.496199	-3.010400	3.343900	-10.066000	26.347873	0.000139	20.775578
1926.497116	-2.997500	3.343600	-10.022000	26.322000	0.000137	20.767119
1927.494623	-3.002400	3.343500	-10.038000	26.319194	0.000137	20.768566
1928.498094	-2.986700	3.342100	-9.980200	26.373722	0.000137	20.751296
1929.497111	-3.007300	3.343100	-10.053000	26.397385	0.000138	20.781243
1930.493528	-2.969500	3.344100	-9.928300	26.422637	0.000137	20.769165
1931.496187	-3.000700	3.341000	-10.024000	26.471278	0.000137	20.754991
1932.495187	-2.992600	3.340500	-9.995700	26.538162	0.000137	20.770064
1933.496947	-2.981400	3.341300	-9.960700	26.582253	0.000138	20.770289
1934.496454	-2.964100	3.341600	-9.903800	26.564156	0.000136	20.762054
1935.496834	-2.983100	3.340800	-9.963800	26.551098	0.000135	20.773110
1936.499023	-2.992200	3.339300	-9.991100	26.545164	0.000137	20.756713
1937.498258	-2.987600	3.339900	-9.977600	26.580243	0.000135	20.757836
1938.499069	-2.988500	3.339100	-9.978000	26.594916	0.000137	20.753145
1939.498509	-3.006800	3.339300	-10.040000	26.610406	0.000134	20.776778
1940.499669	-2.994500	3.338200	-9.994800	26.604548	0.000135	20.774209
1941.497439	-3.025300	3.338000	-10.098000	26.572100	0.000137	20.752496
1942.500452	-2.976400	3.338500	-9.936200	26.510333	0.000132	20.755367
1943.499306	-3.010000	3.337100	-10.044000	26.465965	0.000133	20.759134
1944.499868	-3.006900	3.337300	-10.034000	26.448933	0.000134	20.757188
1945.500179	-2.975900	3.338000	-9.932900	26.450671	0.000132	20.749451
1946.499566	-2.995900	3.335700	-9.992400	26.431107	0.000134	20.766772
1947.500980	-2.966200	3.336900	-9.896800	26.423732	0.000132	20.743712
1948.500857	-2.963000	3.338200	-9.889200	26.392645	0.000133	20.747555
1949.502063	-2.988900	3.336400	-9.971400	26.432074	0.000133	20.745932
1950.500991	-3.004000	3.336700	-10.022000	26.446251	0.000129	20.751647
1951.501616	-2.987000	3.336700	-9.965000	26.428100	0.000130	20.768492
1952.505254	-2.988800	3.335500	-9.968400	26.414991	0.000128	20.761480
1953.501709	-2.950900	3.337100	-9.846700	26.438926	0.000129	20.763251
1954.505346	-2.988700	3.335200	-9.966400	26.493250	0.000129	20.740565
1955.505493	-3.005800	3.333900	-10.020000	26.515445	0.000131	20.767618
1956.502437	-2.984200	3.334100	-9.949000	26.479992	0.000129	20.757586
1957.506240	-2.998200	3.334100	-9.994900	26.480464	0.000127	20.752370
1958.506835	-3.011500	3.332600	-10.034000	26.511573	0.000128	20.754716
1959.504299	-3.014500	3.332400	-10.045000	26.508792	0.000128	20.752869
1960.506669	-2.997000	3.333500	-9.989500	26.510603	0.000127	20.753267
1961.509224	-3.000500	3.332100	-9.996400	26.575326	0.000129	20.735348
1962.510737	-3.039000	3.331000	-10.121000	26.603006	0.000127	20.761278
1963.508913	-3.007300	3.331000	-10.016000	26.587266	0.000128	20.741188
1964.512790	-2.996200	3.331400	-9.981100	26.608938	0.000125	20.748749
1965.509734	-2.996300	3.332200	-9.983700	26.588658	0.000127	20.757760
1966.509606	-2.997400	3.331500	-9.984500	26.641334	0.000124	20.747177
1967.510163	-2.994000	3.330200	-9.969700	26.580936	0.000125	20.749524
1968.506887	-2.990700	3.330700	-9.960300	26.640912	0.000125	20.742011
1969.508389	-2.999800	3.329900	-9.987900	26.650668	0.000126	20.737119
1970.511154	-2.982500	3.329800	-9.929700	26.663502	0.000124	20.733900
1971.510927	-3.015300	3.329400	-10.039000	26.649650	0.000124	20.755063
1972.519038	-3.012100	3.328300	-10.024000	26.675418	0.000121	20.757734
1973.513409	-3.010000	3.328100	-10.016000	26.656079	0.000124	20.741137
1974.510042	-2.992900	3.328000	-9.959500	26.711187	0.000122	20.750546
1975.511059	-3.009800	3.326900	-10.012000	26.725608	0.000121	20.748923
1976.512898	-3.003900	3.325800	-9.989500	26.711161	0.000123	20.737243
1977.511218	-2.993500	3.327200	-9.958100	26.673382	0.000121	20.744781
1978.509689	-3.008700	3.327000	-10.009000	26.673181	0.000122	20.736044
1979.511849	-2.997300	3.326200	-9.968400	26.634259	0.000122	20.730106
1980.510148	-2.988900	3.326100	-9.940800	26.545185	0.000121	20.738242
1981.510815	-3.017400	3.325700	-10.034000	26.544390	0.000119	20.756883
1982.512936	-3.009500	3.324500	-10.004000	26.548338	0.000120	20.722918
1983.510611	-2.996400	3.323300	-9.957100	26.562266	0.000118	20.745928
1984.511646	-2.976700	3.325200	-9.896600	26.598411	0.000119	20.745279
1985.512701	-2.989700	3.324700	-9.938500	26.645231	0.000118	20.743034
1986.512514	-3.012400	3.322700	-10.008000	26.701604	0.000117	20.752292
1987.510829	-3.015800	3.322300	-10.018000	26.716002	0.000117	20.764396
1988.512765	-3.001000	3.321900	-9.967500	26.673852	0.000119	20.728658
1989.513459	-3.023200	3.321900	-10.041000	26.638057	0.000118	20.744831
1990.513174	-3.005000	3.321700	-9.980700	26.645630	0.000116	20.740115
1991.513826	-3.002400	3.322600	-9.974900	26.618819	0.000117	20.743983
1992.514710	-3.006400	3.321800	-9.985300	26.620706	0.000115	20.736870
1993.513949	-3.012800	3.320600	-10.002000	26.615394	0.000114	20.727737
1994.517767	-3.037800	3.321400	-10.089000	26.595186	0.000115	20.739666
1995.515223	-3.001300	3.320200	-9.964000	26.570830	0.000116	20.737942
1996.514242	-3.000400	3.319700	-9.959800	26.596377	0.000116	20.747027
1997.513106	-2.979900	3.321100	-9.895700	26.641012	0.000115	20.731205
1998.516259	-2.992600	3.320500	-9.935700	26.707563	0.000115	20.730307
1999.513175	-2.991900	3.319100	-9.929600	26.694979	0.000113	20.729035
2000.514745	-3.013200	3.318300	-9.997700	26.720149	0.000114	20.735847
2001.516486	-2.994100	3.319200	-9.937000	26.689245	0.000114	20.721847
2002.515316	-3.006300	3.319200	-9.977900	26.703592	0.000112	20.718727
2003.515345	-3.011900	3.319000	-9.995600	26.662337	0.000112	20.718977
2004.515038	-2.989000	3.317200	-9.913900	26.670876	0.000112	20.740839
2005.516970	-3.009600	3.318100	-9.985800	26.692223	0.000111	20.725316
2006.516702	-3.017900	3.317500	-10.011000	26.746559	0.000112	20.726364
2007.516599	-3.004200	3.317000	-9.964500	26.805534	0.000110	20.736821
2008.515637	-2.988200	3.317600	-9.913300	26.800993	0.000109	20.733677
2009.514827	-3.006800	3.316800	-9.971900	26.796475	0.000112	20.733402
2010.516939	-3.017200	3.315600	-10.003000	26.767013	0.000109	20.742661
2011.516076	-3.012700	3.315400	-9.987300	26.777685	0.000111	20.707871
2012.516946	-3.007200	3.313700	-9.963500	26.762942	0.000111	20.728136
2013.517033	-2.998300	3.315600	-9.939700	26.747775	0.000107	20.736121
2014.516779	-3.009500	3.315300	-9.976800	26.722334	0.000108	20.740415
2015.516910	-3.010800	3.314800	-9.979100	26.750184	0.000108	20.730956
2016.518149	-2.988100	3.313800	-9.900500	26.800321	0.000108	20.722569
2017.517170	-3.000800	3.314300	-9.944900	26.802705	0.000108	20.732553
2018.523960	-3.004200	3.313000	-9.952000	26.767955	0.000107	20.735548
2019.517181	-3.018100	3.313200	-9.999100	26.718486	0.000109	20.722796
2020.519315	-2.999400	3.313300	-9.937200	26.727769	0.000106	20.751096
2021.517010	-3.015100	3.312100	-9.985600	26.764306	0.000107	20.737095
2022.517002	-3.026700	3.311800	-10.023000	26.803226	0.000106	20.733551
2023.518658	-3.012100	3.311500	-9.973500	26.764852	0.000106	20.738118
2024.517126	-3.034100	3.311200	-10.045000	26.730721	0.000104	20.713285
2025.517882	-3.008300	3.310300	-9.957800	26.733849	0.000105	20.725439
2026.517646	-2.991900	3.311900	-9.908300	26.764504	0.000103	20.744881
2027.517614	-2.979800	3.310600	-9.864100	26.747277	0.000107	20.745579
2028.517313	-2.993500	3.310700	-9.909600	26.734893	0.000103	20.736446
2029.517082	-3.002800	3.309600	-9.937300	26.731366	0.000104	20.721520
2030.518924	-3.009200	3.307800	-9.953000	26.820647	0.000104	20.694167
2031.518296	-2.994500	3.307400	-9.903300	26.825190	0.000102	20.733350
2032.517442	-3.020800	3.308200	-9.992700	26.819183	0.000104	20.742484
2033.518187	-3.003500	3.308300	-9.934800	26.800269	0.000102	20.746700
2034.521138	-3.022000	3.307000	-9.992800	26.767655	0.000102	20.746151
2035.520259	-2.976900	3.308600	-9.848400	26.792698	0.000103	20.737191
2036.522412	-2.994800	3.306900	-9.903200	26.820150	0.000103	20.720695
2037.519913	-2.987800	3.306000	-9.876900	26.789322	0.000100	20.740910
2038.518958	-2.979400	3.306000	-9.848700	26.785648	0.000101	20.746225
2039.518411	-3.001600	3.306000	-9.922800	26.850031	9.974981E-5	20.734145
2040.519678	-2.988400	3.306300	-9.879600	26.809575	9.905676E-5	20.739461
2041.518725	-2.986400	3.305700	-9.871600	26.810320	9.839671E-5	20.744952
2042.519701	-2.995900	3.306000	-9.903800	26.759635	9.862773E-5	20.739037
2043.518482	-3.002300	3.305000	-9.922200	26.750823	9.780267E-5	20.724961
2044.520066	-3.003900	3.305000	-9.926700	26.764772	9.803369E-5	20.733770
2045.519277	-3.000000	3.304000	-9.911400	26.786565	9.875974E-5	20.724386
2046.523294	-2.994100	3.304800	-9.894100	26.871671	9.740664E-5	20.728877
2047.518754	-3.012100	3.303200	-9.948500	26.867749	9.631756E-5	20.732995
2048.518046	-2.997800	3.302800	-9.901000	26.894305	9.562451E-5	20.714177
2049.521797	-3.003900	3.302000	-9.918400	26.868097	9.760466E-5	20.746147
2050.519537	-3.003900	3.302600	-9.919500	26.905945	9.545950E-5	20.734417
2051.522169	-2.961000	3.302900	-9.778600	26.935601	9.440342E-5	20.725831
2052.520545	-3.021700	3.301300	-9.974900	26.928179	9.526149E-5	20.731645
2053.520741	-3.006100	3.299800	-9.918500	26.886883	9.674659E-5	20.741803
2054.521019	-2.977900	3.301700	-9.830700	26.829774	9.569052E-5	20.724208
2055.521977	-3.018300	3.300200	-9.960300	26.829576	9.545950E-5	20.732544
2056.521217	-3.013600	3.300800	-9.946900	26.774274	9.407340E-5	20.741901
2057.519289	-3.008500	3.300600	-9.929000	26.796688	9.361137E-5	20.731719
2058.521540	-2.993600	3.301400	-9.882100	26.811654	9.496446E-5	20.727800
2059.519471	-2.999600	3.300600	-9.898800	26.808254	9.093817E-5	20.748090
2060.519861	-3.024200	3.298500	-9.974600	26.822598	9.054214E-5	20.757772
2061.528315	-2.975400	3.300300	-9.819000	26.853028	9.126819E-5	20.750436
2062.521976	-3.004900	3.298400	-9.910700	26.805424	9.116919E-5	20.740978
2063.520077	-3.000900	3.298400	-9.897000	26.827686	9.245628E-5	20.739654
2064.524551	-2.989500	3.296700	-9.854800	26.883900	9.113618E-5	20.749236
2065.522170	-3.000000	3.297100	-9.890400	26.951405	9.242328E-5	20.761639
2066.522027	-2.969300	3.298900	-9.794100	26.926835	9.156522E-5	20.736931
2067.525931	-2.988800	3.295800	-9.849300	26.927182	8.783594E-5	20.754825
2068.523203	-2.993800	3.296100	-9.867600	26.934775	8.806696E-5	20.737329
2069.522819	-2.997000	3.296200	-9.878300	26.886528	8.806696E-5	20.739550
2070.525820	-2.996000	3.295500	-9.872900	26.866450	8.981609E-5	20.745913
2071.528767	-2.998000	3.294100	-9.874900	26.886206	8.958507E-5	20.735432
2072.522175	-3.006300	3.295000	-9.904700	26.874341	8.555878E-5	20.760487
2073.524323	-3.007000	3.293700	-9.903600	26.936014	8.849599E-5	20.768922
2074.524317	-2.998300	3.295000	-9.878500	27.002050	8.809996E-5	20.776533
2075.527221	-3.006600	3.293000	-9.900400	26.971898	8.668086E-5	20.769445
2076.529953	-3.007300	3.293000	-9.901700	26.930627	8.506374E-5	20.759712
2077.524290	-2.995700	3.293300	-9.864900	26.914644	8.390866E-5	20.753596
2078.526699	-3.000500	3.291800	-9.875700	26.886277	8.757192E-5	20.770592
2079.528582	-2.994900	3.292500	-9.858600	26.889106	8.565778E-5	20.761583
2080.523816	-3.002500	3.290700	-9.879900	26.861159	8.862800E-5	20.754345
2081.527709	-3.032300	3.290200	-9.976200	26.821944	8.536076E-5	20.771813
2082.529477	-3.014500	3.290600	-9.918500	26.890792	8.367764E-5	20.761856
2083.523841	-3.000000	3.291300	-9.873000	26.937374	8.539376E-5	20.750375
2084.525323	-2.992700	3.290900	-9.847600	26.975023	8.367764E-5	20.741766
2085.529505	-3.017300	3.291100	-9.929000	27.020708	8.258856E-5	20.760682
2086.524710	-3.019200	3.288200	-9.926700	27.022792	8.314960E-5	20.774158
2087.527031	-3.004000	3.289300	-9.880200	27.026042	8.483272E-5	20.767469
2088.526986	-3.025000	3.288300	-9.946200	27.025025	8.318260E-5	20.781146
2089.525652	-2.993200	3.288200	-9.841600	27.068078	8.291858E-5	20.769914
2090.527318	-2.999400	3.287800	-9.860600	27.120360	8.159849E-5	20.746630
2091.528525	-3.023600	3.286700	-9.936200	27.083934	8.390866E-5	20.763102
2092.525554	-2.988600	3.287100	-9.822900	27.055398	7.991536E-5	20.764275
2093.526949	-3.018800	3.286000	-9.918900	27.058946	8.212653E-5	20.757412
2094.531932	-2.993700	3.286100	-9.835500	27.087359	7.810023E-5	20.789780
2095.524494	-3.002700	3.286300	-9.866700	27.112123	8.017938E-5	20.771063
2096.528044	-2.982200	3.287400	-9.802600	27.121974	8.080643E-5	20.775282
2097.528081	-2.975700	3.285700	-9.776400	27.097682	8.272057E-5	20.768867
2098.530677	-2.972700	3.285200	-9.764400	27.133064	8.130147E-5	20.786909
2099.529808	-2.985700	3.286300	-9.810300	27.122346	8.011338E-5	20.770439
2100.529279	-3.000500	3.283600	-9.851200	27.078202	7.681314E-5	20.773933
2101.532480	-2.997300	3.284700	-9.844100	27.025346	7.724217E-5	20.772934
2102.532908	-3.022800	3.282900	-9.922700	27.042843	7.796822E-5	20.776305
2103.532857	-2.984200	3.283200	-9.797200	27.093958	7.780321E-5	20.776028
2104.530412	-2.985500	3.283200	-9.801700	27.061453	7.635110E-5	20.770365
2105.530670	-2.986100	3.283000	-9.802100	27.113486	7.694515E-5	20.780969
2106.529312	-3.015700	3.281400	-9.895400	27.084008	7.585607E-5	20.783565
2107.530801	-2.997100	3.281600	-9.834200	27.045794	7.773721E-5	20.791601
2108.533158	-2.996200	3.281300	-9.830300	27.019292	7.470098E-5	20.784863
2109.532082	-2.979800	3.281900	-9.777600	26.975119	7.641711E-5	20.753243
2110.533949	-2.971900	3.280500	-9.748100	27.041030	7.681314E-5	20.782542
2111.534228	-2.996300	3.278800	-9.823800	27.070460	7.664813E-5	20.787957
2112.533252	-2.998700	3.279400	-9.833200	27.128251	7.437096E-5	20.779697
2113.533200	-2.993900	3.279700	-9.817500	27.175890	7.298486E-5	20.782567
2114.533741	-3.019900	3.277800	-9.897600	27.177403	7.473399E-5	20.764648
2115.537069	-3.006200	3.278200	-9.854600	27.141476	7.559205E-5	20.790628
2116.535187	-2.976300	3.278100	-9.755900	27.190107	7.334788E-5	20.780271
2117.540184	-2.991500	3.279100	-9.807900	27.193481	7.546004E-5	20.794571
2118.536283	-2.991400	3.277700	-9.804000	27.179785	7.562505E-5	20.802606
2119.536848	-2.999000	3.278500	-9.830700	27.209509	7.252282E-5	20.783665
2120.535302	-2.985900	3.276500	-9.781800	27.215959	7.239081E-5	20.797739
2121.536077	-2.992600	3.277000	-9.806100	27.223131	7.097171E-5	20.780296
2122.537283	-3.007200	3.277800	-9.856400	27.258906	7.074069E-5	20.790203
2123.538388	-2.987700	3.275500	-9.785100	27.220252	7.149975E-5	20.785935
2124.537878	-2.999800	3.275300	-9.823900	27.204869	7.202779E-5	20.795119
2125.537422	-2.980900	3.274800	-9.761000	27.179214	7.021265E-5	20.787333
2126.538214	-2.985700	3.275400	-9.778300	27.136935	7.163176E-5	20.808820
2127.539154	-2.987100	3.274800	-9.781700	27.102470	7.130173E-5	20.803555
2128.541208	-3.027700	3.273000	-9.908400	27.149588	6.839752E-5	20.787882
2129.540226	-2.989200	3.275200	-9.789300	27.190554	6.915658E-5	20.781669
2130.540244	-3.008900	3.272500	-9.845300	27.189908	6.945360E-5	20.780545
2131.540912	-2.987200	3.272400	-9.774400	27.166263	6.714343E-5	20.801807
2132.539449	-3.003100	3.270900	-9.822100	27.131600	6.839752E-5	20.793024
2133.545374	-2.991000	3.273000	-9.788900	27.144552	6.783648E-5	20.791351
2134.540306	-2.999800	3.272800	-9.817000	27.180157	6.763847E-5	20.807721
2135.539816	-3.024200	3.271200	-9.891600	27.162616	6.777048E-5	20.800985
2136.540473	-3.020900	3.273200	-9.886600	27.194820	6.793549E-5	20.821047
2137.542017	-2.980800	3.270300	-9.747200	27.181795	6.628537E-5	20.786135
2138.541778	-2.986200	3.269700	-9.763300	27.211146	6.889256E-5	20.796691
2139.544726	-3.001800	3.269300	-9.812900	27.272848	6.582333E-5	20.794270
2140.541442	-3.003500	3.269700	-9.820100	27.210700	6.631837E-5	20.808570
2141.541955	-3.004000	3.270400	-9.823100	27.230400	6.559232E-5	20.794720
2142.547914	-3.000100	3.268300	-9.804400	27.188022	6.651638E-5	20.795718
2143.541086	-3.014700	3.269000	-9.854400	27.195615	6.605435E-5	20.815208
2144.545722	-3.001400	3.268400	-9.809100	27.117556	6.602135E-5	20.808770
2145.542256	-2.982200	3.268100	-9.745400	27.125397	6.668140E-5	20.785837
2146.543192	-2.973600	3.267400	-9.714500	27.156884	6.453624E-5	20.804702
2147.542445	-2.984600	3.267700	-9.752100	27.167229	6.529529E-5	20.797564
2148.545271	-3.011900	3.267000	-9.838400	27.170257	6.440423E-5	20.803454
2149.543593	-2.998800	3.268100	-9.799600	27.192537	6.536130E-5	20.799311
2150.544466	-2.981900	3.265700	-9.737200	27.262527	6.351316E-5	20.796690
2151.543845	-2.984500	3.264900	-9.742900	27.227545	6.133500E-5	20.793746
2152.544745	-2.979100	3.265200	-9.726600	27.270020	6.258910E-5	20.818451
2153.543298	-2.984000	3.263700	-9.738100	27.207498	6.384319E-5	20.816729
2154.545805	-2.991400	3.264000	-9.763500	27.222557	6.070796E-5	20.810539
2155.547812	-3.031600	3.262000	-9.887300	27.182935	6.249009E-5	20.806248
2156.544314	-2.988700	3.263600	-9.753900	27.210971	6.113699E-5	20.810265
2157.547497	-3.012400	3.263200	-9.828600	27.229480	6.212706E-5	20.819399
2158.548867	-3.024100	3.260700	-9.859600	27.252380	6.298513E-5	20.815880
2159.546515	-3.010100	3.261500	-9.816400	27.279123	6.206106E-5	20.819547
2160.551429	-2.997300	3.261700	-9.775100	27.252551	6.305113E-5	20.823165
2161.547805	-3.002700	3.260000	-9.788000	27.307108	6.090597E-5	20.799808
2162.547512	-3.013400	3.259300	-9.820400	27.383887	6.107099E-5	20.796912
2163.548143	-3.014500	3.259300	-9.824100	27.423503	6.219307E-5	20.795515
2164.546657	-3.003800	3.258300	-9.785900	27.448779	5.935486E-5	20.814780
2165.550442	-2.998300	3.258300	-9.768700	27.464109	5.892583E-5	20.829728
2166.551004	-2.993600	3.258400	-9.753000	27.437964	5.955287E-5	20.830451
2167.547042	-3.003100	3.258700	-9.785500	27.404549	6.093898E-5	20.822440
2168.547463	-3.006900	3.257600	-9.793400	27.363098	5.932186E-5	20.832897
2169.549769	-3.013800	3.256600	-9.813700	27.372474	5.862881E-5	20.830001
2170.548422	-3.019300	3.256800	-9.832400	27.360790	5.532856E-5	20.829152
2171.551270	-3.003000	3.257200	-9.781300	27.382620	5.925585E-5	20.844474
2172.547318	-3.007400	3.255900	-9.791100	27.422385	5.872781E-5	20.832322
2173.552014	-3.004000	3.255700	-9.779100	27.431811	5.783675E-5	20.831374
2174.550160	-2.999700	3.256100	-9.766400	27.446843	5.750672E-5	20.824685
2175.553508	-3.021600	3.255600	-9.836100	27.452002	5.674767E-5	20.816125
2176.549605	-3.010200	3.254900	-9.797000	27.429230	5.678067E-5	20.839208
2177.549313	-3.003600	3.253500	-9.771600	27.436275	5.387646E-5	20.842028
2178.549452	-3.035400	3.252700	-9.872600	27.447834	5.559258E-5	20.847018
2179.549312	-2.986800	3.254900	-9.719700	27.477178	5.348043E-5	20.822488
2180.550729	-2.990600	3.253900	-9.729400	27.528275	5.483353E-5	20.831222
2181.552620	-3.015000	3.252100	-9.804300	27.520015	5.592261E-5	20.829076
2182.551452	-2.966300	3.255400	-9.655100	27.550622	5.513055E-5	20.832370
2183.550814	-2.995000	3.252100	-9.739700	27.567486	5.410747E-5	20.833216
2184.557455	-2.986100	3.252300	-9.710300	27.599631	5.321641E-5	20.829524
2185.552857	-2.969700	3.253100	-9.659600	27.599135	5.400847E-5	20.838982
2186.551780	-2.981100	3.251700	-9.692900	27.565726	5.407447E-5	20.855152
2187.552124	-2.997000	3.251900	-9.744500	27.576118	5.196232E-5	20.852332
2188.553182	-3.009200	3.249900	-9.778900	27.526389	5.222634E-5	20.839756
2189.552629	-3.020500	3.250000	-9.816200	27.477400	5.338142E-5	20.846418
2190.551929	-3.028500	3.248600	-9.837900	27.465791	5.146728E-5	20.846592
2191.553442	-2.991700	3.250600	-9.724100	27.452570	5.222634E-5	20.849413
2192.552457	-2.989100	3.248500	-9.709500	27.406629	5.295239E-5	20.861988
2193.557405	-2.994300	3.248800	-9.726400	27.449742	5.239135E-5	20.858420
2194.554448	-2.988200	3.248900	-9.707400	27.482831	4.978416E-5	20.863261
2195.556377	-3.009800	3.246300	-9.770000	27.505699	5.189631E-5	20.840751
2196.555651	-2.983300	3.248600	-9.690300	27.510165	4.846406E-5	20.865157
2197.557220	-3.017600	3.245100	-9.791600	27.456437	4.889309E-5	20.843346
2198.555754	-3.004100	3.245500	-9.748800	27.414665	5.126927E-5	20.854900
2199.555953	-3.021400	3.245300	-9.804700	27.397399	4.905810E-5	20.854600
2200.559772	-2.994200	3.245200	-9.715800	27.388965	5.004818E-5	20.852754
2201.555397	-2.988700	3.246100	-9.700400	27.409133	4.965215E-5	20.850283
2202.559849	-3.010000	3.244400	-9.764600	27.454081	4.829905E-5	20.853778
2203.556413	-2.997300	3.242900	-9.718900	27.527575	4.925612E-5	20.851380
2204.556062	-3.020900	3.243900	-9.798900	27.546451	4.994917E-5	20.877009
2205.557392	-3.023800	3.241600	-9.801100	27.569492	5.051021E-5	20.868424
2206.558598	-2.993200	3.243800	-9.708900	27.571724	4.800203E-5	20.861186
2207.561504	-3.011000	3.242600	-9.762300	27.562101	4.816704E-5	20.866677
2208.561844	-2.989600	3.241500	-9.690600	27.596848	4.658292E-5	20.852327
2209.558844	-2.986500	3.241400	-9.680100	27.570706	4.770501E-5	20.876757
2210.558136	-2.972000	3.241300	-9.632200	27.625741	4.757300E-5	20.861011
2211.562570	-2.999400	3.240300	-9.718000	27.695431	4.796902E-5	20.854324
2212.559870	-3.001200	3.240300	-9.723900	27.663091	4.503181E-5	20.870618
2213.562990	-2.993300	3.240000	-9.698100	27.673680	4.777101E-5	20.879850
2214.558903	-2.983300	3.240200	-9.665900	27.630105	4.588987E-5	20.863031
2215.560164	-2.997400	3.239700	-9.710200	27.628616	4.777101E-5	20.857740
2216.558432	-3.005700	3.239400	-9.736400	27.613165	4.928912E-5	20.866848
2217.557736	-2.998700	3.238600	-9.710200	27.640620	4.654992E-5	20.877878
2218.561421	-2.986500	3.237800	-9.668800	27.632361	4.753999E-5	20.872887
2219.559470	-3.013100	3.236300	-9.750600	27.591860	4.602188E-5	20.867697
2220.558707	-3.020300	3.236300	-9.773400	27.568546	4.635191E-5	20.895445
2221.559622	-3.010800	3.237300	-9.744600	27.574126	4.536183E-5	20.880672
2222.558986	-2.989800	3.238000	-9.679100	27.596448	4.661593E-5	20.870890
2223.560575	-2.985600	3.237000	-9.662700	27.645926	4.638491E-5	20.878475
2224.560355	-2.994500	3.236000	-9.688900	27.649570	4.453677E-5	20.896365
2225.560715	-2.971300	3.235100	-9.611300	27.665443	4.608789E-5	20.871088
2226.561952	-3.008600	3.234100	-9.729500	27.690591	4.367871E-5	20.887384
2227.575149	-3.022900	3.232200	-9.770000	27.707404	4.499881E-5	20.882966
2228.561957	-3.020900	3.233400	-9.767100	27.631217	4.324968E-5	20.906347
2229.563925	-2.998600	3.232100	-9.691200	27.577943	4.595588E-5	20.877401
2230.563950	-2.997300	3.232300	-9.687600	27.552421	4.463578E-5	20.879697
2231.564231	-2.986900	3.233500	-9.657300	27.559216	4.258963E-5	20.906445
2232.563890	-3.004600	3.232000	-9.709900	27.607828	4.285365E-5	20.894193
2233.565258	-2.976000	3.233000	-9.620100	27.679999	4.555985E-5	20.894743
2234.565431	-2.989000	3.230800	-9.656200	27.740833	4.476779E-5	20.876777
2235.565585	-2.988400	3.229600	-9.650800	27.741476	4.357970E-5	20.884536
2236.565280	-3.009300	3.229800	-9.718000	27.756554	4.265564E-5	20.908242
2237.563756	-2.981000	3.229800	-9.626300	27.814927	4.140154E-5	20.894443
2238.566702	-3.001800	3.230400	-9.696500	27.805852	4.308467E-5	20.894793
2239.565619	-2.997300	3.229300	-9.678200	27.758190	3.948740E-5	20.896613
2240.567754	-3.004400	3.228700	-9.699100	27.745592	4.291965E-5	20.893893
2241.566048	-3.010200	3.229500	-9.721000	27.723024	3.971842E-5	20.882563
2242.565940	-2.994900	3.226600	-9.662100	27.683643	4.311767E-5	20.911210
2243.568661	-2.986900	3.226800	-9.637100	27.686569	4.212760E-5	20.900879
2244.566932	-3.007300	3.225400	-9.698500	27.650163	3.925639E-5	20.896962
2245.571228	-3.016600	3.226700	-9.732600	27.590664	4.087350E-5	20.914853
2246.569522	-2.998900	3.225400	-9.672000	27.617350	3.902537E-5	20.895239
2247.570010	-3.003500	3.225100	-9.685400	27.591507	4.077450E-5	20.890099
2248.573570	-2.996700	3.225200	-9.664300	27.611919	3.882735E-5	20.885508
2249.569307	-3.022100	3.225300	-9.746100	27.651873	3.816731E-5	20.897260
2250.573132	-3.016700	3.223300	-9.722600	27.734283	3.968542E-5	20.897211
2251.569456	-3.022200	3.222200	-9.737600	27.720817	3.928939E-5	20.880816
2252.570894	-2.978200	3.222400	-9.596500	27.714741	3.879435E-5	20.886556
2253.570091	-3.008700	3.221400	-9.691900	27.749310	3.763927E-5	20.873455
2254.570226	-3.001800	3.221300	-9.668900	27.703110	3.711123E-5	20.869637
2255.570727	-2.987900	3.221900	-9.626400	27.761363	3.625317E-5	20.877048
2256.572618	-3.000100	3.220800	-9.661900	27.724363	3.664919E-5	20.868264
2257.569873	-2.983300	3.220900	-9.607900	27.716774	3.757326E-5	20.875800
2258.569323	-3.010500	3.218800	-9.688900	27.759205	3.806830E-5	20.860653
2259.571599	-3.009300	3.218300	-9.684200	27.821397	3.674820E-5	20.884833
2260.570320	-2.987900	3.220100	-9.620800	27.857127	3.763927E-5	20.886180
2261.573357	-3.013600	3.218400	-9.697500	27.816213	3.734225E-5	20.862549
2262.571059	-3.003100	3.220200	-9.669700	27.839224	3.569212E-5	20.866741
2263.572111	-3.014600	3.217100	-9.697700	27.820404	3.618716E-5	20.856335
2264.576084	-3.014800	3.217300	-9.698700	27.744002	3.714423E-5	20.871432
2265.573754	-2.984200	3.218200	-9.602300	27.755385	3.331595E-5	20.880516
2266.574336	-2.997300	3.217000	-9.640800	27.714144	3.377798E-5	20.886429
2267.573955	-2.986800	3.218400	-9.612000	27.758186	3.308493E-5	20.875749
2268.573603	-2.984000	3.215300	-9.593600	27.785763	3.414101E-5	20.852293
2269.573349	-3.001700	3.217000	-9.655300	27.852861	3.499907E-5	20.852492
2270.574038	-2.989300	3.215100	-9.610300	27.831710	3.367898E-5	20.864395
2271.573457	-3.005100	3.213600	-9.656700	27.793473	3.463605E-5	20.863371
2272.574873	-2.958900	3.216900	-9.518000	27.741720	3.057675E-5	20.862972
2273.574361	-2.993800	3.214600	-9.623300	27.703876	3.229287E-5	20.873253
2274.573900	-3.014500	3.212900	-9.684200	27.735793	3.054375E-5	20.857956
2275.575825	-3.009200	3.211000	-9.661600	27.801929	3.348096E-5	20.845803
2276.574750	-3.004200	3.211300	-9.646200	27.829973	3.315094E-5	20.851742
2277.578343	-2.983200	3.211600	-9.579900	27.833842	3.097278E-5	20.855161
2278.575139	-2.983200	3.210000	-9.574800	27.859456	3.245789E-5	20.845853
2279.575790	-2.983600	3.211700	-9.581500	27.904286	3.189685E-5	20.872479
2280.576121	-2.986100	3.211800	-9.589900	27.870391	3.064275E-5	20.852116
2281.583403	-3.004100	3.209200	-9.639900	27.819683	3.153382E-5	20.848023
2282.580663	-3.001200	3.209300	-9.631000	27.799524	3.084077E-5	20.880365
2283.582408	-2.999900	3.208400	-9.624100	27.781819	2.988370E-5	20.856859
2284.579169	-2.992200	3.209000	-9.600800	27.828510	2.975169E-5	20.848847
2285.580187	-2.991000	3.208000	-9.594200	27.849017	3.163283E-5	20.844356
2286.581641	-2.992800	3.207000	-9.597000	27.882665	2.925665E-5	20.856408
2287.580106	-2.990500	3.206400	-9.588100	27.889856	3.156682E-5	20.855585
2288.583745	-2.988000	3.207000	-9.582100	27.929204	3.008171E-5	20.848723
2289.580384	-3.015400	3.204900	-9.663600	27.917799	3.041174E-5	20.826338
2290.581337	-3.033500	3.204100	-9.718100	27.899030	2.961968E-5	20.842060
2291.584355	-2.991100	3.205300	-9.586000	27.903369	2.866261E-5	20.824143
2292.582144	-2.995000	3.204900	-9.597400	27.955709	2.655045E-5	20.842683
2293.585720	-3.003000	3.204200	-9.621900	27.976164	2.684747E-5	20.840039
2294.583342	-2.988200	3.203700	-9.572600	27.967660	2.704549E-5	20.843333
2295.583993	-3.017400	3.203300	-9.665200	27.939248	2.565939E-5	20.841288
2296.582218	-2.999200	3.202200	-9.603700	27.859531	2.615442E-5	20.842135
2297.583469	-2.980800	3.203000	-9.546500	27.870219	2.711149E-5	20.832977
2298.583685	-3.001400	3.203300	-9.614000	27.852242	2.763953E-5	20.841911
2299.585718	-2.987000	3.201700	-9.562800	27.928685	2.602241E-5	20.850570
2300.584089	-2.998300	3.202200	-9.600200	27.944950	2.714450E-5	20.830432
2301.584700	-2.988900	3.200500	-9.565200	27.997189	2.631944E-5	20.835598
2302.588259	-2.994200	3.200500	-9.582100	27.944181	2.886062E-5	20.826814
2303.586252	-3.005100	3.199200	-9.613100	27.905402	2.539537E-5	20.839465
2304.590576	-3.025200	3.198000	-9.673900	27.805476	2.503234E-5	20.817131
2305.586823	-3.005800	3.198000	-9.611900	27.874781	2.420728E-5	20.838043
2306.586511	-2.992700	3.198400	-9.571000	27.927768	2.506534E-5	20.855811
2307.586851	-2.999700	3.196800	-9.588600	27.978669	2.476832E-5	20.831181
2308.587973	-2.999300	3.196000	-9.584600	27.943339	2.595641E-5	20.825017
2309.590782	-3.005900	3.195300	-9.603600	27.898460	2.562638E-5	20.829159
2310.589768	-2.999700	3.193800	-9.579900	27.870144	2.526336E-5	20.831954
2311.588943	-2.997300	3.196000	-9.578000	27.917404	2.565939E-5	20.818829
2312.588505	-2.994400	3.194700	-9.565700	27.950331	2.496634E-5	20.827788
2313.591330	-3.011100	3.192900	-9.613300	27.945372	2.367924E-5	20.838443
2314.589494	-2.992100	3.193700	-9.554600	27.970364	2.529636E-5	20.815236
2315.591743	-2.999200	3.193400	-9.576100	27.935082	2.410827E-5	20.818129
2316.589944	-3.014000	3.190900	-9.616500	27.910213	2.480132E-5	20.804479
2317.590184	-2.988600	3.191900	-9.538100	27.964438	2.424028E-5	20.815435
2318.591506	-3.007500	3.189500	-9.591600	27.959530	2.278818E-5	20.832305
2319.590637	-3.015400	3.189800	-9.617900	27.939423	2.404227E-5	20.827240
2320.597998	-2.989900	3.191600	-9.542100	27.928042	2.282118E-5	20.823846
2321.592930	-2.985000	3.190100	-9.521000	27.958785	2.585740E-5	20.824444
2322.592753	-2.984600	3.187900	-9.514000	27.963324	2.595641E-5	20.825219
2323.592407	-2.985200	3.189200	-9.518800	27.992604	2.292019E-5	20.824819
2324.594014	-2.999300	3.186700	-9.557200	27.977257	2.391026E-5	20.826441
2325.593229	-3.004700	3.187100	-9.575600	27.938480	2.133607E-5	20.817757
2326.595903	-3.000800	3.185900	-9.559500	27.958712	2.285418E-5	20.824844
2327.593668	-2.996100	3.187000	-9.547500	27.948447	2.361324E-5	20.815461
2328.593965	-3.002300	3.186000	-9.564600	27.982563	2.024699E-5	20.813764
2329.594001	-2.995600	3.185300	-9.540900	28.030015	2.417428E-5	20.815061
2330.595715	-2.989700	3.183800	-9.518300	28.074095	2.064302E-5	20.805853
2331.594714	-2.993800	3.183700	-9.531100	28.073152	2.074203E-5	20.812017
2332.593889	-2.987100	3.184300	-9.511100	28.111008	1.971895E-5	20.813615
2333.594340	-3.019100	3.181000	-9.603400	28.072409	1.965295E-5	20.814588
2334.595691	-3.002800	3.182200	-9.555100	28.043626	2.189711E-5	20.793201
2335.596351	-3.027300	3.179600	-9.624100	28.010827	2.212813E-5	20.824196
2336.597742	-2.972000	3.181300	-9.453800	27.974407	1.978496E-5	20.820253
2337.596592	-3.013700	3.181100	-9.586300	27.983133	1.968595E-5	20.829037
2338.596003	-3.021700	3.178900	-9.604200	27.984300	1.915791E-5	20.820254
2339.597041	-3.008700	3.179300	-9.564900	27.952365	1.948793E-5	20.798068
2340.595349	-2.983800	3.178500	-9.482800	27.980779	1.955394E-5	20.817184
2341.598600	-2.993000	3.177600	-9.509200	27.955019	1.899290E-5	20.806902
2342.595384	-2.990900	3.176000	-9.498500	27.925141	1.912491E-5	20.809547
2343.596556	-3.002400	3.176400	-9.535300	27.942275	1.994997E-5	20.806877
2344.597807	-2.985100	3.175900	-9.479400	27.950730	1.965295E-5	20.793103
2345.596914	-2.987300	3.174800	-9.482800	28.014199	1.839885E-5	20.799616
2346.599313	-2.997200	3.174500	-9.513400	28.075831	2.011498E-5	20.802386
2347.598847	-2.992900	3.173900	-9.498000	28.151416	1.892689E-5	20.806878
2348.597105	-3.006900	3.172600	-9.538700	28.136740	1.981796E-5	20.794949
2349.597070	-2.978600	3.173000	-9.448900	28.149830	1.892689E-5	20.806704
2350.600194	-3.018700	3.171400	-9.572200	28.172610	1.882789E-5	20.803559
2351.597650	-3.001100	3.172000	-9.517600	28.224839	1.955394E-5	20.812045
2352.598806	-3.007300	3.170700	-9.534500	28.193557	1.674873E-5	20.811845
2353.599301	-3.019400	3.169800	-9.569900	28.203720	2.100605E-5	20.814016
2354.600150	-2.992700	3.169600	-9.485500	28.249849	1.747479E-5	20.809724
2355.600071	-2.980600	3.169200	-9.445000	28.286880	1.681474E-5	20.808127
2356.600495	-2.991700	3.167400	-9.475200	28.225731	1.839885E-5	20.810098
2357.600091	-3.007200	3.166200	-9.520300	28.203125	1.704575E-5	20.796822
2358.600502	-3.000000	3.165400	-9.495300	28.126404	1.668273E-5	20.784070
2359.600785	-2.989400	3.167000	-9.466300	28.075882	1.552764E-5	20.805282
2360.600554	-2.999300	3.165300	-9.492400	28.033588	1.645171E-5	20.795899
2361.602250	-3.026900	3.163900	-9.576000	28.065917	1.717776E-5	20.793828
2362.604075	-2.999900	3.163900	-9.490900	28.056620	1.777181E-5	20.809599
2363.606122	-3.019400	3.161500	-9.544600	28.109473	1.697975E-5	20.797371
2364.603868	-3.002700	3.162100	-9.493700	28.188377	1.628670E-5	20.809949
2365.603406	-3.045100	3.161000	-9.624700	28.239712	1.618769E-5	20.785767
2366.606950	-2.979600	3.162000	-9.420400	28.224766	1.668273E-5	20.811023
2367.604455	-2.987800	3.162000	-9.446100	28.218891	1.526362E-5	20.787090
2368.608738	-3.005700	3.160600	-9.499100	28.225657	1.684774E-5	20.791532
2369.605927	-2.985300	3.159300	-9.429900	28.148195	1.364650E-5	20.785144
2370.605430	-3.012600	3.158200	-9.513300	28.224096	1.549464E-5	20.796124
2371.605189	-2.971000	3.159400	-9.385600	28.268514	1.414154E-5	20.785842
2372.604437	-2.993100	3.157600	-9.449600	28.274189	1.618769E-5	20.793453
2373.605222	-2.991900	3.157300	-9.445700	28.223525	1.311847E-5	20.791282
2374.609349	-2.991100	3.157100	-9.442300	28.197548	1.410854E-5	20.770818
2375.618173	-2.989000	3.155800	-9.431900	28.221170	1.348149E-5	20.785592
2376.608035	-2.975300	3.155400	-9.386800	28.179055	1.394353E-5	20.797246
2377.608697	-2.996700	3.153400	-9.449000	28.184335	1.470258E-5	20.793552
2378.607449	-3.007000	3.152400	-9.478300	28.203793	1.245842E-5	20.801762
2379.609213	-3.004100	3.152800	-9.470500	28.252129	1.424055E-5	20.786415
2380.608377	-3.015100	3.151800	-9.501800	28.211825	1.338248E-5	20.792779
2381.609526	-2.988900	3.150800	-9.416800	28.169759	1.239241E-5	20.807327
2382.608665	-2.964400	3.151400	-9.341200	28.182649	1.265643E-5	20.765302
2383.609887	-2.999400	3.149900	-9.447300	28.188078	1.331648E-5	20.785941
2384.609141	-2.985500	3.147900	-9.397100	28.213808	1.245842E-5	20.791456
2385.609739	-3.004900	3.146600	-9.454800	28.268165	1.156735E-5	20.782646
2386.609945	-2.993100	3.146200	-9.416600	28.302493	1.100631E-5	20.804881
2387.610056	-2.966800	3.148100	-9.339200	28.332260	1.216140E-5	20.784119
2388.611156	-3.000400	3.145700	-9.437300	28.398806	1.183137E-5	20.775734
2389.611324	-3.039100	3.142600	-9.549100	28.389909	1.001624E-5	20.770094
2390.614676	-2.997700	3.142400	-9.419500	28.311441	1.245842E-5	20.762682
2391.611677	-2.988800	3.142400	-9.390800	28.301229	1.090730E-5	20.780375
2392.611272	-3.003200	3.141200	-9.433000	28.278773	9.950232E-6	20.768671
2393.615074	-3.012400	3.141100	-9.461400	28.281352	1.107231E-5	20.784069
2394.610955	-2.998400	3.140500	-9.415000	28.253020	1.130333E-5	20.789683
2395.613142	-2.997300	3.139100	-9.407600	28.202727	1.021425E-5	20.787886
2396.611178	-2.995800	3.138600	-9.401300	28.161901	8.729143E-6	20.794675
2397.611519	-3.007900	3.136900	-9.435200	28.212022	1.057728E-5	20.774959
2398.612056	-2.994000	3.137700	-9.393200	28.183888	9.059167E-6	20.783619
2399.612684	-3.010900	3.136600	-9.442000	28.201859	9.323186E-6	20.777529
2400.614269	-2.998400	3.134900	-9.398800	28.249078	1.140234E-5	20.785715
2401.613888	-3.000100	3.134900	-9.403900	28.292727	9.092169E-6	20.782720
2402.614246	-3.009600	3.133100	-9.428400	28.191299	8.663138E-6	20.776855
2403.614099	-3.001000	3.132800	-9.400700	28.188523	8.828150E-6	20.777853
2404.615821	-2.974800	3.133400	-9.320600	28.256886	8.696140E-6	20.771290
2405.614668	-2.993900	3.132500	-9.377300	28.276442	1.186437E-5	20.774384
2406.615458	-2.969900	3.131500	-9.298900	28.308862	6.781999E-6	20.766249
2407.614870	-2.988800	3.130200	-9.353700	28.324079	8.696140E-6	20.773984
2408.615695	-3.015600	3.128100	-9.432000	28.399399	8.399118E-6	20.778228
2409.619076	-3.014000	3.127900	-9.427200	28.416945	8.135099E-6	20.778826
2410.616178	-2.991900	3.127800	-9.358000	28.466435	6.517980E-6	20.778402
2411.619328	-3.004000	3.125900	-9.389800	28.478552	6.682992E-6	20.793924
2412.616554	-2.997500	3.125800	-9.369100	28.460091	8.102096E-6	20.758737
2413.615869	-3.019600	3.123500	-9.430200	28.432732	6.583985E-6	20.772912
2414.615816	-3.003500	3.124100	-9.382400	28.409361	5.758924E-6	20.766923
2415.616455	-3.010900	3.123000	-9.402500	28.391269	5.560909E-6	20.761032
2416.619669	-3.020400	3.121700	-9.427900	28.438431	5.296890E-6	20.774858
2417.616985	-3.012600	3.120300	-9.399300	28.433624	6.154953E-6	20.762431
2418.619294	-3.007700	3.120000	-9.382600	28.445320	5.560909E-6	20.780373
2419.619637	-3.026800	3.119000	-9.440000	28.344354	6.022943E-6	20.757414
2420.617048	-3.012000	3.118500	-9.392500	28.317834	5.395897E-6	20.751101
2421.620253	-2.993600	3.118500	-9.334000	28.360860	3.217737E-6	20.762655
2422.616817	-3.007700	3.117300	-9.374400	28.398482	5.692919E-6	20.762605
2423.617807	-3.001600	3.115200	-9.349500	28.379052	5.956939E-6	20.757265
2424.616390	-3.006700	3.113800	-9.361500	28.452434	6.187956E-6	20.765251
2425.617783	-3.017500	3.114500	-9.397800	28.442892	5.494905E-6	20.752323
2426.618574	-2.998800	3.112900	-9.333900	28.447179	3.712773E-6	20.760908
2427.618039	-3.011400	3.111200	-9.367600	28.390825	5.428900E-6	20.778129
2428.618171	-3.008200	3.111500	-9.359000	28.382571	4.999868E-6	20.765077
2429.619483	-2.974600	3.109900	-9.249600	28.431492	7.112024E-6	20.766448
2430.619454	-2.999400	3.110100	-9.328100	28.410204	4.900861E-6	20.763030
2431.618406	-3.010800	3.109600	-9.361000	28.414963	2.557688E-6	20.764503
2432.621197	-2.985800	3.106300	-9.274100	28.364256	3.481756E-6	20.765601
2433.619780	-3.001600	3.106600	-9.324100	28.365098	5.131878E-6	20.765500
2434.620726	-3.014100	3.105500	-9.359400	28.425024	4.009795E-6	20.740494
2435.621547	-2.990500	3.105400	-9.285500	28.453375	4.834856E-6	20.770467
2436.620151	-3.032400	3.101600	-9.405000	28.445767	1.105581E-6	20.769918
2437.623947	-2.980600	3.103700	-9.250200	28.416202	2.656696E-6	20.746309
2438.622752	-3.000700	3.101500	-9.306100	28.471441	1.303596E-6	20.754045
2439.623934	-2.999900	3.098900	-9.294700	28.490572	2.029649E-6	20.771889
2440.622690	-3.008800	3.098700	-9.322700	28.476744	4.009795E-6	20.761757
2441.626788	-3.001000	3.098400	-9.297100	28.449409	1.336598E-6	20.742290
2442.625518	-2.987800	3.097300	-9.253400	28.426882	1.963645E-6	20.760384
2443.627198	-3.031300	3.096900	-9.386400	28.369410	3.646768E-6	20.754195
2444.624332	-3.021800	3.095000	-9.351700	28.337736	-2.475182E-7	20.741267
2445.623610	-2.990900	3.095000	-9.256200	28.297138	2.293669E-6	20.746857
2446.626465	-3.012200	3.092800	-9.315200	28.313223	9.075668E-7	20.751674
2447.626051	-2.981600	3.091900	-9.218200	28.288785	4.075800E-6	20.767845
2448.627979	-2.963900	3.092100	-9.163800	28.259611	2.029649E-6	20.759809
2449.625869	-3.019200	3.089400	-9.326300	28.244442	2.425679E-6	20.759235
2450.625587	-2.994900	3.087800	-9.246200	28.316172	1.105581E-6	20.763652
2451.628736	-3.001900	3.088900	-9.271100	28.373226	3.547761E-6	20.764675
2452.625648	-2.988200	3.088300	-9.227900	28.464228	3.795279E-7	20.756739
2453.630692	-2.984200	3.087800	-9.213600	28.512947	-5.115377E-7	20.749851
2454.626223	-2.989600	3.085400	-9.223700	28.513739	1.006574E-6	20.734052
2455.626253	-3.001300	3.083700	-9.254100	28.569867	9.735717E-7	20.750750
2456.626333	-2.992800	3.084500	-9.230400	28.612783	3.795279E-7	20.758411
2457.627488	-3.013200	3.082100	-9.286200	28.609735	2.821708E-6	20.741115
2458.627453	-3.003300	3.080300	-9.250800	28.567437	1.732628E-6	20.748777
2459.630025	-2.986000	3.080100	-9.196900	28.585550	1.567615E-6	20.740940
2460.628766	-2.989900	3.079000	-9.205600	28.534381	1.732628E-6	20.745831
2461.630602	-2.974000	3.077900	-9.151600	28.512004	2.029649E-6	20.746531
2462.633006	-2.966800	3.076600	-9.126600	28.574052	-4.950365E-8	20.747378
2463.629041	-2.993900	3.074900	-9.205300	28.618182	5.775425E-7	20.765271
2464.630886	-2.987700	3.074100	-9.182700	28.606066	-6.435474E-7	20.738843
2465.629382	-3.015600	3.074000	-9.268900	28.620858	4.785352E-7	20.737620
2466.628957	-3.007300	3.072100	-9.238000	28.645785	1.501611E-6	20.744708
2467.629354	-3.007000	3.070300	-9.231400	28.634114	1.303596E-6	20.733426
2468.630007	-2.987900	3.071400	-9.175800	28.556458	4.950364E-8	20.759532
2469.631216	-2.991700	3.068600	-9.179600	28.556135	-1.006574E-6	20.732652
2470.634448	-3.010900	3.068300	-9.237700	28.567262	5.115377E-7	20.750023
2471.629918	-3.022900	3.066400	-9.267700	28.529869	-7.755571E-7	20.744607
2472.629790	-3.003600	3.065800	-9.207500	28.539211	5.445401E-7	20.740738
2473.631880	-2.998800	3.064400	-9.188900	28.577222	1.468608E-6	20.724017
2474.630622	-2.987800	3.063000	-9.150800	28.564710	-1.237591E-6	20.734175
2475.631323	-3.007000	3.061300	-9.204400	28.514504	-1.633620E-6	20.735771
2476.630991	-3.002600	3.060000	-9.187200	28.472700	-1.270594E-6	20.724017
2477.629704	-2.958400	3.060800	-9.054000	28.558886	-1.402603E-6	20.739216
2478.632197	-2.998700	3.057300	-9.166500	28.490443	-1.072579E-6	20.743783
2479.630909	-3.003600	3.056000	-9.178200	28.486305	-4.455328E-7	20.753841
2480.633535	-2.997500	3.055800	-9.158700	28.493392	-6.765498E-7	20.734899
2481.632424	-3.015100	3.055000	-9.209300	28.535518	-2.194662E-6	20.729907
2482.632038	-3.004000	3.054200	-9.173400	28.569738	-1.815134E-7	20.712686
2483.634345	-2.997500	3.052200	-9.147400	28.657205	-1.798632E-6	20.721596
2484.631996	-3.015000	3.051000	-9.197400	28.665952	-8.085595E-7	20.739415
2485.636849	-3.008200	3.049800	-9.173300	28.615132	-2.029649E-6	20.734223
2486.631872	-3.032800	3.048600	-9.244100	28.597664	-1.138584E-6	20.728957
2487.633787	-2.990700	3.046200	-9.109000	28.595186	-1.138584E-6	20.731678
2488.634177	-3.001900	3.045800	-9.142300	28.542604	-1.072579E-6	20.749845
2489.633335	-2.976300	3.044500	-9.059800	28.576898	-1.105581E-6	20.723691
2490.633346	-2.983900	3.042400	-9.077100	28.583266	-1.897640E-6	20.730578
2491.637155	-2.981100	3.041600	-9.066600	28.563666	-2.326671E-6	20.735495
2492.634058	-3.013400	3.041500	-9.164200	28.596003	-9.735717E-7	20.735820
2493.631824	-3.002700	3.038400	-9.123200	28.606136	-1.204589E-6	20.744604
2494.638149	-3.019000	3.037700	-9.170100	28.659062	-2.887713E-6	20.739588
2495.633419	-2.978300	3.037100	-9.045100	28.685300	-3.976793E-6	20.742782
2496.638110	-2.975500	3.036800	-9.034100	28.693947	-1.105581E-6	20.748647
2497.635389	-3.018800	3.034600	-9.160600	28.754200	-1.336598E-6	20.722092
2498.634444	-3.006400	3.033600	-9.119400	28.700710	-1.336598E-6	20.730328
2499.635173	-2.978400	3.032500	-9.031500	28.698455	-3.514759E-6	20.730901
2500.635933	-2.956300	3.031400	-8.960500	28.690799	-1.633620E-6	20.730302
2501.636418	-2.985700	3.029500	-9.044300	28.725559	-2.953718E-6	20.739236
2502.636580	-2.982100	3.029300	-9.032300	28.711957	-2.194662E-6	20.725061
2503.639287	-2.989200	3.027700	-9.049200	28.706358	-1.633620E-6	20.749294
2504.637265	-3.011900	3.025900	-9.112400	28.691293	-2.458681E-6	20.739809
2505.636970	-3.004400	3.023500	-9.082700	28.729324	-2.425679E-6	20.734494
2506.638057	-3.010100	3.023600	-9.100700	28.744883	-2.788705E-6	20.727880
2507.638690	-2.993600	3.021600	-9.044800	28.734651	-3.679771E-6	20.749817
2508.637041	-3.014200	3.020700	-9.104000	28.689781	-2.425679E-6	20.740183
2509.638180	-2.998000	3.018800	-9.049800	28.713393	-1.006574E-6	20.743103
2510.638977	-3.005500	3.016600	-9.066100	28.748103	-2.128657E-6	20.746772
2511.639312	-2.999900	3.016300	-9.047500	28.796734	-2.458681E-6	20.749291
2512.643221	-3.010400	3.016500	-9.079500	28.684924	-2.458681E-6	20.731023
2513.643797	-2.999400	3.015400	-9.043200	28.682645	-4.372822E-6	20.713553
2514.640249	-3.026500	3.012300	-9.115800	28.665970	-1.039577E-6	20.729475
2515.640287	-2.990700	3.010600	-9.003300	28.650410	-2.788705E-6	20.741305
2516.640529	-3.012200	3.009600	-9.064400	28.684081	-2.458681E-6	20.726380
2517.643766	-2.976000	3.009600	-8.956200	28.672733	-2.623693E-6	20.730598
2518.643933	-3.005400	3.006800	-9.035500	28.642183	-1.633620E-6	20.753408
2519.641837	-2.977600	3.006600	-8.951200	28.715893	-2.161659E-6	20.733767
2520.641270	-3.020000	3.003800	-9.069900	28.790144	-3.745776E-6	20.747868
2521.647107	-3.004300	3.002200	-9.019100	28.870161	-2.854710E-6	20.731746
2522.641734	-3.006000	3.003000	-9.026200	28.856015	-5.725922E-6	20.737410
2523.645288	-2.986800	3.001200	-8.963100	28.830821	-3.085727E-6	20.727203
2524.641960	-3.014400	2.997700	-9.034200	28.795346	-4.042798E-6	20.753109
2525.643709	-2.983200	2.999300	-8.946500	28.713266	-2.293669E-6	20.742027
2526.644681	-3.000300	2.995400	-8.986600	28.645230	-3.745776E-6	20.743200
2527.643829	-2.978600	2.994200	-8.917400	28.589380	-2.425679E-6	20.730572
2528.646928	-2.985900	2.994400	-8.940000	28.615794	-4.306817E-6	20.746270
2529.642900	-3.053200	2.990600	-9.129900	28.676251	-5.296890E-6	20.731296
2530.643468	-2.953200	2.992300	-8.836000	28.767622	-2.458681E-6	20.737509
2531.643896	-3.014300	2.989000	-9.008800	28.814024	-2.260666E-6	20.738258
2532.644243	-3.023700	2.987900	-9.032900	28.846179	-2.854710E-6	20.742675
2533.645356	-2.985800	2.986800	-8.917500	28.879200	-3.415752E-6	20.724731
2534.650029	-2.998400	2.985300	-8.949900	28.924631	-3.382749E-6	20.742051
2535.647682	-3.014500	2.983200	-8.991700	28.990371	-3.283742E-6	20.732892
2536.647910	-3.027400	2.981600	-9.026100	29.027895	-4.702846E-6	20.739879
2537.648225	-3.060800	2.979700	-9.118500	28.982866	-3.910788E-6	20.767057
2538.647040	-3.015400	2.978400	-8.980500	28.919255	-3.943790E-6	20.750860
2539.655707	-3.022600	2.977500	-8.999100	28.902634	-2.491683E-6	20.745969
2540.647344	-3.022100	2.975400	-8.990700	28.916555	-3.085727E-6	20.742449
2541.648581	-3.023800	2.974100	-8.991800	28.883584	-6.105450E-7	20.751908
2542.648682	-2.998200	2.973600	-8.914300	28.892774	-1.435606E-6	20.739828
2543.649544	-2.990500	2.972300	-8.888100	28.901815	-2.656696E-6	20.761266
2544.648281	-3.007000	2.970500	-8.930800	28.878901	-3.745776E-6	20.728697
2545.649337	-3.000200	2.968900	-8.906400	28.834285	-2.854710E-6	20.764359
2546.648243	-3.008200	2.966700	-8.923500	28.758031	-4.702846E-6	20.771472
2547.648657	-2.995700	2.966600	-8.885300	28.737295	-3.712773E-6	20.767653
2548.650805	-3.013000	2.963500	-8.927000	28.688040	-3.877786E-6	20.750758
2549.649025	-2.975800	2.962700	-8.814500	28.696910	-3.019722E-6	20.745941
2550.650698	-2.982300	2.962100	-8.833000	28.795216	-4.537834E-6	20.753452
2551.651423	-2.997800	2.959500	-8.871800	28.889972	-5.527907E-6	20.746964
2552.650270	-3.004300	2.957900	-8.885600	28.859305	-1.831635E-6	20.777236
2553.653674	-3.025000	2.957000	-8.944100	28.850336	-6.286963E-6	20.765830
2554.652284	-2.993200	2.954100	-8.841600	28.840477	-4.042798E-6	20.753526
2555.658489	-3.005200	2.953200	-8.874000	28.872705	-5.395897E-6	20.767027
2556.650910	-2.975700	2.952700	-8.785800	28.882168	-5.362895E-6	20.777035
2557.652128	-2.959500	2.951400	-8.733200	28.914593	-2.689698E-6	20.761811
2558.651917	-3.033900	2.947500	-8.941300	28.878748	-3.349747E-6	20.776434
2559.652244	-3.018500	2.945600	-8.890100	28.828485	-5.593912E-6	20.757093
2560.651395	-2.954100	2.947300	-8.704900	28.841219	-2.029649E-6	20.753800
2561.654743	-3.010800	2.942700	-8.858700	28.873695	-3.844783E-6	20.757593
2562.652697	-3.009200	2.941400	-8.850100	28.903643	-4.042798E-6	20.772116
2563.653024	-3.007000	2.939900	-8.839100	28.955017	-2.986720E-6	20.764604
2564.657226	-3.026500	2.938500	-8.892400	28.955934	-3.844783E-6	20.764579
2565.654631	-3.012500	2.936800	-8.846100	28.996383	-3.811781E-6	20.767400
2566.658222	-3.003800	2.936900	-8.820800	28.981199	-4.834856E-6	20.763482
2567.655604	-2.992900	2.934500	-8.782100	28.953457	-5.923936E-6	20.761610
2568.655524	-3.036800	2.932200	-8.903600	28.918653	-4.009795E-6	20.751676
2569.655591	-3.022100	2.931900	-8.859800	28.886178	-4.504832E-6	20.785342
2570.656745	-3.006500	2.929400	-8.806200	28.850506	-4.735849E-6	20.771691
2571.657629	-2.985500	2.928000	-8.740700	28.861209	-5.197883E-6	20.765877
2572.657672	-3.020500	2.924900	-8.833200	28.881992	-5.956939E-6	20.777805
2573.656788	-3.021000	2.923100	-8.829400	28.856476	-5.494905E-6	20.754471
2574.658904	-2.985600	2.923100	-8.726200	28.873197	-7.112024E-6	20.792654
2575.658342	-3.014500	2.921100	-8.804100	28.882511	-4.933863E-6	20.776432
2576.661552	-2.980000	2.920400	-8.701600	28.929255	-5.890934E-6	20.779427
2577.659418	-3.001800	2.919000	-8.761400	28.976243	-7.112024E-6	20.774610
2578.659010	-2.995000	2.915400	-8.731000	29.017088	-4.240812E-6	20.773088
2579.658788	-3.005800	2.912800	-8.754500	29.057584	-5.428900E-6	20.747982
2580.660267	-2.992600	2.911600	-8.712200	29.081881	-3.844783E-6	20.781473
2581.660051	-3.009300	2.912000	-8.760400	29.139859	-7.079021E-6	20.764503
2582.664841	-2.997800	2.909500	-8.720900	29.161454	-2.722700E-6	20.774410
2583.660427	-3.011600	2.907500	-8.755300	29.061274	-5.131878E-6	20.763081
2584.660118	-2.989000	2.906500	-8.686300	29.012183	-4.108803E-6	20.789009
2585.664129	-3.011000	2.903600	-8.741800	29.023651	-5.230885E-6	20.770691
2586.660381	-2.983300	2.901200	-8.653800	29.070239	-5.593912E-6	20.793925
2587.661832	-3.012900	2.899600	-8.735400	29.080171	-3.580764E-6	20.793975
2588.660181	-3.005400	2.898600	-8.710000	29.054610	-3.118730E-6	20.781971
2589.661315	-3.022700	2.896100	-8.752100	29.072369	-6.220958E-6	20.802235
2590.660709	-2.996600	2.894800	-8.673600	29.104764	-4.603839E-6	20.792202
2591.660403	-3.000300	2.891900	-8.675700	29.155088	-4.372822E-6	20.772263
2592.662878	-2.997300	2.891300	-8.665400	29.224058	-5.395897E-6	20.787711
2593.661667	-3.002000	2.889000	-8.671600	29.202463	-4.636841E-6	20.782070
2594.661133	-2.994300	2.887300	-8.644600	29.139980	-5.164880E-6	20.782169
2595.660910	-3.023800	2.884900	-8.722100	29.049309	-4.405824E-6	20.803656
2596.661974	-2.985700	2.883500	-8.608200	28.962741	-4.834856E-6	20.829759
2597.662848	-2.981000	2.882300	-8.591100	29.014137	-4.108803E-6	20.779598
2598.663859	-2.979200	2.880300	-8.580000	29.085321	-3.283742E-6	20.783517
2599.663407	-2.975000	2.878000	-8.560900	29.058348	-4.108803E-6	20.798065
2600.661908	-3.033700	2.876500	-8.725100	29.147434	-2.326671E-6	20.797740
2601.666964	-2.992400	2.874100	-8.599500	29.174972	-3.580764E-6	20.792300
2602.664638	-3.001800	2.872100	-8.620900	29.149836	-3.877786E-6	20.783091
2603.669474	-3.022500	2.872100	-8.679500	29.159247	-6.418973E-6	20.803006
2604.665979	-2.995800	2.868900	-8.594000	29.108204	-5.857931E-6	20.784289
2605.665614	-3.058400	2.864900	-8.760700	29.097405	-4.207810E-6	20.801383
2606.665238	-2.979100	2.865900	-8.536900	29.119819	-4.933863E-6	20.788880
2607.671587	-2.991100	2.863700	-8.564700	29.092426	-5.560910E-6	20.798737
2608.670736	-3.001800	2.861100	-8.587700	29.123360	-4.174807E-6	20.809518
2609.671416	-3.006000	2.859000	-8.593700	29.196615	-5.791927E-6	20.813635
2610.668438	-2.997500	2.857300	-8.564600	29.293440	-3.052725E-6	20.798362
2611.668571	-2.975800	2.855200	-8.495200	29.227644	-4.933863E-6	20.796066
2612.675031	-2.956600	2.853900	-8.437100	29.170364	-4.174807E-6	20.811364
2613.669720	-3.010700	2.850300	-8.580200	29.105750	-4.273815E-6	20.790826
2614.672966	-3.012300	2.848800	-8.580500	29.118505	-2.326671E-6	20.808893
2615.670273	-2.997600	2.846400	-8.531600	29.203277	-4.207810E-6	20.811813
2616.669933	-3.028900	2.844100	-8.613500	29.217788	-4.438827E-6	20.792772
2617.670672	-2.984700	2.842800	-8.484500	29.237253	-3.085727E-6	20.792473
2618.673501	-3.007700	2.839000	-8.538100	29.302502	-4.768851E-6	20.798486
2619.676908	-2.988200	2.837900	-8.479200	29.331498	-3.415752E-6	20.801631
2620.671934	-2.994900	2.835700	-8.491600	29.394514	-6.352968E-6	20.820572
2621.672861	-2.984300	2.834500	-8.458200	29.360196	-6.022944E-6	20.810640
2622.672079	-3.004700	2.831600	-8.507100	29.292721	-3.118730E-6	20.815655
2623.672713	-3.011300	2.828500	-8.515700	29.287298	-3.976793E-6	20.814932
2624.673128	-3.026700	2.827200	-8.556300	29.266597	-7.079021E-6	20.801656
2625.675305	-3.015400	2.824500	-8.516200	29.324912	-4.174807E-6	20.816330
2626.673923	-3.020100	2.821900	-8.522000	29.349796	-3.316744E-6	20.810590
2627.677252	-3.023300	2.819400	-8.522400	29.372725	-4.273815E-6	20.828483
2628.676227	-2.995000	2.818400	-8.440600	29.345240	-4.273815E-6	20.812162
2629.674432	-3.029000	2.813700	-8.522000	29.355690	-5.164880E-6	20.812736
2630.676848	-3.026000	2.812600	-8.510200	29.358315	-5.593912E-6	20.816804
2631.673417	-3.012800	2.809900	-8.464800	29.374285	-4.504832E-6	20.833849
2632.674734	-2.979900	2.808300	-8.367700	29.399937	-5.560910E-6	20.817029
2633.674254	-2.998700	2.805500	-8.412100	29.334198	-5.659917E-6	20.841809
2634.673837	-3.023500	2.802900	-8.472600	29.433585	-5.131878E-6	20.811115
2635.675619	-3.025300	2.799400	-8.468200	29.444355	-4.009795E-6	20.818651
2636.678473	-3.007700	2.796200	-8.409800	29.489836	-4.537834E-6	20.809020
2637.675054	-2.962300	2.794800	-8.278100	29.444455	-5.131878E-6	20.839140
2638.683019	-2.956700	2.791900	-8.253700	29.445149	-3.712773E-6	20.824667
2639.678336	-2.990700	2.789000	-8.340100	29.375524	-3.811781E-6	20.824666
2640.675254	-3.005700	2.786000	-8.373100	29.343583	-5.131878E-6	20.806699
2641.676770	-3.006600	2.783700	-8.368800	29.350120	-3.448754E-6	20.821821
2642.674724	-2.985400	2.782300	-8.305400	29.333580	-4.735849E-6	20.817480
2643.677086	-2.993500	2.777700	-8.314200	29.413011	-3.052725E-6	20.815508
2644.679399	-2.994200	2.775100	-8.308100	29.432943	-6.154953E-6	20.820425
2645.676966	-2.990400	2.772900	-8.291500	29.472877	-4.471829E-6	20.828435
2646.681281	-2.995800	2.768800	-8.294100	29.388202	-2.854710E-6	20.816108
2647.677876	-3.009400	2.765300	-8.321200	29.354082	-3.811781E-6	20.822022
2648.677206	-2.987300	2.763700	-8.255000	29.342470	-3.712773E-6	20.834499
2649.677427	-2.973000	2.760000	-8.204700	29.297057	-4.933863E-6	20.820499
2650.677558	-2.962700	2.758000	-8.169800	29.322488	-1.765630E-6	20.824792
2651.677025	-3.010100	2.753700	-8.287800	29.425787	-3.646769E-6	20.812739
2652.680361	-3.006200	2.749600	-8.264800	29.452948	-5.197883E-6	20.849597
2653.678205	-2.994300	2.747700	-8.227000	29.453616	-2.986720E-6	20.848848
2654.676567	-2.994600	2.744700	-8.218900	29.405138	-5.956939E-6	20.851668
2655.678297	-3.011900	2.739800	-8.250900	29.432671	-3.250739E-6	20.831530
2656.678367	-3.004100	2.737800	-8.223800	29.465773	-2.128657E-6	20.819851
2657.679661	-3.003500	2.733900	-8.210400	29.538880	-3.415752E-6	20.837593
2658.677460	-3.023900	2.729400	-8.251800	29.587823	-2.656696E-6	20.851842
2659.676888	-2.985000	2.726500	-8.137800	29.550986	-4.372822E-6	20.836520
2660.681859	-3.017500	2.722900	-8.215400	29.546480	-3.877786E-6	20.832926
2661.677466	-3.017700	2.719200	-8.205100	29.631985	-5.461902E-6	20.849421
2662.680686	-2.975600	2.716500	-8.081800	29.594877	-3.250739E-6	20.846625
2663.679529	-3.005400	2.712100	-8.149700	29.630227	-3.712773E-6	20.825839
2664.678103	-3.007100	2.708900	-8.144800	29.563264	-2.623693E-6	20.842733
2665.678850	-3.003000	2.705100	-8.122600	29.546727	-3.712773E-6	20.852141
2666.678113	-3.011900	2.700100	-8.131000	29.517117	-4.141805E-6	20.855958
2667.680840	-2.979700	2.698300	-8.039000	29.512612	-3.712773E-6	20.845727
2668.680387	-3.011100	2.692900	-8.107800	29.486493	-3.943790E-6	20.857330
2669.680198	-2.984300	2.688900	-8.023200	29.622725	-2.491683E-6	20.849569
2670.679476	-2.948800	2.685700	-7.919100	29.734213	-3.415752E-6	20.862870
2671.679217	-2.988800	2.680400	-8.010200	29.749410	-5.197883E-6	20.856855
2672.679919	-2.955900	2.677900	-7.914400	29.772552	-1.270594E-6	20.850791
2673.682117	-2.994700	2.672400	-8.001900	29.762651	-2.821708E-6	20.857404
2674.680589	-3.005600	2.667100	-8.015800	29.656761	-3.481756E-6	20.853062
2675.679534	-2.996900	2.664400	-7.984000	29.668420	-3.712773E-6	20.871927
2676.683511	-3.004100	2.660000	-7.989800	29.608242	-3.481756E-6	20.860572
2677.682627	-2.980500	2.656700	-7.917200	29.678742	-4.669844E-6	20.843454
2678.685857	-3.008100	2.649900	-7.970000	29.725573	-3.085727E-6	20.842780
2679.682918	-2.986100	2.646000	-7.900900	29.797995	-3.613766E-6	20.868383
2680.688616	-3.017600	2.639400	-7.964100	29.815519	-4.042798E-6	20.878465
2681.682907	-2.991600	2.637400	-7.888900	29.819923	-3.745776E-6	20.860148
2682.684664	-2.976200	2.630800	-7.829400	29.824230	-2.887713E-6	20.863542
2683.687240	-2.979100	2.625900	-7.821700	29.873406	-5.725922E-6	20.879936
2684.689666	-2.972200	2.621400	-7.790800	29.865313	-3.217737E-6	20.889318
2685.686513	-2.978100	2.617000	-7.793000	29.895556	-2.425679E-6	20.848219
2686.686397	-2.962800	2.610100	-7.731900	29.862887	-1.798632E-6	20.861270
2687.692681	-3.045100	2.603000	-7.925200	29.912854	-2.821708E-6	20.856653
2688.686717	-2.961400	2.600600	-7.700300	29.898203	-3.712773E-6	20.886922
2689.689373	-3.010800	2.592600	-7.805100	29.938566	-3.448754E-6	20.878787
2690.686264	-2.984200	2.587900	-7.722000	29.956111	-3.745776E-6	20.843851
2691.686850	-2.985300	2.583700	-7.712500	29.959650	-3.019722E-6	20.860221
2692.687183	-2.976900	2.576600	-7.669100	29.925054	-3.217737E-6	20.886023
2693.686994	-3.010800	2.570900	-7.739700	29.916590	-2.491683E-6	20.857576
2694.691173	-3.022000	2.563900	-7.746100	29.920896	-1.303596E-6	20.869504
2695.688572	-3.007300	2.559300	-7.695700	29.992958	-2.029649E-6	20.885748
2696.689743	-2.998000	2.552500	-7.651700	30.035693	-1.831635E-6	20.913671
2697.690435	-2.990700	2.546500	-7.615000	30.066301	-8.250608E-8	20.887644
2698.688284	-2.988200	2.540800	-7.590900	29.988899	-3.712773E-6	20.885448
2699.688354	-2.982800	2.534200	-7.557800	29.989121	-2.557688E-6	20.883302
2700.692936	-3.019000	2.529000	-7.634400	29.983356	-3.712773E-6	20.862316
2701.690000	-2.996900	2.522100	-7.558000	30.008620	-2.623693E-6	20.884000
2702.689641	-2.985600	2.516400	-7.512200	30.058358	-4.636841E-6	20.884375
2703.691518	-3.014300	2.508300	-7.559700	30.144514	-3.415752E-6	20.886396
2704.689741	-2.993300	2.503500	-7.492500	30.122864	-3.646769E-6	20.873569
2705.694354	-2.994000	2.497200	-7.475800	30.118237	-2.755703E-6	20.874118
