LabVIEW Measurement	
Writer_Version	2
Reader_Version	2
Separator	Tab
Decimal_Separator	.
Multi_Headings	No
X_Columns	One
Time_Pref	Absolute
Operator	admin
Description	Clolumns are: time, Current, Voltage, Power, Battery Temp, and Chamber Temp
Date	2024/08/16
Time	13:07:17.8513970375061035156
***End_of_Header***	
	
Channels	6						
Samples	1	1	1	1	1	1	
Date	2024/09/12	2024/09/12	2024/09/12	2024/09/12	2024/09/12	2024/09/12	
Time	00:24:31.4635729789733886719	00:24:31.4689774513244628906	00:24:31.4769806861877441407	00:24:31.4485735893249511719	00:24:31.4485735893249511719	00:24:31.4485735893249511719	
X_Dimension	Time	Time	Time	Time	Time	Time	
X0	0.0000000000000000E+0	0.0000000000000000E+0	0.0000000000000000E+0	0.0000000000000000E+0	0.0000000000000000E+0	0.0000000000000000E+0	
Delta_X	1.000000	1.000000	1.000000	1.000000	1.000000	1.000000	
***End_of_Header***							
X_Value	Untitled	Untitled 1	Untitled 2	Untitled 3	Untitled 4	Untitled 5	Comment
0.000000	0.029945	4.086500	0.122390	20.771230	0.000456	20.798257
1.007946	-2.985200	3.917300	-11.693000	20.767264	0.000455	20.797610
2.007748	-2.979800	3.912500	-11.658000	20.779044	0.000455	20.789475
3.002469	-2.997800	3.906800	-11.710000	20.767289	0.000454	20.807118
4.003586	-2.995800	3.903600	-11.693000	20.766167	0.000452	20.793194
5.005514	-2.996000	3.901400	-11.688000	20.766637	0.000452	20.784655
6.007054	-3.010000	3.898800	-11.735000	20.790572	0.000450	20.806219
7.002337	-3.004500	3.896400	-11.706000	20.819194	0.000449	20.765140
8.003753	-3.023000	3.894400	-11.772000	20.797107	0.000453	20.796633
9.009761	-2.989100	3.892500	-11.634000	20.808536	0.000450	20.799053
10.003317	-2.980700	3.890500	-11.596000	20.808734	0.000450	20.787871
11.005560	-3.010900	3.888000	-11.706000	20.809785	0.000450	20.807889
12.004278	-3.025200	3.888400	-11.762000	20.834936	0.000448	20.785150
13.003132	-2.990100	3.887700	-11.624000	20.834387	0.000448	20.808784
14.003859	-3.008100	3.886000	-11.689000	20.847787	0.000446	20.805114
15.008987	-3.012100	3.884500	-11.699000	20.856993	0.000451	20.799622
16.009045	-2.999500	3.882400	-11.644000	20.865828	0.000446	20.804665
17.003432	-3.008500	3.881600	-11.677000	20.887065	0.000447	20.805988
18.004695	-2.992700	3.881000	-11.613000	20.903857	0.000446	20.809979
19.004891	-2.995800	3.881300	-11.627000	20.888640	0.000447	20.792864
20.005513	-2.983600	3.881300	-11.580000	20.898341	0.000447	20.818213
21.007211	-2.998300	3.880000	-11.632000	20.889831	0.000445	20.807806
22.011196	-3.005200	3.878900	-11.656000	20.926540	0.000444	20.816069
23.011718	-3.014100	3.878900	-11.691000	20.910573	0.000444	20.794411
24.008929	-3.009900	3.876200	-11.666000	20.951766	0.000443	20.805262
25.009989	-3.001700	3.876800	-11.636000	20.953563	0.000442	20.802319
26.009004	-3.024500	3.875500	-11.721000	20.938718	0.000443	20.825403
27.011727	-3.017200	3.875700	-11.693000	20.934748	0.000443	20.820959
28.009955	-2.990100	3.875400	-11.586000	20.979811	0.000444	20.829044
29.010129	-2.987900	3.875000	-11.577000	20.951564	0.000441	20.807905
30.009212	-3.020200	3.872700	-11.695000	20.979910	0.000442	20.825824
31.010407	-3.028200	3.872200	-11.724000	21.010147	0.000440	20.815764
32.010184	-3.011400	3.873000	-11.662000	21.005732	0.000440	20.810400
33.012188	-3.003600	3.872300	-11.629000	20.999644	0.000443	20.815215
34.011146	-2.984200	3.871800	-11.554000	21.019929	0.000442	20.802789
35.012347	-3.000400	3.871400	-11.615000	21.043933	0.000442	20.821581
36.016866	-2.995100	3.871400	-11.594000	21.012621	0.000440	20.807332
37.011834	-2.973800	3.871300	-11.511000	21.052742	0.000442	20.815220
38.015418	-3.016400	3.870800	-11.675000	21.066164	0.000439	20.809678
39.012125	-3.007700	3.870400	-11.640000	21.059952	0.000440	20.830965
40.024541	-3.002800	3.870400	-11.621000	21.073695	0.000440	20.823375
41.012238	-3.001600	3.869500	-11.613000	21.066638	0.000442	20.797824
42.012670	-3.012200	3.868000	-11.650000	21.091259	0.000439	20.836675
43.014627	-3.011800	3.868000	-11.649000	21.097001	0.000440	20.823927
44.013678	-3.014200	3.868400	-11.659000	21.117409	0.000440	20.827745
45.014649	-3.019200	3.868100	-11.677000	21.113543	0.000439	20.815343
46.015789	-2.980300	3.867700	-11.526000	21.121576	0.000440	20.833336
47.018126	-2.991200	3.868100	-11.570000	21.142804	0.000437	20.839397
48.014990	-3.016800	3.867400	-11.666000	21.137442	0.000437	20.837352
49.016304	-3.006300	3.867000	-11.625000	21.165433	0.000439	20.836428
50.016136	-2.993700	3.866700	-11.574000	21.193996	0.000439	20.838448
51.016763	-2.986700	3.868400	-11.553000	21.188605	0.000438	20.823099
52.018580	-2.986800	3.865900	-11.545000	21.196140	0.000439	20.839170
53.017472	-2.996500	3.867100	-11.587000	21.196288	0.000438	20.834577
54.019269	-2.972000	3.865400	-11.487000	21.198332	0.000436	20.835199
55.019705	-2.989100	3.866000	-11.555000	21.207441	0.000438	20.821552
56.017033	-3.008500	3.864600	-11.625000	21.222130	0.000438	20.859005
57.017532	-3.000600	3.865200	-11.597000	21.226273	0.000436	20.831856
58.017522	-3.025400	3.864300	-11.690000	21.255832	0.000437	20.829184
59.018789	-3.014000	3.864500	-11.647000	21.263345	0.000439	20.832907
60.026245	-2.984900	3.866200	-11.539000	21.260147	0.000438	20.839665
61.026327	-2.982400	3.864700	-11.525000	21.270401	0.000440	20.846603
62.020404	-2.998500	3.863800	-11.585000	21.277684	0.000438	20.849621
63.025401	-2.970500	3.864300	-11.478000	21.271399	0.000438	20.815834
64.019412	-3.013300	3.862300	-11.638000	21.301802	0.000440	20.844826
65.024310	-2.999600	3.863100	-11.587000	21.294993	0.000437	20.828533
66.021060	-2.995300	3.862800	-11.568000	21.302531	0.000440	20.853142
67.026678	-2.994200	3.863200	-11.566000	21.337697	0.000439	20.825263
68.019517	-2.989700	3.864200	-11.552000	21.343088	0.000438	20.845354
69.022950	-3.003200	3.863500	-11.602000	21.343137	0.000438	20.838292
70.029925	-3.001400	3.862800	-11.593000	21.338142	0.000439	20.848467
71.021075	-3.010500	3.862200	-11.625000	21.348421	0.000439	20.849267
72.028528	-3.009400	3.861800	-11.621000	21.349941	0.000439	20.849840
73.032298	-3.022900	3.861900	-11.673000	21.371668	0.000439	20.829378
74.023995	-2.993900	3.863000	-11.564000	21.399904	0.000439	20.847197
75.021575	-2.973400	3.862400	-11.484000	21.389800	0.000438	20.859372
76.027470	-2.989000	3.862100	-11.543000	21.407734	0.000438	20.846022
77.023328	-3.019200	3.860700	-11.655000	21.421424	0.000440	20.848339
78.024070	-3.007600	3.861000	-11.611000	21.422771	0.000439	20.842101
79.026586	-3.005000	3.860100	-11.598000	21.419030	0.000440	20.862064
80.023125	-3.018100	3.860200	-11.650000	21.453220	0.000439	20.862134
81.026205	-3.001200	3.860200	-11.585000	21.444892	0.000439	20.851431
82.026563	-2.982900	3.861300	-11.516000	21.460905	0.000438	20.860341
83.026145	-3.013300	3.859200	-11.628000	21.468433	0.000440	20.847960
84.026363	-2.989400	3.861600	-11.543000	21.475517	0.000437	20.855995
85.025960	-2.989400	3.859400	-11.537000	21.486540	0.000440	20.862283
86.027525	-3.002300	3.859300	-11.585000	21.503624	0.000441	20.861359
87.032036	-3.003100	3.861000	-11.593000	21.514868	0.000440	20.861705
88.029701	-3.011300	3.859300	-11.620000	21.510303	0.000438	20.856189
89.029681	-2.992300	3.859600	-11.548000	21.537086	0.000441	20.887728
90.029572	-2.989200	3.859600	-11.537000	21.557338	0.000440	20.862476
91.029443	-2.987100	3.858600	-11.525000	21.540329	0.000440	20.860155
92.031172	-3.007500	3.859500	-11.607000	21.558957	0.000440	20.859829
93.034609	-2.984300	3.860000	-11.517000	21.573568	0.000441	20.873975
94.029649	-2.990800	3.859400	-11.542000	21.590004	0.000441	20.892791
95.032122	-2.991900	3.857300	-11.540000	21.579798	0.000441	20.878786
96.031612	-2.990400	3.857600	-11.535000	21.600873	0.000441	20.870953
97.032992	-3.001900	3.858100	-11.581000	21.613991	0.000441	20.872227
98.030396	-2.996500	3.857500	-11.559000	21.599876	0.000441	20.886549
99.029641	-2.986300	3.857500	-11.519000	21.629149	0.000440	20.885498
100.039024	-2.997900	3.857100	-11.562000	21.622739	0.000442	20.871971
101.037718	-2.990000	3.857900	-11.533000	21.638498	0.000441	20.868302
102.031930	-3.012000	3.856600	-11.615000	21.650145	0.000442	20.879957
103.033538	-3.012300	3.856700	-11.615000	21.648316	0.000443	20.876230
104.030885	-3.007100	3.857000	-11.596000	21.677222	0.000442	20.884768
105.031214	-3.003200	3.856800	-11.581000	21.694801	0.000441	20.881025
106.037441	-3.029800	3.854800	-11.678000	21.676023	0.000442	20.882620
107.032140	-3.006400	3.857000	-11.595000	21.704496	0.000442	20.886459
108.034873	-3.018400	3.854300	-11.633000	21.705299	0.000444	20.886314
109.032064	-3.013900	3.855800	-11.620000	21.705468	0.000443	20.879372
110.032953	-3.005200	3.856000	-11.587000	21.714568	0.000444	20.884212
111.048472	-2.988700	3.855500	-11.522000	21.727064	0.000443	20.891501
112.034758	-2.974500	3.856900	-11.472000	21.718832	0.000445	20.882315
113.039626	-2.978000	3.855000	-11.479000	21.747357	0.000444	20.889526
114.037599	-2.999200	3.854500	-11.559000	21.750966	0.000445	20.892663
115.037145	-3.006000	3.855600	-11.589000	21.757430	0.000445	20.884909
116.034367	-3.019000	3.855400	-11.639000	21.766151	0.000445	20.887947
117.035110	-3.033800	3.853600	-11.689000	21.767375	0.000445	20.889172
118.036212	-2.984500	3.855100	-11.504000	21.772557	0.000445	20.885824
119.037449	-3.008900	3.853500	-11.594000	21.792756	0.000447	20.838238
120.040005	-3.008400	3.853700	-11.593000	21.813374	0.000446	20.885898
121.041144	-2.990800	3.855000	-11.529000	21.818313	0.000446	20.868558
122.036682	-3.007300	3.853300	-11.586000	21.837237	0.000445	20.883705
123.039338	-2.998300	3.853200	-11.552000	21.818560	0.000448	20.875917
124.045672	-2.963300	3.854200	-11.420000	21.829575	0.000447	20.877933
125.041456	-2.984100	3.853300	-11.497000	21.835581	0.000448	20.881573
126.038848	-2.984500	3.853500	-11.499000	21.825761	0.000448	20.873167
127.043635	-3.030400	3.851200	-11.669000	21.839021	0.000448	20.857991
128.039259	-2.990300	3.852400	-11.520000	21.858691	0.000451	20.887160
129.043897	-2.972900	3.853600	-11.456000	21.879534	0.000448	20.872936
130.040432	-2.995600	3.853200	-11.541000	21.890705	0.000450	20.851877
131.044961	-3.009100	3.852700	-11.593000	21.891179	0.000448	20.858040
132.040713	-2.988400	3.852500	-11.512000	21.904566	0.000450	20.864802
133.040008	-2.996500	3.851300	-11.540000	21.890104	0.000451	20.852697
134.043228	-3.002700	3.851100	-11.563000	21.910593	0.000451	20.870359
135.045315	-3.001300	3.852900	-11.562000	21.914609	0.000452	20.874379
136.040837	-3.001300	3.850900	-11.557000	21.928947	0.000452	20.841318
137.040720	-3.006600	3.851100	-11.578000	21.937445	0.000451	20.854565
138.044518	-3.002600	3.850800	-11.561000	21.960754	0.000452	20.850871
139.046244	-2.984300	3.850500	-11.490000	21.963497	0.000452	20.850772
140.046682	-2.981600	3.851800	-11.484000	21.968184	0.000451	20.849300
141.045645	-2.999900	3.851300	-11.553000	21.953051	0.000452	20.845532
142.044992	-2.988300	3.850300	-11.505000	21.993111	0.000453	20.836795
143.047297	-2.988300	3.849500	-11.503000	22.003281	0.000453	20.843656
144.046502	-3.003000	3.849200	-11.559000	21.979050	0.000453	20.855909
145.056115	-3.012500	3.849400	-11.596000	21.993779	0.000455	20.851687
146.046402	-3.018000	3.848200	-11.612000	22.003948	0.000454	20.862815
147.045533	-2.988100	3.848600	-11.500000	22.010579	0.000456	20.848117
148.044934	-2.994500	3.849100	-11.524000	22.021621	0.000455	20.845420
149.046448	-2.994600	3.848900	-11.525000	22.035283	0.000456	20.852458
150.046777	-2.982600	3.849000	-11.478000	22.022013	0.000454	20.837278
151.049382	-2.990500	3.849300	-11.510000	22.037548	0.000455	20.852829
152.049564	-3.003300	3.848200	-11.557000	22.059060	0.000454	20.834062
153.049395	-2.997100	3.848100	-11.532000	22.068306	0.000456	20.849956
154.049094	-3.004300	3.849300	-11.563000	22.097271	0.000456	20.858090
155.051105	-3.013600	3.847900	-11.595000	22.085427	0.000454	20.843388
156.050226	-3.013200	3.846300	-11.588000	22.128678	0.000455	20.835006
157.048813	-2.994000	3.847700	-11.519000	22.089862	0.000457	20.840716
158.049043	-3.008700	3.848400	-11.577000	22.092778	0.000455	20.852170
159.048195	-2.999300	3.846600	-11.536000	22.125984	0.000458	20.844637
160.049845	-3.006200	3.847300	-11.565000	22.116982	0.000455	20.842737
161.049829	-2.996300	3.847500	-11.526000	22.122612	0.000457	20.844106
162.050084	-3.019100	3.846800	-11.612000	22.134530	0.000457	20.833279
163.049160	-3.005000	3.846800	-11.560000	22.155887	0.000457	20.820048
164.049837	-3.011200	3.846300	-11.581000	22.176725	0.000458	20.835695
165.050873	-3.007500	3.846000	-11.566000	22.164787	0.000457	20.825165
166.050196	-3.010900	3.845600	-11.578000	22.187020	0.000456	20.833675
167.050198	-3.020200	3.844900	-11.611000	22.207833	0.000457	20.833650
168.050705	-2.987400	3.846500	-11.490000	22.193078	0.000458	20.806075
169.050329	-3.023400	3.844900	-11.623000	22.202002	0.000459	20.828760
170.054830	-3.012900	3.844600	-11.582000	22.214685	0.000457	20.844304
171.065914	-2.993000	3.846400	-11.511000	22.223984	0.000461	20.824217
172.054484	-2.989900	3.846400	-11.500000	22.241930	0.000459	20.822745
173.051574	-2.999300	3.845100	-11.531000	22.235671	0.000460	20.829280
174.052486	-2.996000	3.844300	-11.517000	22.219026	0.000458	20.830158
175.056258	-2.998300	3.845600	-11.529000	22.234307	0.000460	20.831234
176.054007	-2.995400	3.843900	-11.514000	22.243153	0.000459	20.822547
177.050651	-2.999300	3.844300	-11.529000	22.236198	0.000461	20.825540
178.056592	-3.010600	3.843600	-11.570000	22.236523	0.000460	20.825392
179.055233	-2.991000	3.843000	-11.493000	22.273662	0.000460	20.819904
180.053266	-2.997100	3.844300	-11.521000	22.271467	0.000461	20.815336
181.053954	-2.980300	3.842700	-11.451000	22.267337	0.000462	20.833959
182.054444	-3.008700	3.842700	-11.561000	22.301152	0.000464	20.817084
183.056623	-3.008600	3.843000	-11.561000	22.285278	0.000465	20.820155
184.053713	-2.996500	3.843700	-11.517000	22.307583	0.000462	20.817360
185.057648	-2.979400	3.844400	-11.453000	22.309379	0.000465	20.827692
186.057495	-2.988600	3.843900	-11.487000	22.303503	0.000462	20.809007
187.055861	-2.984700	3.842700	-11.468000	22.300484	0.000463	20.823528
188.054202	-2.993900	3.841000	-11.499000	22.305492	0.000461	20.804360
189.057220	-2.996000	3.841300	-11.508000	22.335999	0.000465	20.817838
190.056970	-3.005900	3.842100	-11.549000	22.356986	0.000465	20.812775
191.057232	-3.009800	3.841600	-11.561000	22.366732	0.000465	20.812103
192.056314	-2.979300	3.841900	-11.446000	22.379537	0.000464	20.832986
193.056322	-3.007900	3.840400	-11.551000	22.361148	0.000464	20.839228
194.057694	-3.003200	3.840000	-11.531000	22.364537	0.000466	20.807060
195.055798	-3.020000	3.839700	-11.594000	22.360704	0.000464	20.807015
196.056349	-2.987500	3.840800	-11.474000	22.349562	0.000467	20.818143
197.060045	-3.015000	3.840500	-11.578000	22.363594	0.000468	20.799004
198.059411	-2.996800	3.841000	-11.510000	22.387018	0.000468	20.807287
199.063441	-2.975400	3.839600	-11.424000	22.412640	0.000468	20.802599
200.059569	-2.993000	3.839700	-11.492000	22.394446	0.000467	20.803346
201.058580	-3.009100	3.840000	-11.554000	22.436713	0.000468	20.814379
202.058635	-2.986000	3.840100	-11.466000	22.449645	0.000469	20.808837
203.060221	-3.025700	3.838600	-11.613000	22.471524	0.000467	20.802772
204.059276	-3.033200	3.838000	-11.641000	22.454833	0.000469	20.801704
205.064936	-2.980500	3.839700	-11.444000	22.464549	0.000468	20.798633
206.062249	-2.998100	3.839000	-11.508000	22.468539	0.000469	20.788878
207.064172	-3.020400	3.838100	-11.591000	22.454639	0.000469	20.801985
208.065066	-3.011800	3.838800	-11.561000	22.480676	0.000469	20.795343
209.063072	-3.013300	3.837500	-11.563000	22.469564	0.000470	20.806500
210.066854	-2.997000	3.838100	-11.502000	22.478885	0.000471	20.782169
211.064449	-3.008800	3.837200	-11.544000	22.458929	0.000471	20.795375
212.065193	-3.000700	3.837700	-11.515000	22.478341	0.000470	20.799169
213.066521	-3.015200	3.836200	-11.566000	22.490202	0.000471	20.791607
214.064703	-3.013800	3.836900	-11.563000	22.522722	0.000473	20.788614
215.072174	-3.024200	3.836800	-11.602000	22.538868	0.000470	20.786292
216.064764	-3.001800	3.836500	-11.516000	22.520779	0.000472	20.797099
217.067615	-3.007400	3.835700	-11.534000	22.550185	0.000474	20.775341
218.066416	-2.993700	3.835600	-11.481000	22.570444	0.000476	20.791838
219.064893	-3.004200	3.834500	-11.519000	22.575425	0.000473	20.803939
220.067507	-3.005500	3.836300	-11.529000	22.586816	0.000474	20.802071
221.070518	-3.003500	3.834400	-11.515000	22.589808	0.000475	20.787525
222.073123	-3.020400	3.834600	-11.581000	22.600845	0.000474	20.786725
223.067615	-2.993300	3.836100	-11.482000	22.612832	0.000473	20.782610
224.068656	-3.002300	3.834700	-11.511000	22.606826	0.000476	20.787974
225.073327	-2.985600	3.835700	-11.450000	22.592505	0.000475	20.787855
226.069415	-2.988100	3.834900	-11.458000	22.602072	0.000478	20.801704
227.067313	-3.003700	3.833400	-11.513000	22.616978	0.000477	20.791978
228.067729	-3.022500	3.833400	-11.586000	22.622008	0.000477	20.784214
229.067790	-3.009300	3.832700	-11.533000	22.626343	0.000477	20.779547
230.066914	-3.019300	3.832500	-11.570000	22.629463	0.000477	20.778404
231.078655	-3.014800	3.834300	-11.559000	22.672936	0.000478	20.797767
232.071464	-3.002900	3.833600	-11.511000	22.670697	0.000478	20.789834
233.070009	-3.010400	3.834000	-11.541000	22.659682	0.000477	20.776430
234.071775	-3.000900	3.833200	-11.503000	22.670824	0.000478	20.765779
235.072909	-3.012200	3.831600	-11.540000	22.683062	0.000476	20.811228
236.071285	-2.993000	3.832900	-11.471000	22.702244	0.000479	20.803415
237.073929	-3.006000	3.832700	-11.520000	22.684532	0.000478	20.792786
238.072569	-2.997100	3.831900	-11.484000	22.663629	0.000479	20.787022
239.072117	-3.019600	3.831900	-11.569000	22.635576	0.000477	20.784527
240.076638	-3.017500	3.831100	-11.560000	22.645068	0.000478	20.785026
241.075233	-3.008800	3.831800	-11.527000	22.675715	0.000481	20.785377
242.077803	-3.002600	3.832500	-11.507000	22.689945	0.000482	20.789199
243.073915	-3.005200	3.830100	-11.509000	22.725426	0.000480	20.772583
244.075851	-2.999100	3.830900	-11.489000	22.739528	0.000482	20.784812
245.078557	-3.006600	3.831000	-11.517000	22.765632	0.000481	20.788201
246.075602	-2.978400	3.830800	-11.409000	22.783968	0.000482	20.780491
247.076767	-3.007100	3.829800	-11.516000	22.784944	0.000481	20.779097
248.076342	-2.995800	3.830100	-11.472000	22.778593	0.000482	20.760881
249.074444	-3.009500	3.828900	-11.522000	22.764541	0.000483	20.789479
250.075950	-3.009100	3.829200	-11.521000	22.754654	0.000485	20.770092
251.077591	-2.982300	3.830300	-11.423000	22.808318	0.000483	20.771218
252.076185	-3.011500	3.828600	-11.528000	22.820871	0.000484	20.782845
253.083848	-2.988000	3.829300	-11.441000	22.794513	0.000486	20.773984
254.075749	-3.017400	3.828000	-11.550000	22.828547	0.000484	20.752127
255.081172	-3.005300	3.827300	-11.501000	22.836367	0.000485	20.772290
256.077619	-2.979800	3.829300	-11.409000	22.796382	0.000487	20.773486
257.078260	-2.999300	3.828600	-11.482000	22.826629	0.000488	20.760164
258.081013	-2.998100	3.828800	-11.478000	22.828320	0.000487	20.763755
259.079630	-2.983500	3.829500	-11.424000	22.848574	0.000487	20.777407
260.078966	-3.020000	3.827900	-11.559000	22.851138	0.000487	20.763854
261.079799	-2.993500	3.828200	-11.458000	22.827999	0.000488	20.777184
262.082964	-2.998800	3.826100	-11.473000	22.847104	0.000488	20.745588
263.086387	-2.989300	3.826500	-11.438000	22.867308	0.000488	20.765829
264.084838	-2.993500	3.827100	-11.456000	22.857418	0.000489	20.756869
265.081023	-2.995400	3.827400	-11.464000	22.901508	0.000487	20.787290
266.081890	-2.991600	3.826600	-11.446000	22.897496	0.000489	20.771416
267.083372	-3.010300	3.826000	-11.516000	22.876823	0.000490	20.750231
268.081719	-3.001500	3.826000	-11.483000	22.854060	0.000487	20.763936
269.083822	-2.988800	3.826500	-11.436000	22.897948	0.000490	20.745790
270.083006	-2.998900	3.823900	-11.467000	22.896829	0.000490	20.766954
271.084526	-3.003300	3.825600	-11.489000	22.871243	0.000490	20.763606
272.085087	-2.989500	3.825100	-11.435000	22.909282	0.000490	20.759042
273.083542	-3.004800	3.823000	-11.487000	22.916879	0.000491	20.769024
274.085210	-2.995500	3.824400	-11.455000	22.945024	0.000491	20.746013
275.088588	-2.992200	3.823900	-11.441000	22.932098	0.000490	20.760563
276.085238	-2.973000	3.824700	-11.370000	22.939197	0.000493	20.755348
277.085488	-2.991800	3.823400	-11.438000	22.954737	0.000494	20.758114
278.085417	-2.984900	3.823200	-11.411000	22.960642	0.000491	20.756444
279.085365	-3.011700	3.823100	-11.513000	22.948136	0.000492	20.744862
280.088076	-2.990600	3.822000	-11.429000	22.961362	0.000492	20.754795
281.085232	-2.985400	3.823600	-11.413000	22.944173	0.000492	20.768393
282.085467	-3.002600	3.823500	-11.479000	22.948485	0.000492	20.773663
283.084613	-3.017400	3.822500	-11.533000	22.966918	0.000493	20.752775
284.085016	-3.005500	3.821900	-11.486000	22.945119	0.000495	20.748004
285.084973	-3.005000	3.821500	-11.483000	22.975432	0.000494	20.748029
286.083718	-2.998400	3.822700	-11.461000	22.998000	0.000494	20.752148
287.083029	-2.974900	3.822300	-11.370000	22.970325	0.000495	20.741489
288.085921	-2.987100	3.820900	-11.412000	23.009082	0.000494	20.738595
289.086770	-2.952900	3.822900	-11.288000	22.996629	0.000493	20.756465
290.086525	-2.984100	3.821000	-11.401000	23.032546	0.000496	20.763528
291.087301	-3.011000	3.820100	-11.502000	23.037298	0.000495	20.753591
292.089490	-3.012700	3.818400	-11.503000	23.042479	0.000495	20.754515
293.089726	-2.989300	3.819900	-11.418000	23.072172	0.000496	20.762456
294.089809	-2.967600	3.820100	-11.336000	23.047018	0.000496	20.740096
295.088040	-2.975800	3.820200	-11.367000	23.042730	0.000494	20.735799
296.101636	-3.008200	3.819900	-11.490000	23.046816	0.000496	20.763128
297.088012	-3.014500	3.818900	-11.512000	23.045446	0.000495	20.755117
298.088964	-3.000400	3.818900	-11.457000	23.078200	0.000497	20.748107
299.088950	-3.015000	3.818500	-11.512000	23.090998	0.000497	20.734851
300.089678	-3.009900	3.817900	-11.490000	23.116871	0.000497	20.738966
301.092940	-2.991600	3.818800	-11.424000	23.122430	0.000499	20.759236
302.094320	-3.005900	3.816500	-11.470000	23.124993	0.000497	20.751373
303.090938	-3.003600	3.819300	-11.470000	23.148981	0.000498	20.740323
304.092725	-3.002900	3.817400	-11.461000	23.149352	0.000497	20.738323
305.098257	-2.986800	3.817700	-11.403000	23.127935	0.000498	20.746260
306.093275	-3.023000	3.816000	-11.534000	23.144147	0.000498	20.742590
307.096955	-2.978300	3.819100	-11.374000	23.157667	0.000499	20.749027
308.092069	-3.002400	3.815000	-11.454000	23.178968	0.000500	20.731965
309.093375	-3.011300	3.816000	-11.490000	23.176923	0.000499	20.732286
310.098597	-2.972700	3.816000	-11.343000	23.199063	0.000501	20.731239
311.093718	-3.003900	3.814400	-11.458000	23.204992	0.000500	20.733861
312.092714	-3.011700	3.814800	-11.488000	23.215574	0.000500	20.730715
313.093573	-3.007200	3.814100	-11.468000	23.212908	0.000501	20.743691
314.094006	-3.008300	3.815800	-11.478000	23.221453	0.000501	20.745617
315.095140	-3.009200	3.815000	-11.478000	23.209974	0.000501	20.737906
316.094760	-2.984600	3.815900	-11.388000	23.224691	0.000501	20.729895
317.095171	-2.996500	3.815900	-11.434000	23.238782	0.000501	20.758716
318.103251	-3.007100	3.814900	-11.471000	23.249944	0.000501	20.733865
319.095525	-2.981800	3.814600	-11.374000	23.209279	0.000501	20.733890
320.095841	-3.005500	3.813100	-11.459000	23.187991	0.000503	20.744800
321.096947	-3.014000	3.812400	-11.489000	23.191077	0.000500	20.727503
322.095253	-3.002000	3.812700	-11.444000	23.223625	0.000503	20.732146
323.099361	-3.001400	3.813800	-11.445000	23.209879	0.000504	20.711257
324.095997	-3.017800	3.812300	-11.503000	23.228209	0.000502	20.722988
325.095089	-3.006200	3.813100	-11.462000	23.273703	0.000504	20.739185
326.096174	-2.983500	3.812100	-11.371000	23.262200	0.000503	20.719120
327.096184	-3.012400	3.811700	-11.481000	23.281351	0.000504	20.718399
328.099489	-3.008700	3.811000	-11.466000	23.312059	0.000505	20.740166
329.102834	-3.008500	3.811600	-11.467000	23.333945	0.000504	20.739341
330.106109	-3.015700	3.811800	-11.495000	23.308924	0.000504	20.720428
331.100666	-2.999400	3.811800	-11.431000	23.307776	0.000505	20.733503
332.104690	-2.995800	3.810400	-11.414000	23.317263	0.000505	20.725941
333.100698	-3.006700	3.810200	-11.455000	23.315518	0.000507	20.730831
334.104919	-3.000500	3.810300	-11.432000	23.328321	0.000505	20.719953
335.101253	-3.009400	3.811000	-11.467000	23.367114	0.000505	20.723273
336.100168	-2.986100	3.810800	-11.378000	23.380760	0.000508	20.696170
337.102696	-3.000900	3.809600	-11.431000	23.385466	0.000508	20.737873
338.102203	-3.013300	3.809100	-11.477000	23.386169	0.000507	20.716766
339.105512	-2.991600	3.811300	-11.401000	23.337487	0.000507	20.722502
340.102187	-2.984200	3.809100	-11.366000	23.347097	0.000509	20.735927
341.103187	-2.979800	3.809600	-11.351000	23.335397	0.000509	20.730365
342.103464	-2.994900	3.809200	-11.408000	23.331616	0.000507	20.713773
343.104581	-3.016200	3.809000	-11.488000	23.320237	0.000506	20.733189
344.105509	-2.971500	3.807500	-11.312000	23.335401	0.000508	20.728947
345.105342	-2.973300	3.808400	-11.323000	23.337018	0.000509	20.717764
346.104949	-2.994800	3.806600	-11.399000	23.336898	0.000508	20.747044
347.107621	-2.990000	3.806900	-11.382000	23.387543	0.000510	20.709608
348.106616	-2.981400	3.807900	-11.351000	23.390131	0.000510	20.707934
349.106025	-2.991700	3.806600	-11.387000	23.377860	0.000509	20.716024
350.108124	-2.979500	3.806500	-11.341000	23.373380	0.000508	20.715801
351.105862	-2.997400	3.805400	-11.406000	23.374523	0.000508	20.725483
352.108721	-3.015500	3.805600	-11.475000	23.381747	0.000510	20.717076
353.110585	-2.990600	3.806800	-11.383000	23.407791	0.000511	20.715204
354.106785	-2.996900	3.805100	-11.403000	23.416680	0.000513	20.726011
355.110783	-2.994600	3.804500	-11.392000	23.441431	0.000511	20.725689
356.110062	-2.997200	3.805400	-11.404000	23.449699	0.000512	20.722597
357.108534	-3.015100	3.804300	-11.470000	23.468070	0.000511	20.727734
358.108333	-2.998800	3.806000	-11.412000	23.444323	0.000511	20.720527
359.110003	-2.988400	3.804600	-11.368000	23.420148	0.000509	20.729013
360.113037	-3.015200	3.804300	-11.470000	23.452813	0.000512	20.701060
361.112640	-3.001400	3.803500	-11.415000	23.424632	0.000509	20.720704
362.111069	-2.997900	3.804800	-11.405000	23.444594	0.000514	20.710841
363.110687	-2.990500	3.803700	-11.375000	23.456277	0.000514	20.707377
364.116238	-2.974300	3.803900	-11.313000	23.480151	0.000511	20.722300
365.110943	-2.991800	3.802300	-11.375000	23.463047	0.000513	20.708474
366.115750	-2.997000	3.803400	-11.398000	23.471562	0.000513	20.731235
367.112215	-2.991500	3.802100	-11.373000	23.455586	0.000512	20.723756
368.113203	-2.980900	3.803300	-11.337000	23.482294	0.000513	20.712594
369.113780	-3.000900	3.802900	-11.411000	23.486777	0.000514	20.733684
370.115363	-3.002700	3.802400	-11.417000	23.504678	0.000515	20.728394
371.114351	-2.981700	3.802600	-11.337000	23.503979	0.000514	20.717261
372.114554	-2.988600	3.802400	-11.362000	23.513337	0.000515	20.724745
373.114969	-3.001400	3.800200	-11.405000	23.500816	0.000514	20.711245
374.114937	-2.990200	3.801500	-11.367000	23.522328	0.000515	20.730439
375.115113	-2.983500	3.801600	-11.341000	23.509404	0.000515	20.706578
376.115492	-2.991800	3.799300	-11.366000	23.542688	0.000515	20.723821
377.118677	-2.994100	3.800200	-11.377000	23.537687	0.000518	20.720704
378.116225	-2.970700	3.800300	-11.288000	23.556656	0.000515	20.715538
379.115614	-3.005000	3.799100	-11.416000	23.577739	0.000518	20.718655
380.115565	-3.019900	3.798800	-11.471000	23.555208	0.000518	20.722147
381.114860	-3.005100	3.798700	-11.415000	23.592752	0.000517	20.730386
382.120430	-2.996600	3.798600	-11.382000	23.602335	0.000517	20.725293
383.116667	-3.004800	3.797600	-11.410000	23.617149	0.000516	20.724972
384.116166	-2.997300	3.799200	-11.387000	23.636192	0.000516	20.721302
385.118128	-2.991000	3.798300	-11.360000	23.659288	0.000519	20.728811
386.118531	-2.991500	3.798500	-11.362000	23.678708	0.000517	20.726469
387.121839	-2.966400	3.797800	-11.265000	23.647193	0.000517	20.737548
388.120480	-2.997300	3.797300	-11.381000	23.644104	0.000517	20.737296
389.118538	-3.005900	3.797200	-11.414000	23.614410	0.000518	20.738348
390.120077	-2.984900	3.796100	-11.330000	23.600344	0.000517	20.728514
391.123695	-2.982900	3.795900	-11.322000	23.609158	0.000518	20.732134
392.121910	-2.988900	3.796000	-11.345000	23.635196	0.000520	20.722201
393.125443	-3.016300	3.795200	-11.445000	23.664248	0.000520	20.733309
394.123102	-2.984000	3.795800	-11.326000	23.653691	0.000519	20.726044
395.123110	-2.995800	3.796000	-11.371000	23.657475	0.000521	20.720828
396.125368	-2.991800	3.794400	-11.351000	23.701192	0.000520	20.726724
397.122424	-2.991000	3.794600	-11.349000	23.708656	0.000519	20.749382
398.124684	-2.999400	3.795100	-11.382000	23.658573	0.000520	20.738051
399.123196	-2.998200	3.794300	-11.375000	23.652075	0.000520	20.739123
400.124114	-3.008400	3.792900	-11.410000	23.669171	0.000521	20.727339
401.125163	-2.983300	3.793900	-11.318000	23.671713	0.000521	20.745535
402.125433	-2.996500	3.792900	-11.364000	23.689784	0.000520	20.741366
403.124535	-2.999000	3.793200	-11.375000	23.710243	0.000521	20.739593
404.128282	-2.976700	3.794600	-11.295000	23.687423	0.000522	20.742319
405.123873	-3.006000	3.793300	-11.402000	23.722840	0.000520	20.726143
406.124973	-2.987000	3.792600	-11.328000	23.705864	0.000521	20.742314
407.130272	-2.982000	3.792800	-11.308000	23.708652	0.000521	20.738472
408.128365	-2.980400	3.792700	-11.302000	23.748452	0.000523	20.734278
409.130138	-3.019700	3.791000	-11.447000	23.731028	0.000522	20.736723
410.128369	-2.997400	3.791300	-11.363000	23.723658	0.000522	20.744508
411.128688	-3.005500	3.791100	-11.393000	23.733565	0.000523	20.750173
412.137772	-2.971300	3.791800	-11.265000	23.770000	0.000524	20.757306
413.129135	-2.999000	3.790700	-11.367000	23.787572	0.000523	20.742207
414.133513	-3.010300	3.789800	-11.408000	23.792000	0.000523	20.776520
415.131374	-2.992200	3.791100	-11.342000	23.749291	0.000522	20.736542
416.132928	-3.006000	3.790300	-11.392000	23.741173	0.000523	20.746421
417.134706	-3.005800	3.789700	-11.390000	23.733927	0.000522	20.747217
418.132994	-2.995300	3.790700	-11.353000	23.734424	0.000525	20.750561
419.138005	-3.003900	3.788800	-11.381000	23.767578	0.000524	20.741601
420.137559	-2.993600	3.790000	-11.345000	23.773129	0.000525	20.744796
421.135570	-3.002100	3.788300	-11.372000	23.805435	0.000524	20.743997
422.135568	-3.018100	3.787100	-11.429000	23.808075	0.000524	20.775568
423.134933	-3.013200	3.789400	-11.417000	23.840178	0.000524	20.762238
424.134799	-2.990400	3.788700	-11.329000	23.804386	0.000522	20.751480
425.138804	-2.993600	3.788500	-11.340000	23.831514	0.000523	20.745489
426.136940	-3.026900	3.785300	-11.457000	23.848488	0.000525	20.771519
427.138250	-2.975400	3.788000	-11.270000	23.860285	0.000524	20.735931
428.141480	-3.021100	3.786800	-11.439000	23.852439	0.000525	20.747031
429.136923	-2.992600	3.787400	-11.333000	23.859109	0.000524	20.748029
430.143774	-3.000700	3.787000	-11.362000	23.865133	0.000524	20.750750
431.139075	-3.014800	3.786800	-11.416000	23.916025	0.000527	20.773333
432.139484	-3.013100	3.785300	-11.405000	23.877148	0.000526	20.759005
433.139040	-3.005300	3.785300	-11.375000	23.882353	0.000526	20.756638
434.139746	-2.992100	3.785700	-11.325000	23.873414	0.000523	20.769012
435.141281	-3.002700	3.784700	-11.364000	23.900515	0.000526	20.742607
436.139105	-3.004500	3.786200	-11.375000	23.900544	0.000530	20.748326
437.138811	-2.985300	3.784000	-11.296000	23.924182	0.000527	20.777246
438.141527	-2.999300	3.784900	-11.351000	23.914746	0.000529	20.757826
439.142950	-2.999400	3.784700	-11.351000	23.906909	0.000527	20.760873
440.142184	-3.001500	3.783600	-11.355000	23.900959	0.000528	20.760122
441.144846	-2.998000	3.783100	-11.340000	23.907731	0.000527	20.767387
442.143736	-3.015200	3.784200	-11.409000	23.951775	0.000527	20.760345
443.143266	-2.999400	3.782600	-11.344000	23.975092	0.000527	20.788469
444.146417	-3.003400	3.782200	-11.359000	23.974664	0.000529	20.778083
445.143900	-3.001600	3.783700	-11.357000	23.934104	0.000527	20.763487
446.148228	-3.009700	3.781400	-11.380000	23.932854	0.000528	20.775984
447.142954	-3.017400	3.782600	-11.413000	23.889302	0.000528	20.785892
448.143474	-3.004500	3.781300	-11.360000	23.916058	0.000527	20.779530
449.143578	-3.015400	3.780500	-11.399000	23.894849	0.000527	20.783393
450.143439	-2.984800	3.780700	-11.283000	23.884274	0.000529	20.774685
451.143817	-2.986200	3.781800	-11.292000	23.916547	0.000528	20.767692
452.146922	-3.004500	3.780600	-11.358000	23.936928	0.000532	20.767742
453.143915	-2.991400	3.779400	-11.305000	23.946632	0.000528	20.753290
454.144778	-2.999600	3.781400	-11.342000	23.950735	0.000527	20.772104
455.149319	-2.996200	3.779600	-11.324000	23.933767	0.000528	20.788753
456.143851	-2.993000	3.779200	-11.310000	23.949119	0.000528	20.786131
457.147323	-3.015700	3.778500	-11.394000	23.986822	0.000528	20.785533
458.144208	-3.002800	3.779200	-11.347000	23.990251	0.000529	20.786601
459.144966	-3.003900	3.778300	-11.349000	23.981892	0.000527	20.783435
460.146514	-3.008500	3.779200	-11.369000	24.007844	0.000528	20.797606
461.145744	-3.003300	3.778600	-11.347000	24.032803	0.000529	20.793714
462.148603	-2.993000	3.777400	-11.305000	24.055493	0.000530	20.798451
463.149563	-3.002600	3.776300	-11.338000	24.039192	0.000529	20.765507
464.146581	-3.007900	3.778800	-11.365000	24.008164	0.000530	20.797453
465.145857	-3.003600	3.776500	-11.342000	23.994181	0.000530	20.785801
466.149599	-3.013600	3.777100	-11.382000	24.013616	0.000530	20.780635
467.146820	-3.001900	3.777700	-11.339000	23.996344	0.000529	20.801246
468.151830	-3.011800	3.776200	-11.372000	24.029687	0.000529	20.791062
469.147808	-3.030200	3.776100	-11.441000	24.042605	0.000529	20.795008
470.147299	-3.011700	3.775300	-11.369000	24.016399	0.000529	20.766357
471.148755	-3.002400	3.775800	-11.335000	24.044245	0.000529	20.794283
472.148334	-3.000000	3.775900	-11.326000	24.058059	0.000530	20.788696
473.153505	-2.986300	3.776800	-11.277000	24.020009	0.000531	20.815496
474.152703	-2.994200	3.776100	-11.305000	24.031903	0.000530	20.774793
475.152027	-2.984000	3.775400	-11.265000	24.033169	0.000529	20.786968
476.153758	-2.995900	3.774900	-11.308000	24.013760	0.000529	20.788840
477.152395	-2.992900	3.774300	-11.294000	24.047559	0.000531	20.791916
478.153383	-2.977000	3.775200	-11.237000	24.044249	0.000530	20.790019
479.155432	-3.003700	3.774300	-11.336000	24.050420	0.000532	20.793363
480.153105	-2.989200	3.774400	-11.282000	24.059452	0.000530	20.779188
481.151961	-3.007100	3.773300	-11.346000	24.087248	0.000529	20.802323
482.153447	-2.987400	3.772700	-11.269000	24.068534	0.000530	20.810581
483.153673	-2.990300	3.771800	-11.277000	24.102076	0.000530	20.808660
484.154080	-3.004200	3.772400	-11.332000	24.106603	0.000532	20.799449
485.154179	-2.984300	3.773900	-11.261000	24.132876	0.000531	20.778858
486.155669	-3.011900	3.770800	-11.355000	24.156094	0.000530	20.818740
487.154068	-3.004000	3.772000	-11.330000	24.134898	0.000529	20.809336
488.154322	-3.018100	3.770300	-11.378000	24.113871	0.000530	20.811954
489.156685	-3.003800	3.770400	-11.324000	24.162766	0.000532	20.810259
490.155981	-3.010300	3.771800	-11.353000	24.178567	0.000531	20.826582
491.155444	-3.016000	3.770200	-11.370000	24.180454	0.000531	20.800026
492.155646	-3.012200	3.770500	-11.356000	24.182871	0.000531	20.799131
493.155296	-2.996600	3.770300	-11.297000	24.175978	0.000532	20.802174
494.156929	-3.002900	3.770500	-11.321000	24.146273	0.000531	20.804623
495.159286	-2.995300	3.769500	-11.290000	24.110516	0.000532	20.810960
496.157952	-3.014300	3.768900	-11.359000	24.160229	0.000532	20.803448
497.158425	-3.012700	3.768800	-11.353000	24.199491	0.000533	20.817697
498.156867	-3.006100	3.768800	-11.328000	24.184886	0.000531	20.797358
499.157619	-3.007100	3.767900	-11.329000	24.180882	0.000531	20.808515
500.162585	-2.986600	3.768100	-11.253000	24.200786	0.000534	20.800978
501.157306	-3.026900	3.767900	-11.404000	24.212579	0.000533	20.797635
502.158394	-3.013500	3.767700	-11.353000	24.198097	0.000533	20.793066
503.158430	-3.024300	3.767400	-11.393000	24.222979	0.000532	20.800480
504.157980	-3.008700	3.766200	-11.330000	24.238829	0.000533	20.814007
505.158277	-3.006200	3.767000	-11.323000	24.251518	0.000532	20.833373
506.161774	-3.008400	3.766100	-11.329000	24.288314	0.000533	20.811014
507.158302	-3.014100	3.765400	-11.347000	24.274582	0.000532	20.825213
508.163632	-2.991100	3.767000	-11.267000	24.257363	0.000532	20.815054
509.165054	-3.012400	3.765700	-11.342000	24.233629	0.000531	20.820645
510.159359	-3.001200	3.765900	-11.301000	24.300658	0.000535	20.824818
511.162414	-3.007800	3.765800	-11.326000	24.268461	0.000531	20.802005
512.159707	-3.014200	3.764600	-11.346000	24.254975	0.000535	20.817400
513.160309	-3.015300	3.764200	-11.349000	24.268663	0.000531	20.823070
514.159078	-3.015000	3.764800	-11.351000	24.266098	0.000532	20.841359
515.159798	-3.017500	3.763500	-11.355000	24.308315	0.000533	20.831076
516.161215	-2.968600	3.764800	-11.175000	24.323441	0.000534	20.824438
517.160361	-3.008200	3.762500	-11.317000	24.321801	0.000534	20.828957
518.161038	-3.011000	3.762000	-11.327000	24.339092	0.000532	20.816432
519.161728	-2.975100	3.764700	-11.199000	24.323391	0.000533	20.821544
520.161846	-3.004400	3.761900	-11.302000	24.289091	0.000531	20.818431
521.160512	-2.970000	3.765100	-11.181000	24.306950	0.000532	20.836345
522.163429	-2.982400	3.763400	-11.223000	24.304640	0.000534	20.835925
523.162250	-2.996800	3.761800	-11.272000	24.295659	0.000533	20.816959
524.162786	-2.995900	3.763200	-11.273000	24.277722	0.000533	20.827889
525.164677	-2.983500	3.762700	-11.225000	24.258000	0.000532	20.836556
526.163970	-2.972700	3.762200	-11.183000	24.271433	0.000532	20.825374
527.166617	-2.998700	3.761100	-11.278000	24.289371	0.000532	20.823453
528.167342	-2.981500	3.762100	-11.215000	24.311985	0.000532	20.835706
529.165563	-2.986200	3.762000	-11.233000	24.285647	0.000530	20.835838
530.164767	-2.988800	3.760700	-11.239000	24.283801	0.000532	20.828772
531.164712	-2.974000	3.761600	-11.186000	24.291940	0.000531	20.847366
532.166685	-2.981500	3.761100	-11.213000	24.283953	0.000533	20.836510
533.170968	-2.993800	3.759300	-11.254000	24.323609	0.000531	20.830771
534.164966	-2.977200	3.761200	-11.197000	24.303712	0.000531	20.837838
535.164994	-2.992900	3.759700	-11.250000	24.295873	0.000531	20.835665
536.166545	-2.987100	3.759500	-11.229000	24.322569	0.000531	20.821668
537.166480	-2.985600	3.759500	-11.224000	24.306276	0.000533	20.846100
538.170418	-3.009900	3.758100	-11.310000	24.298241	0.000534	20.844678
539.174113	-2.997200	3.758500	-11.264000	24.337769	0.000533	20.836440
540.167011	-3.017900	3.758200	-11.341000	24.324538	0.000532	20.854462
541.172076	-2.987900	3.759900	-11.233000	24.301278	0.000533	20.842509
542.168048	-3.002700	3.757800	-11.283000	24.315282	0.000532	20.843754
543.171418	-2.987300	3.757300	-11.223000	24.372749	0.000532	20.850194
544.168768	-2.998400	3.758000	-11.267000	24.383846	0.000532	20.856585
545.175793	-3.011100	3.755800	-11.308000	24.408621	0.000535	20.841136
546.170572	-2.994800	3.756500	-11.248000	24.404145	0.000532	20.848500
547.171393	-2.995800	3.755700	-11.250000	24.364217	0.000533	20.829782
548.177859	-3.002700	3.755900	-11.277000	24.371007	0.000532	20.850817
549.173735	-2.989200	3.757100	-11.230000	24.392033	0.000532	20.870487
550.176627	-2.996800	3.755800	-11.254000	24.403471	0.000532	20.858729
551.174808	-2.991400	3.755200	-11.233000	24.417778	0.000533	20.861701
552.175367	-3.000300	3.755000	-11.266000	24.403475	0.000530	20.848302
553.175735	-3.009300	3.754600	-11.298000	24.384599	0.000532	20.868718
554.175305	-2.978100	3.754700	-11.181000	24.426963	0.000532	20.855744
555.175632	-2.994000	3.754700	-11.239000	24.406591	0.000532	20.874659
556.175770	-2.990800	3.753900	-11.226000	24.393505	0.000534	20.859636
557.176226	-2.999000	3.753200	-11.255000	24.423852	0.000531	20.871588
558.175317	-3.016500	3.753900	-11.322000	24.423084	0.000534	20.863231
559.177442	-3.002700	3.752300	-11.266000	24.399875	0.000535	20.864130
560.176334	-3.007000	3.753300	-11.285000	24.412961	0.000533	20.861137
561.175900	-2.990400	3.752900	-11.221000	24.447615	0.000535	20.861763
562.176379	-2.992800	3.751600	-11.227000	24.396542	0.000534	20.865053
563.176405	-2.996400	3.752100	-11.241000	24.416097	0.000534	20.855748
564.179425	-3.009700	3.750800	-11.288000	24.447311	0.000532	20.860984
565.182229	-3.020200	3.751100	-11.328000	24.461469	0.000531	20.873291
566.177552	-3.017400	3.751700	-11.320000	24.453557	0.000534	20.871518
567.178772	-3.010800	3.751300	-11.293000	24.466865	0.000535	20.857368
568.181664	-3.005300	3.751100	-11.272000	24.463980	0.000533	20.864431
569.180199	-2.997900	3.750700	-11.244000	24.469528	0.000533	20.870945
570.183476	-2.996900	3.750300	-11.239000	24.507956	0.000533	20.857818
571.179446	-3.002500	3.751000	-11.261000	24.522232	0.000533	20.864080
572.180615	-3.013100	3.749200	-11.296000	24.552704	0.000531	20.874738
573.179655	-3.022700	3.749300	-11.332000	24.532753	0.000533	20.868945
574.181319	-2.995600	3.749000	-11.230000	24.494945	0.000533	20.869419
575.185576	-2.971900	3.749000	-11.141000	24.504323	0.000532	20.884043
576.182807	-2.976800	3.748800	-11.159000	24.486961	0.000534	20.884641
577.183193	-3.004400	3.748400	-11.261000	24.467382	0.000533	20.871637
578.183216	-3.018500	3.746700	-11.309000	24.451511	0.000531	20.892222
579.183134	-3.015600	3.747400	-11.300000	24.456640	0.000531	20.875558
580.183362	-3.003400	3.748800	-11.258000	24.477755	0.000533	20.883466
581.185797	-2.993100	3.749400	-11.221000	24.477952	0.000533	20.892672
582.185509	-3.008100	3.747600	-11.273000	24.511260	0.000534	20.885313
583.184015	-2.989400	3.747800	-11.202000	24.529264	0.000533	20.897211
584.185229	-2.984600	3.748100	-11.186000	24.554807	0.000533	20.866892
585.184915	-3.008000	3.746100	-11.267000	24.563564	0.000530	20.855764
586.186576	-2.981700	3.746500	-11.170000	24.546700	0.000531	20.880093
587.185083	-2.994100	3.746700	-11.217000	24.537347	0.000532	20.875925
588.185774	-3.009700	3.746100	-11.273000	24.574359	0.000530	20.871811
589.186296	-2.994800	3.746800	-11.220000	24.537914	0.000532	20.876020
590.186661	-3.012300	3.744300	-11.277000	24.546667	0.000534	20.875793
591.185357	-3.012800	3.745200	-11.282000	24.572383	0.000532	20.881680
592.187670	-3.000300	3.744300	-11.233000	24.557088	0.000532	20.855905
593.187500	-3.030500	3.743200	-11.341000	24.604217	0.000530	20.883750
594.188241	-2.982800	3.744300	-11.168000	24.575588	0.000532	20.883948
595.187922	-2.970700	3.744600	-11.123000	24.596204	0.000533	20.855797
596.187757	-2.989600	3.744500	-11.194000	24.562377	0.000533	20.844142
597.189909	-2.995000	3.745200	-11.216000	24.563499	0.000532	20.879405
598.192504	-3.013400	3.742800	-11.277000	24.555185	0.000530	20.879598
599.189283	-3.024800	3.741900	-11.318000	24.538699	0.000532	20.874911
600.192490	-3.001900	3.742800	-11.234000	24.557347	0.000532	20.863276
601.188999	-3.003400	3.743500	-11.242000	24.559858	0.000534	20.869588
602.192487	-3.027100	3.741100	-11.323000	24.568389	0.000532	20.869613
603.190841	-3.015400	3.742500	-11.284000	24.618081	0.000531	20.863524
604.190302	-2.989200	3.742400	-11.186000	24.614050	0.000532	20.832453
605.191073	-3.006500	3.740600	-11.245000	24.592834	0.000530	20.853839
606.191621	-2.989900	3.741400	-11.185000	24.600597	0.000531	20.862101
607.190670	-2.983400	3.741800	-11.162000	24.584998	0.000531	20.862571
608.193666	-2.985700	3.741000	-11.169000	24.622182	0.000530	20.851518
609.189717	-2.994500	3.739800	-11.198000	24.613080	0.000531	20.870359
610.190269	-2.987800	3.740100	-11.173000	24.572933	0.000528	20.858527
611.197619	-2.992700	3.739800	-11.191000	24.563881	0.000530	20.858452
612.192045	-3.020900	3.738800	-11.294000	24.546026	0.000532	20.852392
613.195095	-3.002800	3.740200	-11.230000	24.547739	0.000532	20.846525
614.192025	-3.004400	3.738600	-11.231000	24.562019	0.000530	20.859430
615.194261	-3.012700	3.738300	-11.261000	24.576024	0.000528	20.841714
616.191931	-3.012600	3.738200	-11.260000	24.572864	0.000529	20.861775
617.192909	-2.992300	3.739900	-11.190000	24.587509	0.000528	20.848022
618.195508	-3.015200	3.738600	-11.271000	24.602536	0.000528	20.849349
619.192961	-2.993800	3.739100	-11.194000	24.623755	0.000529	20.847881
620.191044	-2.984000	3.737900	-11.153000	24.620070	0.000531	20.841338
621.192815	-2.991500	3.738800	-11.184000	24.656430	0.000531	20.840365
622.194555	-3.009700	3.737100	-11.247000	24.671625	0.000532	20.840440
623.192090	-3.010500	3.736900	-11.250000	24.657778	0.000532	20.852149
624.193244	-3.000800	3.737100	-11.214000	24.634472	0.000530	20.851048
625.192533	-3.000200	3.737700	-11.213000	24.664964	0.000528	20.851773
626.192889	-3.003600	3.736100	-11.221000	24.678988	0.000530	20.838819
627.196147	-3.007800	3.734900	-11.233000	24.713687	0.000530	20.840922
628.194776	-2.974100	3.736000	-11.111000	24.694910	0.000529	20.841520
629.197908	-2.984700	3.734700	-11.147000	24.683742	0.000528	20.852124
630.195953	-2.991400	3.736100	-11.176000	24.676728	0.000530	20.849827
631.195605	-2.991600	3.735800	-11.175000	24.690061	0.000530	20.827172
632.195086	-2.994600	3.734500	-11.182000	24.672853	0.000530	20.823655
633.196332	-3.008700	3.735100	-11.237000	24.707717	0.000527	20.836828
634.196345	-3.001500	3.734100	-11.207000	24.762698	0.000529	20.832260
635.197765	-3.001500	3.734000	-11.207000	24.738955	0.000528	20.837830
636.196451	-3.007700	3.733000	-11.226000	24.723860	0.000529	20.820785
637.197015	-3.011200	3.733000	-11.239000	24.711649	0.000529	20.840773
638.197227	-2.995900	3.732800	-11.182000	24.728585	0.000528	20.828846
639.197215	-3.004000	3.732800	-11.212000	24.722939	0.000530	20.835509
640.198536	-2.984900	3.733400	-11.143000	24.715749	0.000526	20.835880
641.196223	-2.997400	3.732000	-11.185000	24.680266	0.000526	20.814024
642.196701	-3.016500	3.731100	-11.254000	24.708440	0.000526	20.834709
643.198303	-3.014600	3.731400	-11.248000	24.729407	0.000526	20.835360
644.198246	-3.000600	3.732200	-11.197000	24.720051	0.000527	20.842567
645.201531	-3.013900	3.731500	-11.245000	24.724258	0.000527	20.818340
646.201205	-2.992900	3.730600	-11.164000	24.737690	0.000525	20.821387
647.200200	-3.002700	3.729800	-11.199000	24.741638	0.000526	20.835306
648.200184	-2.991600	3.731700	-11.163000	24.712968	0.000526	20.809855
649.201121	-2.986000	3.730200	-11.138000	24.678425	0.000525	20.831616
650.200881	-2.981500	3.731100	-11.124000	24.679493	0.000524	20.814671
651.201321	-3.001100	3.729400	-11.192000	24.701652	0.000526	20.833113
652.199990	-2.990800	3.728800	-11.152000	24.703818	0.000525	20.815846
653.201734	-2.999900	3.729100	-11.186000	24.748331	0.000527	20.837281
654.203176	-3.006300	3.729100	-11.210000	24.748084	0.000525	20.824706
655.202918	-2.996800	3.728400	-11.172000	24.755394	0.000526	20.825877
656.205655	-3.056900	3.727400	-11.393000	24.694244	0.000525	20.818093
657.203122	-2.991800	3.729000	-11.156000	24.672011	0.000525	20.831818
658.201966	-3.017200	3.728900	-11.250000	24.686639	0.000525	20.822315
659.201953	-2.996300	3.727300	-11.167000	24.707450	0.000525	20.797680
660.202223	-2.980600	3.728500	-11.112000	24.754428	0.000524	20.838184
661.202486	-2.967200	3.728300	-11.062000	24.779794	0.000526	20.827605
662.208763	-2.998600	3.727300	-11.176000	24.737098	0.000522	20.821742
663.205957	-3.003600	3.726800	-11.194000	24.739234	0.000522	20.812981
664.205914	-2.997200	3.727300	-11.170000	24.757440	0.000526	20.800430
665.209422	-3.012400	3.726200	-11.224000	24.766318	0.000523	20.797012
666.208436	-2.991300	3.725900	-11.145000	24.742123	0.000524	20.816827
667.210662	-2.993500	3.725600	-11.153000	24.751104	0.000523	20.820151
668.207610	-2.987300	3.726600	-11.132000	24.756947	0.000523	20.809418
669.209577	-3.011200	3.724600	-11.215000	24.781618	0.000524	20.812840
670.208644	-2.996700	3.726100	-11.165000	24.800616	0.000522	20.814362
671.208431	-3.006400	3.727300	-11.205000	24.817575	0.000524	20.811942
672.210361	-3.000600	3.725000	-11.176000	24.840080	0.000521	20.787587
673.209332	-3.009900	3.723200	-11.206000	24.861492	0.000523	20.814766
674.207052	-2.998200	3.725300	-11.168000	24.843141	0.000522	20.812469
675.208517	-2.991800	3.725100	-11.143000	24.797637	0.000523	20.804735
676.210009	-3.003100	3.723800	-11.182000	24.794802	0.000521	20.817537
677.210824	-3.018900	3.721600	-11.233000	24.757132	0.000522	20.794905
678.211966	-2.999200	3.724300	-11.169000	24.781528	0.000519	20.818440
679.213320	-3.002900	3.722500	-11.177000	24.824645	0.000522	20.809555
680.212646	-2.992400	3.722100	-11.137000	24.803364	0.000522	20.820913
681.216435	-3.018100	3.721600	-11.231000	24.824177	0.000521	20.799602
682.215675	-3.019000	3.723300	-11.240000	24.809408	0.000518	20.806116
683.213984	-2.996100	3.722500	-11.151000	24.833482	0.000521	20.823639
684.216636	-2.999000	3.722700	-11.163000	24.880702	0.000520	20.794691
685.215761	-3.017400	3.721800	-11.228000	24.906886	0.000520	20.814333
686.215353	-3.006900	3.722200	-11.192000	24.883635	0.000522	20.792893
687.215270	-3.011900	3.720500	-11.205000	24.818117	0.000520	20.790675
688.217650	-3.008900	3.721400	-11.197000	24.805686	0.000518	20.805700
689.217301	-3.028000	3.721200	-11.266000	24.806663	0.000520	20.782025
690.216713	-3.011500	3.719900	-11.202000	24.799967	0.000520	20.810866
691.216695	-3.006600	3.720400	-11.185000	24.805295	0.000517	20.791083
692.217953	-3.004400	3.721400	-11.180000	24.839756	0.000518	20.811917
693.216279	-3.028800	3.719800	-11.265000	24.841753	0.000519	20.788791
694.218953	-2.988300	3.719800	-11.115000	24.866369	0.000518	20.794530
695.217806	-3.007900	3.720000	-11.188000	24.841305	0.000519	20.790712
696.217757	-3.014700	3.719000	-11.212000	24.829646	0.000517	20.782330
697.217495	-3.025900	3.718500	-11.250000	24.846255	0.000519	20.790939
698.217917	-3.012000	3.718900	-11.201000	24.875279	0.000519	20.786404
699.219936	-2.996500	3.718900	-11.143000	24.921248	0.000519	20.796031
700.218929	-2.980900	3.718900	-11.085000	24.882785	0.000518	20.799152
701.220085	-3.019100	3.717800	-11.224000	24.876323	0.000518	20.796934
702.221726	-2.993900	3.718400	-11.132000	24.841469	0.000518	20.800835
703.220570	-3.007300	3.716900	-11.177000	24.831696	0.000517	20.787233
704.220763	-2.984900	3.717600	-11.096000	24.812576	0.000516	20.788433
705.224360	-2.969800	3.717900	-11.040000	24.812079	0.000519	20.790779
706.224853	-2.996500	3.716900	-11.136000	24.808303	0.000521	20.785093
707.224098	-2.995100	3.717100	-11.132000	24.841872	0.000516	20.796972
708.224614	-2.999500	3.716500	-11.146000	24.832575	0.000516	20.779106
709.224318	-2.993800	3.715800	-11.124000	24.846547	0.000517	20.798345
710.226688	-3.011100	3.716000	-11.188000	24.807362	0.000517	20.803589
711.226676	-2.996600	3.715000	-11.132000	24.796101	0.000515	20.769054
712.229271	-2.996800	3.715600	-11.134000	24.814355	0.000517	20.791167
713.227772	-3.012700	3.715000	-11.191000	24.821121	0.000515	20.773775
714.226009	-3.007800	3.715300	-11.174000	24.866181	0.000517	20.782488
715.229268	-3.003400	3.714700	-11.156000	24.886072	0.000515	20.782537
716.228187	-2.983600	3.713800	-11.078000	24.907257	0.000516	20.782463
717.226598	-3.000900	3.713200	-11.142000	24.917482	0.000514	20.781346
718.227434	-3.005100	3.712900	-11.157000	24.921561	0.000517	20.796345
719.235737	-2.992900	3.714000	-11.115000	24.934292	0.000515	20.785889
720.226210	-2.992600	3.713400	-11.112000	24.946176	0.000517	20.785489
721.227743	-3.009400	3.712600	-11.171000	24.881011	0.000515	20.781725
722.228246	-3.020200	3.710600	-11.205000	24.837350	0.000514	20.778208
723.230333	-2.966200	3.712900	-11.013000	24.865918	0.000513	20.783646
724.233378	-2.996500	3.712400	-11.123000	24.865150	0.000514	20.770547
725.229821	-3.014700	3.711900	-11.189000	24.860450	0.000513	20.783374
726.235491	-2.995000	3.712500	-11.117000	24.852645	0.000516	20.792610
727.230966	-3.003900	3.712000	-11.149000	24.828899	0.000514	20.766882
728.230753	-2.995200	3.711500	-11.116000	24.803809	0.000513	20.765884
729.231527	-2.994600	3.711800	-11.115000	24.836380	0.000513	20.782451
730.230093	-3.022400	3.710200	-11.213000	24.839092	0.000513	20.760990
731.231937	-3.014300	3.711000	-11.185000	24.900483	0.000514	20.761913
732.236295	-3.002400	3.710800	-11.141000	24.897078	0.000514	20.768927
733.231952	-2.977800	3.710700	-11.049000	24.889100	0.000511	20.749540
734.232390	-2.990400	3.711600	-11.098000	24.909484	0.000512	20.776163
735.238194	-2.997300	3.709900	-11.119000	24.919310	0.000512	20.765637
736.233096	-3.003500	3.709300	-11.140000	24.944225	0.000512	20.761720
737.235510	-3.001100	3.709200	-11.131000	24.962595	0.000511	20.758347
738.234861	-3.020900	3.708400	-11.202000	24.955037	0.000512	20.776365
739.233735	-2.981800	3.710400	-11.062000	24.963367	0.000512	20.763390
740.235269	-3.008700	3.710200	-11.162000	24.916644	0.000513	20.769125
741.234356	-3.023600	3.708100	-11.211000	24.908046	0.000512	20.758124
742.233859	-3.010400	3.709200	-11.165000	24.932263	0.000510	20.776266
743.236713	-2.989800	3.709400	-11.090000	24.941312	0.000510	20.765909
744.233941	-2.997300	3.708000	-11.113000	24.932160	0.000512	20.745342
745.234873	-3.013400	3.707900	-11.173000	24.935442	0.000511	20.774716
746.235299	-3.003500	3.708000	-11.136000	24.957670	0.000510	20.762886
747.235766	-3.002700	3.705700	-11.126000	24.986506	0.000511	20.765278
748.235508	-2.995800	3.706800	-11.104000	24.958314	0.000509	20.764956
749.234523	-2.995900	3.706900	-11.105000	24.997995	0.000509	20.766379
750.238752	-2.995000	3.706900	-11.101000	25.037452	0.000511	20.782278
751.235859	-2.995100	3.705500	-11.097000	24.998517	0.000508	20.760738
752.238822	-2.982000	3.707400	-11.054000	24.957965	0.000509	20.745639
753.239557	-3.006000	3.705000	-11.136000	24.950033	0.000509	20.755695
754.236281	-2.989700	3.706100	-11.079000	24.978504	0.000511	20.766729
755.237173	-3.009000	3.705500	-11.149000	25.001150	0.000508	20.774761
756.239035	-2.989700	3.705900	-11.077000	25.013485	0.000507	20.754426
757.238731	-2.995800	3.704400	-11.097000	24.986038	0.000507	20.776188
758.237812	-2.998900	3.705600	-11.112000	25.021634	0.000508	20.748855
759.238390	-2.996800	3.703400	-11.098000	24.973160	0.000509	20.767529
760.239718	-3.023900	3.702800	-11.197000	24.981486	0.000509	20.741747
761.240106	-2.988300	3.704800	-11.071000	24.977412	0.000506	20.767055
762.241029	-3.011000	3.702600	-11.147000	24.950510	0.000508	20.754277
763.246634	-2.993300	3.703100	-11.083000	24.914685	0.000507	20.768107
764.242246	-2.971800	3.704000	-11.006000	24.903343	0.000506	20.741075
765.241890	-2.979700	3.702800	-11.032000	24.919754	0.000505	20.737632
766.243247	-3.000200	3.702700	-11.108000	24.900311	0.000507	20.735661
767.245321	-3.012000	3.701800	-11.148000	24.890813	0.000507	20.752207
768.243383	-3.001500	3.702800	-11.113000	24.936317	0.000507	20.760895
769.242683	-3.000600	3.702000	-11.107000	24.924404	0.000504	20.762689
770.246545	-2.966200	3.702800	-10.981000	24.946509	0.000504	20.777289
771.243100	-2.989100	3.701900	-11.064000	24.944549	0.000504	20.743079
772.243077	-2.969600	3.702200	-10.993000	24.986313	0.000505	20.739005
773.246323	-2.996000	3.700900	-11.088000	24.977194	0.000505	20.736016
774.250543	-2.987300	3.701100	-11.055000	25.001158	0.000505	20.751061
775.247827	-2.996000	3.700400	-11.086000	24.989874	0.000503	20.745899
776.247248	-3.001800	3.699400	-11.105000	25.018566	0.000504	20.754785
777.244016	-3.000200	3.700000	-11.100000	25.016775	0.000502	20.725959
778.245430	-2.993000	3.699800	-11.072000	25.006186	0.000503	20.730503
779.246079	-3.002400	3.698300	-11.103000	25.035374	0.000505	20.750793
780.245167	-2.990400	3.699700	-11.063000	25.036816	0.000503	20.752715
781.246888	-2.977900	3.699800	-11.017000	25.035670	0.000502	20.742081
782.249019	-3.030500	3.698200	-11.206000	25.034409	0.000505	20.740341
783.246626	-2.988900	3.698700	-11.054000	25.020160	0.000503	20.727934
784.249280	-2.996900	3.698500	-11.083000	25.013744	0.000504	20.733822
785.245803	-2.994200	3.697600	-11.071000	25.010068	0.000502	20.745780
786.248564	-2.994100	3.698500	-11.073000	25.047262	0.000501	20.739492
787.246748	-3.005000	3.698200	-11.112000	25.011465	0.000503	20.718257
788.247716	-2.985300	3.698400	-11.040000	24.997318	0.000501	20.733455
789.252028	-3.003800	3.697600	-11.105000	24.963877	0.000500	20.716958
790.248834	-3.000000	3.696400	-11.088000	24.994804	0.000502	20.734251
791.248592	-3.004600	3.695600	-11.102000	24.988466	0.000501	20.738321
792.251245	-3.018800	3.695700	-11.155000	24.953410	0.000499	20.747231
793.248806	-2.981800	3.696300	-11.021000	25.009994	0.000500	20.725316
794.250717	-3.020000	3.695600	-11.160000	25.008581	0.000501	20.743339
795.253878	-2.979700	3.695500	-11.010000	24.978073	0.000499	20.739743
796.249881	-3.012600	3.694400	-11.129000	24.971908	0.000499	20.719803
797.248993	-2.979800	3.697300	-11.017000	24.952889	0.000501	20.723947
798.252896	-3.010100	3.693900	-11.117000	24.950831	0.000500	20.762660
799.250305	-2.975300	3.695500	-10.994000	24.935837	0.000500	20.715841
800.251583	-3.006000	3.693200	-11.101000	24.961371	0.000498	20.740049
801.254207	-3.010000	3.693600	-11.116000	25.008261	0.000498	20.721679
802.250883	-2.980300	3.695700	-11.014000	25.026663	0.000499	20.729720
803.254626	-2.989200	3.693700	-11.040000	25.053784	0.000499	20.729918
804.255289	-3.014400	3.693600	-11.133000	25.066912	0.000500	20.742147
805.251758	-3.011800	3.692600	-11.120000	25.051053	0.000498	20.725753
806.251853	-3.008100	3.693400	-11.108000	25.040657	0.000500	20.733336
807.251978	-3.014600	3.692500	-11.131000	25.102313	0.000498	20.727897
808.257020	-3.023100	3.691800	-11.160000	25.088389	0.000500	20.707755
809.251873	-3.005800	3.692400	-11.098000	25.078421	0.000496	20.720982
810.253699	-3.002700	3.691600	-11.083000	25.085678	0.000495	20.727320
811.253713	-2.976300	3.693600	-10.992000	25.074169	0.000496	20.718612
812.253034	-3.009300	3.690900	-11.106000	25.111402	0.000495	20.724693
813.253469	-3.001400	3.692300	-11.081000	25.108001	0.000495	20.740246
814.255845	-3.009400	3.691300	-11.107000	25.124228	0.000496	20.734251
815.253134	-2.981700	3.689900	-11.002000	25.162235	0.000493	20.738267
816.254805	-2.985000	3.690800	-11.017000	25.175887	0.000495	20.733006
817.254978	-3.007400	3.689200	-11.094000	25.163008	0.000494	20.703953
818.254693	-2.972200	3.692500	-10.974000	25.120302	0.000493	20.717980
819.255479	-2.973100	3.690200	-10.971000	25.096509	0.000493	20.710690
820.257224	-2.995200	3.689300	-11.048000	25.053004	0.000495	20.731979
821.258701	-3.002500	3.689700	-11.076000	25.019412	0.000494	20.725761
822.255513	-2.956700	3.691700	-10.915000	25.043700	0.000492	20.717423
823.257810	-2.981300	3.689800	-11.000000	25.055267	0.000494	20.731406
824.256136	-3.015800	3.688900	-11.124000	25.049594	0.000494	20.710063
825.255866	-2.993200	3.688200	-11.039000	25.050835	0.000492	20.720318
826.256933	-3.019900	3.687200	-11.133000	25.067421	0.000490	20.747400
827.256475	-2.976900	3.689600	-10.983000	25.087653	0.000491	20.712232
828.257445	-2.982000	3.688700	-10.999000	25.048350	0.000490	20.722565
829.257484	-3.003700	3.687300	-11.074000	25.030675	0.000492	20.723790
830.259008	-2.998900	3.687500	-11.058000	25.049422	0.000488	20.713684
831.258581	-2.989900	3.688200	-11.027000	25.058968	0.000490	20.717102
832.258828	-3.027300	3.686600	-11.159000	25.032195	0.000491	20.716780
833.258856	-3.006800	3.685700	-11.081000	25.042337	0.000489	20.706571
834.258661	-3.018000	3.687000	-11.127000	25.026280	0.000489	20.731233
835.258882	-3.016300	3.686000	-11.117000	25.033013	0.000491	20.717601
836.258309	-3.016200	3.687000	-11.120000	25.054524	0.000489	20.708373
837.259650	-3.007400	3.686000	-11.085000	25.053624	0.000489	20.718376
838.260662	-2.982800	3.686400	-10.994000	25.089103	0.000491	20.722697
839.259433	-2.991500	3.686400	-11.027000	25.061009	0.000488	20.722945
840.260001	-2.992600	3.685700	-11.029000	25.072522	0.000490	20.703681
841.259760	-3.020300	3.683800	-11.126000	25.045282	0.000486	20.723753
842.260123	-3.024300	3.682900	-11.137000	25.054100	0.000489	20.719803
843.259767	-3.018900	3.684800	-11.124000	25.077250	0.000487	20.720756
844.260088	-3.032500	3.682000	-11.165000	25.127666	0.000489	20.717787
845.260023	-2.997600	3.683900	-11.042000	25.125256	0.000486	20.711573
846.259661	-3.005400	3.683600	-11.069000	25.078371	0.000488	20.703388
847.260704	-3.019200	3.682700	-11.118000	25.044658	0.000489	20.701788
848.260262	-3.009300	3.683400	-11.084000	25.065490	0.000487	20.707528
849.260972	-2.989400	3.683300	-11.010000	25.123765	0.000486	20.725250
850.261616	-3.025000	3.680900	-11.134000	25.110613	0.000486	20.701615
851.265144	-2.998900	3.681700	-11.040000	25.130086	0.000485	20.731596
852.260500	-3.015300	3.680700	-11.097000	25.068732	0.000485	20.716472
853.262077	-2.964200	3.681700	-10.911000	25.057120	0.000484	20.717144
854.264622	-2.973100	3.682900	-10.948000	25.044563	0.000484	20.722558
855.263263	-2.987500	3.681100	-10.997000	25.052819	0.000485	20.721836
856.264281	-3.000900	3.681300	-11.046000	25.090784	0.000483	20.715849
857.265101	-3.002900	3.680300	-11.051000	25.118804	0.000484	20.700354
858.269141	-3.004700	3.680400	-11.058000	25.147237	0.000484	20.726054
859.265508	-2.981700	3.680600	-10.974000	25.155796	0.000485	20.720896
860.263140	-3.002100	3.680200	-11.047000	25.166926	0.000483	20.725906
861.265666	-2.992500	3.680500	-11.013000	25.173892	0.000483	20.711087
862.262658	-2.988500	3.678500	-10.992000	25.177695	0.000483	20.744778
863.262650	-2.999700	3.678900	-11.035000	25.177100	0.000482	20.725213
864.266529	-2.995100	3.679500	-11.019000	25.136731	0.000482	20.722620
865.262557	-2.993300	3.679200	-11.012000	25.145056	0.000482	20.716278
866.270664	-2.992900	3.678400	-11.008000	25.128053	0.000481	20.732875
867.267016	-2.999700	3.678200	-11.033000	25.128677	0.000481	20.729234
868.264844	-2.994700	3.678900	-11.016000	25.132357	0.000482	20.725341
869.267203	-3.013800	3.677000	-11.080000	25.134095	0.000482	20.727560
870.266607	-3.005200	3.678700	-11.054000	25.121716	0.000483	20.731254
871.265857	-3.004600	3.677600	-11.049000	25.095664	0.000483	20.747776
872.266172	-3.011900	3.677300	-11.075000	25.065955	0.000480	20.737394
873.266764	-3.004900	3.676100	-11.045000	25.097504	0.000480	20.714060
874.273342	-3.004300	3.676400	-11.044000	25.113887	0.000479	20.725766
875.268122	-2.979800	3.676300	-10.953000	25.111127	0.000480	20.716831
876.267924	-2.994500	3.676900	-11.010000	25.128033	0.000480	20.721000
877.267598	-2.985200	3.675700	-10.971000	25.158355	0.000478	20.725836
878.268023	-3.006700	3.675700	-11.051000	25.128698	0.000478	20.728780
879.268052	-3.010100	3.674900	-11.061000	25.149977	0.000480	20.716002
880.266824	-2.996700	3.676200	-11.016000	25.135290	0.000477	20.729234
881.266381	-2.980300	3.675000	-10.952000	25.134144	0.000478	20.710538
882.267401	-2.992700	3.673400	-10.992000	25.160643	0.000480	20.724813
883.267298	-2.998900	3.675200	-11.020000	25.206234	0.000479	20.721746
884.268155	-2.984100	3.674600	-10.965000	25.174109	0.000475	20.723634
885.267857	-2.989000	3.674700	-10.983000	25.164643	0.000479	20.734520
886.270745	-3.001600	3.673000	-11.024000	25.213708	0.000478	20.728776
887.268146	-2.987800	3.673100	-10.973000	25.205630	0.000477	20.737736
888.267835	-3.013800	3.673000	-11.068000	25.240057	0.000477	20.719667
889.270888	-3.000700	3.671400	-11.016000	25.220324	0.000474	20.745850
890.268067	-3.019900	3.671800	-11.088000	25.215868	0.000479	20.712926
891.267838	-2.998500	3.672600	-11.012000	25.206521	0.000477	20.710654
892.271994	-2.994500	3.673100	-10.998000	25.204558	0.000476	20.734289
893.268211	-2.997000	3.670800	-11.000000	25.173756	0.000474	20.732763
894.266953	-3.003700	3.671300	-11.026000	25.188225	0.000476	20.745392
895.271255	-3.000500	3.672800	-11.019000	25.199860	0.000477	20.758022
896.268029	-3.001000	3.672400	-11.020000	25.194237	0.000474	20.728668
897.267768	-2.977100	3.672500	-10.932000	25.184496	0.000473	20.752554
898.269133	-2.996700	3.671900	-11.003000	25.173579	0.000473	20.728792
899.266956	-2.989100	3.670900	-10.971000	25.193293	0.000474	20.731513
900.273278	-2.997500	3.670600	-11.002000	25.191527	0.000473	20.755820
901.270047	-3.011200	3.669800	-11.050000	25.207506	0.000472	20.742939
902.269681	-3.006600	3.670000	-11.033000	25.214069	0.000470	20.746683
903.269515	-3.014400	3.669600	-11.061000	25.231667	0.000473	20.743961
904.272570	-2.971100	3.669800	-10.902000	25.197933	0.000473	20.743285
905.270054	-3.001100	3.669000	-11.010000	25.207724	0.000474	20.756908
906.271646	-3.013500	3.668000	-11.052000	25.224701	0.000471	20.756409
907.270276	-2.975700	3.668200	-10.914000	25.208295	0.000472	20.751317
908.270869	-3.002000	3.667700	-11.010000	25.170462	0.000472	20.737516
909.272331	-3.019900	3.667600	-11.074000	25.174959	0.000470	20.751041
910.272497	-2.989100	3.667300	-10.960000	25.210837	0.000470	20.737273
911.274152	-2.994800	3.666500	-10.980000	25.201584	0.000470	20.729880
912.271877	-2.962700	3.668200	-10.867000	25.252340	0.000473	20.744328
913.272174	-2.968000	3.667500	-10.884000	25.266980	0.000472	20.733896
914.276717	-3.006000	3.666800	-11.021000	25.252360	0.000471	20.764264
915.273138	-3.008800	3.666500	-11.029000	25.261859	0.000468	20.748196
916.276096	-2.984800	3.667300	-10.945000	25.231806	0.000467	20.733195
917.277522	-3.009800	3.665700	-11.032000	25.220541	0.000470	20.747016
918.274682	-2.997100	3.666500	-10.988000	25.227404	0.000468	20.763864
919.274209	-3.025600	3.664700	-11.087000	25.199288	0.000469	20.758871
920.278461	-2.999800	3.664700	-10.992000	25.216590	0.000468	20.766284
921.275366	-2.994300	3.664600	-10.972000	25.210023	0.000466	20.763958
922.279255	-3.007900	3.665700	-11.025000	25.208065	0.000467	20.743973
923.277288	-3.024900	3.664000	-11.082000	25.218750	0.000468	20.735735
924.279037	-3.014800	3.664100	-11.045000	25.213453	0.000469	20.757918
925.278793	-2.992300	3.664700	-10.966000	25.210775	0.000466	20.756178
926.280179	-3.017800	3.664000	-11.056000	25.174548	0.000464	20.745412
927.281606	-3.023400	3.662900	-11.074000	25.153889	0.000467	20.760235
928.277407	-3.018000	3.662500	-11.052000	25.147174	0.000466	20.734527
929.283333	-2.998800	3.662400	-10.982000	25.175788	0.000467	20.763727
930.282629	-3.004600	3.662300	-11.002000	25.185879	0.000466	20.753943
931.279972	-2.983600	3.663200	-10.929000	25.212799	0.000465	20.758210
932.282951	-2.997800	3.662200	-10.977000	25.257867	0.000465	20.755568
933.281479	-2.989400	3.662700	-10.949000	25.275837	0.000466	20.775981
934.279940	-3.009500	3.660800	-11.016000	25.267435	0.000464	20.765175
935.279803	-3.002900	3.660900	-10.993000	25.220976	0.000464	20.774955
936.280871	-2.999500	3.661300	-10.981000	25.223317	0.000462	20.778727
937.281896	-2.988000	3.660600	-10.937000	25.161294	0.000465	20.744435
938.282906	-2.987700	3.661300	-10.938000	25.210688	0.000462	20.771739
939.284050	-2.983900	3.661000	-10.923000	25.207309	0.000463	20.777829
940.287138	-2.982900	3.661100	-10.920000	25.240241	0.000462	20.778649
941.283817	-3.006300	3.660100	-11.003000	25.245608	0.000463	20.762701
942.284328	-2.995400	3.658900	-10.959000	25.300267	0.000461	20.768741
943.284204	-3.016200	3.658400	-11.034000	25.302107	0.000462	20.776278
944.284173	-3.022400	3.657700	-11.054000	25.296814	0.000462	20.787085
945.289420	-2.986700	3.658800	-10.926000	25.278819	0.000461	20.774707
946.285241	-3.019200	3.659400	-11.048000	25.243994	0.000460	20.776254
947.285267	-3.005600	3.658000	-10.994000	25.270043	0.000459	20.780595
948.287656	-2.993200	3.657900	-10.948000	25.319802	0.000461	20.759905
949.286115	-3.005800	3.656900	-10.991000	25.320549	0.000459	20.793373
950.285586	-3.004000	3.657500	-10.987000	25.298998	0.000460	20.795442
951.286721	-3.013500	3.655700	-11.016000	25.277024	0.000459	20.771009
952.286813	-3.033500	3.655900	-11.089000	25.368835	0.000459	20.777371
953.287921	-2.994100	3.656400	-10.946000	25.297976	0.000458	20.793467
954.288207	-2.998400	3.656800	-10.964000	25.273566	0.000458	20.779391
955.288537	-3.042900	3.654700	-11.120000	25.302920	0.000458	20.787052
956.287860	-3.006000	3.657100	-10.993000	25.280979	0.000456	20.772609
957.288797	-3.007000	3.654400	-10.988000	25.291816	0.000458	20.764523
958.288895	-2.995400	3.655100	-10.948000	25.328947	0.000457	20.781890
959.288800	-3.016600	3.654000	-11.022000	25.352459	0.000456	20.796964
960.288547	-2.973900	3.656800	-10.873000	25.360015	0.000458	20.776101
961.290309	-2.975400	3.653700	-10.871000	25.346222	0.000455	20.785485
962.289672	-3.022600	3.653100	-11.041000	25.341574	0.000455	20.791723
963.290452	-3.003400	3.653000	-10.971000	25.338917	0.000456	20.782418
964.290438	-2.996000	3.653200	-10.944000	25.347462	0.000455	20.793368
965.289949	-2.994300	3.654800	-10.943000	25.317436	0.000454	20.787876
966.290671	-2.984300	3.652600	-10.899000	25.318976	0.000454	20.781836
967.290448	-3.020300	3.651100	-11.027000	25.346419	0.000454	20.752966
968.291242	-3.015300	3.652000	-11.011000	25.345002	0.000453	20.783312
969.289345	-3.012500	3.651200	-10.998000	25.339685	0.000454	20.793620
970.290345	-3.007800	3.652400	-10.985000	25.356360	0.000455	20.802303
971.292882	-3.014900	3.652500	-11.010000	25.362573	0.000454	20.776773
972.291092	-3.012200	3.650400	-10.995000	25.411831	0.000454	20.793991
973.290576	-2.985800	3.651600	-10.903000	25.413420	0.000452	20.784207
974.292056	-3.009700	3.649800	-10.984000	25.401315	0.000451	20.798130
975.292026	-2.994500	3.651200	-10.932000	25.378054	0.000453	20.799903
976.291862	-3.016900	3.650100	-11.011000	25.382805	0.000454	20.785234
977.291668	-3.010300	3.651600	-10.992000	25.371742	0.000453	20.789299
978.295510	-2.996400	3.650200	-10.937000	25.362323	0.000452	20.795488
979.294119	-3.007100	3.648900	-10.972000	25.354615	0.000450	20.790593
980.293860	-3.003600	3.650000	-10.962000	25.362048	0.000449	20.814177
981.300160	-3.020100	3.649200	-11.021000	25.372638	0.000450	20.805845
982.296135	-3.009100	3.647900	-10.976000	25.340301	0.000451	20.810834
983.298406	-2.991100	3.649100	-10.914000	25.340025	0.000448	20.797755
984.297941	-2.998400	3.648700	-10.938000	25.290337	0.000449	20.791488
985.298474	-2.997200	3.647800	-10.932000	25.295187	0.000448	20.787349
986.301390	-2.999100	3.647900	-10.940000	25.325185	0.000448	20.801346
987.299498	-3.011400	3.646700	-10.981000	25.323969	0.000448	20.783056
988.296581	-3.013100	3.648500	-10.992000	25.333139	0.000446	20.800798
989.301522	-2.991700	3.647000	-10.909000	25.332219	0.000448	20.797504
990.301795	-3.008700	3.646600	-10.969000	25.353765	0.000448	20.802542
991.298272	-3.005000	3.645500	-10.953000	25.352250	0.000447	20.825676
992.298098	-3.011200	3.646800	-10.980000	25.329037	0.000446	20.812800
993.299230	-3.021400	3.645900	-11.014000	25.346731	0.000445	20.784574
994.301531	-3.013700	3.645600	-10.986000	25.378793	0.000446	20.801594
995.298609	-2.991000	3.646200	-10.905000	25.350730	0.000445	20.823202
996.300248	-2.992000	3.645300	-10.906000	25.347302	0.000446	20.819286
997.300501	-3.031800	3.644500	-11.049000	25.363957	0.000445	20.817043
998.299353	-3.008900	3.643300	-10.961000	25.430768	0.000444	20.828653
999.300129	-2.975600	3.644600	-10.844000	25.435933	0.000446	20.802072
1000.302151	-3.023400	3.643100	-11.013000	25.441447	0.000442	20.809980
1001.299878	-2.979800	3.644900	-10.860000	25.442942	0.000442	20.826654
1002.300405	-2.989900	3.643500	-10.893000	25.399053	0.000443	20.815299
1003.304098	-2.993100	3.644300	-10.907000	25.428510	0.000443	20.820696
1004.300160	-2.989100	3.642700	-10.887000	25.413818	0.000443	20.800728
1005.301305	-3.012900	3.641600	-10.971000	25.445307	0.000440	20.822390
1006.303998	-3.005600	3.643200	-10.949000	25.473691	0.000443	20.821022
1007.300547	-3.005200	3.642400	-10.946000	25.443870	0.000441	20.814309
1008.301403	-2.998600	3.642000	-10.919000	25.451076	0.000441	20.830080
1009.305509	-2.996200	3.640800	-10.907000	25.437379	0.000441	20.810162
1010.301902	-2.992900	3.640700	-10.895000	25.446231	0.000440	20.813835
1011.302266	-3.000500	3.641400	-10.925000	25.447352	0.000441	20.805478
1012.304497	-3.010300	3.641900	-10.963000	25.459132	0.000438	20.833428
1013.302278	-2.983200	3.641200	-10.862000	25.452025	0.000437	20.832929
1014.303653	-3.024000	3.640100	-11.006000	25.415572	0.000438	20.824300
1015.303901	-3.007200	3.638900	-10.942000	25.404038	0.000438	20.842115
1016.304035	-3.023400	3.639300	-11.002000	25.402494	0.000440	20.826340
1017.304105	-3.011500	3.638900	-10.958000	25.402547	0.000437	20.847256
1018.304549	-3.004600	3.639100	-10.933000	25.446634	0.000437	20.847429
1019.304437	-3.014000	3.637400	-10.962000	25.442684	0.000437	20.826394
1020.303966	-3.005500	3.637900	-10.933000	25.458738	0.000437	20.815489
1021.308755	-3.007400	3.637900	-10.939000	25.483886	0.000438	20.820354
1022.304108	-3.002200	3.637900	-10.921000	25.456952	0.000435	20.826497
1023.305738	-3.001100	3.636800	-10.913000	25.427278	0.000435	20.827994
1024.306419	-3.000900	3.636800	-10.914000	25.433265	0.000434	20.817410
1025.307166	-3.001100	3.635700	-10.909000	25.414204	0.000434	20.838099
1026.306887	-2.987700	3.636800	-10.864000	25.381992	0.000436	20.816660
1027.307552	-3.011200	3.634900	-10.944000	25.386788	0.000435	20.831906
1028.308135	-3.000000	3.635900	-10.907000	25.381076	0.000434	20.846085
1029.308282	-3.003200	3.636100	-10.919000	25.406871	0.000433	20.819356
1030.307806	-3.008800	3.634000	-10.934000	25.390319	0.000434	20.844461
1031.308298	-2.988100	3.636300	-10.864000	25.385991	0.000431	20.831107
1032.307630	-2.995000	3.634500	-10.884000	25.363772	0.000434	20.861426
1033.308333	-3.016700	3.635200	-10.966000	25.406699	0.000435	20.840994
1034.309246	-3.019700	3.633700	-10.970000	25.468034	0.000431	20.855168
1035.312117	-3.009000	3.633400	-10.932000	25.452103	0.000434	20.830637
1036.309181	-2.995700	3.634000	-10.886000	25.457666	0.000434	20.831008
1037.311599	-2.968000	3.633700	-10.784000	25.421957	0.000431	20.838771
1038.312828	-2.990300	3.633000	-10.863000	25.382292	0.000431	20.849202
1039.309711	-3.010600	3.632400	-10.935000	25.389128	0.000431	20.857489
1040.310197	-2.965600	3.633600	-10.775000	25.404859	0.000433	20.845784
1041.309510	-2.983300	3.632100	-10.835000	25.402149	0.000430	20.851598
1042.310600	-2.981900	3.631600	-10.829000	25.369320	0.000428	20.864152
1043.310164	-2.992300	3.631900	-10.867000	25.424720	0.000431	20.830641
1044.311122	-3.010000	3.631400	-10.929000	25.450169	0.000431	20.848609
1045.315035	-3.010300	3.631600	-10.931000	25.440426	0.000430	20.852575
1046.312613	-2.988600	3.631100	-10.851000	25.462466	0.000428	20.852422
1047.311056	-3.005300	3.631000	-10.911000	25.488686	0.000431	20.855519
1048.314772	-3.019600	3.630300	-10.961000	25.488066	0.000430	20.854896
1049.310322	-3.016700	3.629100	-10.946000	25.547754	0.000429	20.850827
1050.311035	-2.982300	3.630700	-10.826000	25.541399	0.000426	20.877634
1051.314928	-3.008500	3.629900	-10.920000	25.564928	0.000429	20.857168
1052.316082	-3.034700	3.628600	-11.010000	25.586326	0.000427	20.869648
1053.312951	-3.000800	3.628100	-10.886000	25.618080	0.000426	20.855073
1054.315897	-2.982300	3.628200	-10.819000	25.605009	0.000425	20.873239
1055.313209	-2.974000	3.629100	-10.791000	25.563860	0.000427	20.860363
1056.311857	-2.994500	3.627600	-10.862000	25.518535	0.000426	20.865104
1057.316361	-2.990100	3.626400	-10.842000	25.490879	0.000423	20.861513
1058.313745	-3.000600	3.627000	-10.882000	25.502535	0.000424	20.859943
1059.315439	-3.007700	3.626900	-10.907000	25.532428	0.000425	20.873841
1060.317777	-3.000900	3.625200	-10.878000	25.506858	0.000426	20.874715
1061.313872	-3.004000	3.627900	-10.897000	25.468913	0.000422	20.865533
1062.316220	-3.002600	3.627100	-10.889000	25.489089	0.000422	20.865405
1063.316660	-2.993600	3.625500	-10.852000	25.497863	0.000423	20.863785
1064.313284	-2.995900	3.626400	-10.863000	25.538045	0.000424	20.854352
1065.317144	-3.009500	3.625300	-10.910000	25.572063	0.000422	20.856747
1066.318531	-2.982400	3.626200	-10.814000	25.526689	0.000422	20.876137
1067.316355	-3.016300	3.623700	-10.929000	25.539613	0.000423	20.865410
1068.317394	-3.004600	3.622900	-10.884000	25.539535	0.000422	20.859642
1069.317244	-3.018000	3.623200	-10.934000	25.552213	0.000419	20.866683
1070.320509	-2.993400	3.625000	-10.850000	25.552833	0.000419	20.838384
1071.318523	-3.005900	3.622900	-10.889000	25.551618	0.000421	20.862767
1072.323270	-2.994700	3.622700	-10.848000	25.538767	0.000418	20.868353
1073.322995	-2.981400	3.622500	-10.799000	25.533401	0.000418	20.858223
1074.319402	-2.985000	3.623200	-10.814000	25.548186	0.000419	20.864535
1075.321788	-2.991900	3.621600	-10.834000	25.549405	0.000418	20.847269
1076.320873	-3.000100	3.622600	-10.868000	25.544606	0.000418	20.832492
1077.319802	-2.974900	3.622800	-10.776000	25.581884	0.000418	20.832946
1078.323924	-2.999500	3.621300	-10.861000	25.581904	0.000419	20.842923
1079.324725	-3.022500	3.619100	-10.937000	25.588194	0.000419	20.844024
1080.321137	-3.009600	3.621700	-10.898000	25.605264	0.000418	20.835090
1081.321220	-2.982700	3.620900	-10.799000	25.566550	0.000419	20.840305
1082.319824	-3.022800	3.619200	-10.939000	25.561504	0.000415	20.850885
1083.322221	-3.003800	3.620500	-10.875000	25.568414	0.000417	20.837910
1084.321479	-3.012100	3.619600	-10.901000	25.588144	0.000419	20.822638
1085.323173	-2.991000	3.619900	-10.827000	25.604570	0.000414	20.847669
1086.322211	-3.017900	3.619500	-10.923000	25.517669	0.000414	20.837683
1087.322139	-3.005600	3.619300	-10.877000	25.509121	0.000414	20.835263
1088.323824	-2.973400	3.620000	-10.762000	25.488247	0.000414	20.836586
1089.322155	-3.027000	3.617900	-10.950000	25.466502	0.000415	20.857898
1090.322961	-2.993700	3.617200	-10.828000	25.503976	0.000413	20.828200
1091.324374	-2.984900	3.617400	-10.797000	25.472341	0.000413	20.831519
1092.323656	-2.990400	3.616600	-10.815000	25.481435	0.000415	20.841600
1093.324065	-3.005000	3.616600	-10.867000	25.455963	0.000414	20.829771
1094.324625	-2.977000	3.616200	-10.764000	25.459420	0.000412	20.826131
1095.323198	-2.997500	3.616600	-10.840000	25.501660	0.000412	20.837254
1096.328469	-2.999300	3.615900	-10.844000	25.541547	0.000411	20.832740
1097.325969	-2.983600	3.615900	-10.787000	25.566590	0.000414	20.821855
1098.328057	-3.008300	3.616300	-10.878000	25.552952	0.000412	20.814796
1099.328230	-3.012600	3.614400	-10.888000	25.522661	0.000411	20.851231
1100.329832	-3.018000	3.614100	-10.907000	25.510730	0.000412	20.813646
1101.328332	-3.006600	3.612900	-10.862000	25.493859	0.000410	20.831791
1102.330704	-3.008000	3.614000	-10.870000	25.488390	0.000411	20.820136
1103.330101	-3.007600	3.612400	-10.863000	25.503101	0.000410	20.820210
1104.329571	-3.003300	3.614000	-10.853000	25.570446	0.000410	20.809131
1105.341433	-2.982200	3.612900	-10.773000	25.579785	0.000408	20.840796
1106.335000	-3.015800	3.612600	-10.893000	25.605157	0.000410	20.813172
1107.330007	-3.023200	3.611000	-10.916000	25.586892	0.000408	20.819010
1108.331697	-2.984300	3.611000	-10.776000	25.596236	0.000408	20.823652
1109.332572	-2.997600	3.612500	-10.828000	25.571258	0.000408	20.822749
1110.332386	-3.001700	3.611600	-10.840000	25.555333	0.000406	20.810075
1111.332386	-3.002400	3.610900	-10.841000	25.590320	0.000408	20.820556
1112.333654	-2.982900	3.610800	-10.770000	25.562509	0.000406	20.832929
1113.331962	-3.004300	3.610200	-10.845000	25.512216	0.000407	20.802811
1114.333534	-3.042900	3.607500	-10.976000	25.503910	0.000404	20.815332
1115.335021	-2.995800	3.610400	-10.816000	25.534772	0.000404	20.825462
1116.333779	-2.982900	3.610400	-10.769000	25.455207	0.000403	20.811469
1117.334916	-3.016400	3.609800	-10.887000	25.454061	0.000401	20.805103
1118.334764	-2.994700	3.609500	-10.808000	25.440663	0.000405	20.806822
1119.333756	-3.008900	3.608300	-10.855000	25.477912	0.000403	20.831424
1120.335250	-2.995500	3.609900	-10.812000	25.470932	0.000403	20.826786
1121.336202	-3.022400	3.607500	-10.902000	25.503064	0.000403	20.803103
1122.336061	-3.030100	3.606100	-10.925000	25.516481	0.000402	20.802353
1123.336611	-2.996800	3.607800	-10.812000	25.501771	0.000402	20.803701
1124.340462	-3.005100	3.606300	-10.837000	25.470480	0.000402	20.810211
1125.338525	-3.001100	3.606900	-10.823000	25.468616	0.000403	20.803124
1126.337000	-2.981900	3.607400	-10.757000	25.489815	0.000402	20.814454
1127.339843	-3.004700	3.606300	-10.835000	25.541132	0.000400	20.805771
1128.340146	-2.990500	3.605400	-10.782000	25.606753	0.000403	20.810508
1129.337482	-2.992400	3.605100	-10.786000	25.560514	0.000400	20.800580
1130.340753	-3.015500	3.604300	-10.868000	25.574103	0.000399	20.806640
1131.338748	-2.998300	3.605900	-10.809000	25.591153	0.000399	20.786306
1132.336844	-3.009900	3.603600	-10.845000	25.573660	0.000400	20.791971
1133.341465	-3.030100	3.604100	-10.920000	25.600415	0.000399	20.811728
1134.338059	-3.009100	3.604300	-10.844000	25.606881	0.000396	20.799256
1135.339141	-2.995800	3.603500	-10.794000	25.595550	0.000396	20.786928
1136.339160	-2.987300	3.605100	-10.768000	25.575622	0.000396	20.792045
1137.337352	-2.980000	3.605700	-10.744000	25.527017	0.000397	20.778793
1138.336163	-2.982200	3.603600	-10.746000	25.504230	0.000397	20.797636
1139.337175	-2.974600	3.604600	-10.721000	25.486834	0.000396	20.783485
1140.337430	-2.998100	3.603200	-10.802000	25.532957	0.000399	20.810838
1141.338747	-3.015800	3.601900	-10.862000	25.586058	0.000396	20.797310
1142.337955	-3.011200	3.601900	-10.845000	25.622189	0.000395	20.796139
1143.338647	-3.007500	3.601500	-10.830000	25.655532	0.000397	20.811135
1144.339007	-2.991200	3.601900	-10.773000	25.686242	0.000397	20.774649
1145.338104	-3.000400	3.601100	-10.803000	25.715859	0.000395	20.800604
1146.339408	-3.000600	3.600400	-10.802000	25.691262	0.000395	20.804348
1147.341124	-3.002700	3.601300	-10.813000	25.687855	0.000394	20.758251
1148.337737	-3.016400	3.599600	-10.857000	25.619923	0.000393	20.801450
1149.341649	-2.971600	3.600800	-10.699000	25.610432	0.000394	20.788124
1150.341876	-2.999500	3.599500	-10.796000	25.577305	0.000395	20.792313
1151.338953	-2.978500	3.599500	-10.720000	25.538545	0.000394	20.775198
1152.340674	-2.993500	3.598000	-10.769000	25.499972	0.000392	20.790041
1153.339174	-2.999100	3.599400	-10.793000	25.511953	0.000394	20.771726
1154.338172	-2.995100	3.599000	-10.779000	25.524849	0.000392	20.794634
1155.337755	-2.988500	3.598100	-10.752000	25.518760	0.000393	20.766234
1156.338417	-3.013600	3.596600	-10.838000	25.580384	0.000394	20.787344
1157.338780	-3.003900	3.596900	-10.804000	25.621586	0.000391	20.798852
1158.340043	-2.978600	3.597500	-10.714000	25.657087	0.000391	20.774765
1159.339338	-3.008200	3.597100	-10.821000	25.645486	0.000389	20.769277
1160.340026	-3.022200	3.596100	-10.868000	25.614775	0.000389	20.765459
1161.340121	-2.990200	3.596900	-10.754000	25.617805	0.000390	20.782726
1162.341730	-2.994900	3.596800	-10.771000	25.642900	0.000390	20.787542
1163.340766	-3.017000	3.594200	-10.843000	25.604429	0.000389	20.781147
1164.340412	-3.000900	3.595800	-10.789000	25.594691	0.000387	20.777531
1165.341924	-3.006600	3.593700	-10.804000	25.576726	0.000388	20.779403
1166.346395	-3.002500	3.594700	-10.792000	25.611737	0.000387	20.781374
1167.341958	-3.013600	3.594000	-10.830000	25.594962	0.000386	20.769743
1168.342710	-3.017000	3.592000	-10.836000	25.595755	0.000388	20.788556
1169.345194	-3.003300	3.593600	-10.792000	25.600776	0.000387	20.796444
1170.344929	-2.995700	3.592000	-10.759000	25.593640	0.000385	20.770786
1171.344214	-2.980000	3.592400	-10.705000	25.628355	0.000384	20.755390
1172.343481	-2.998000	3.593000	-10.770000	25.649049	0.000385	20.759579
1173.343759	-3.001200	3.593300	-10.783000	25.641344	0.000385	20.766064
1174.344257	-3.017400	3.591900	-10.838000	25.651956	0.000383	20.766765
1175.344022	-2.988800	3.591700	-10.734000	25.674620	0.000382	20.775305
1176.348011	-2.990100	3.591400	-10.738000	25.623404	0.000385	20.763219
1177.345458	-2.986800	3.591100	-10.724000	25.590656	0.000385	20.792444
1178.348464	-3.003800	3.589500	-10.781000	25.577309	0.000383	20.775721
1179.347787	-2.988600	3.591000	-10.731000	25.578056	0.000381	20.797334
1180.348361	-3.022400	3.589900	-10.850000	25.604840	0.000381	20.782982
1181.346856	-2.995800	3.589000	-10.751000	25.611149	0.000382	20.778413
1182.349249	-2.987600	3.589300	-10.722000	25.588197	0.000381	20.761525
1183.347566	-2.992500	3.589700	-10.741000	25.628646	0.000380	20.768959
1184.346319	-3.015700	3.588900	-10.822000	25.600418	0.000380	20.763368
1185.349195	-2.983200	3.588500	-10.704000	25.590951	0.000380	20.754808
1186.349651	-3.001900	3.588500	-10.771000	25.625292	0.000378	20.774125
1187.348613	-3.001800	3.586300	-10.764000	25.615477	0.000382	20.785604
1188.349643	-2.993900	3.587900	-10.741000	25.681521	0.000381	20.772278
1189.352414	-2.988200	3.587800	-10.720000	25.637395	0.000378	20.778694
1190.349142	-2.996900	3.588000	-10.752000	25.647461	0.000377	20.775527
1191.348332	-3.000100	3.586200	-10.758000	25.604294	0.000379	20.769631
1192.349065	-3.028900	3.584800	-10.857000	25.540290	0.000376	20.740913
1193.353430	-2.992100	3.585400	-10.726000	25.567497	0.000377	20.772031
1194.348660	-3.017900	3.586400	-10.821000	25.589264	0.000377	20.773977
1195.348650	-2.997300	3.586400	-10.749000	25.618240	0.000376	20.782689
1196.354298	-3.015200	3.584900	-10.809000	25.664977	0.000376	20.754239
1197.349215	-2.996100	3.585700	-10.741000	25.656307	0.000375	20.757385
1198.350038	-2.996100	3.584600	-10.739000	25.658397	0.000375	20.760906
1199.350510	-2.997900	3.585200	-10.747000	25.655540	0.000374	20.767994
1200.349509	-2.986800	3.584600	-10.705000	25.665921	0.000375	20.754239
1201.351943	-2.981500	3.584300	-10.686000	25.693429	0.000372	20.772860
1202.350584	-2.993200	3.583000	-10.723000	25.682252	0.000373	20.761632
1203.350193	-2.996100	3.584600	-10.739000	25.663114	0.000374	20.784610
1204.351143	-2.977300	3.583500	-10.668000	25.682321	0.000372	20.755064
1205.351574	-2.991500	3.582600	-10.716000	25.679164	0.000371	20.744780
1206.353319	-2.984100	3.582400	-10.689000	25.663093	0.000371	20.749027
1207.351949	-2.988800	3.582400	-10.707000	25.702965	0.000371	20.772006
1208.354110	-3.006900	3.581200	-10.768000	25.721922	0.000372	20.766390
1209.355927	-2.983800	3.581100	-10.684000	25.749749	0.000372	20.750244
1210.353729	-3.000500	3.581500	-10.746000	25.740332	0.000372	20.767339
1211.355629	-2.987000	3.581900	-10.698000	25.746990	0.000370	20.758379
1212.354290	-3.014400	3.579800	-10.789000	25.706545	0.000368	20.761376
1213.357278	-3.005600	3.580400	-10.761000	25.715908	0.000369	20.748495
1214.358160	-3.018200	3.578900	-10.801000	25.659731	0.000368	20.751815
1215.358126	-2.992600	3.580600	-10.715000	25.653319	0.000369	20.753435
1216.357272	-2.996300	3.578900	-10.722000	25.624841	0.000369	20.759921
1217.354660	-3.010100	3.578100	-10.770000	25.629640	0.000369	20.747671
1218.355505	-2.995300	3.578200	-10.717000	25.662333	0.000369	20.737358
1219.358349	-3.013000	3.577700	-10.778000	25.670113	0.000367	20.750388
1220.357183	-3.004600	3.577000	-10.747000	25.650609	0.000367	20.759249
1221.359726	-3.018500	3.576600	-10.795000	25.633761	0.000367	20.754181
1222.357194	-3.009200	3.576700	-10.762000	25.656599	0.000367	20.740608
1223.356769	-3.006700	3.576000	-10.752000	25.692173	0.000364	20.756898
1224.356877	-3.007000	3.575600	-10.751000	25.730214	0.000364	20.746269
1225.358010	-3.005900	3.575900	-10.748000	25.749991	0.000365	20.752384
1226.356961	-2.996100	3.576000	-10.712000	25.761669	0.000366	20.761743
1227.357893	-3.012000	3.575100	-10.767000	25.709537	0.000364	20.762485
1228.358128	-3.003600	3.574900	-10.736000	25.705986	0.000364	20.746590
1229.357622	-2.986000	3.575900	-10.677000	25.687625	0.000362	20.752804
1230.358613	-2.982200	3.574000	-10.658000	25.708597	0.000364	20.753006
1231.363319	-3.000800	3.575500	-10.729000	25.699028	0.000363	20.738653
1232.358081	-2.990700	3.573800	-10.687000	25.677883	0.000364	20.747287
1233.359709	-2.988600	3.575000	-10.682000	25.670055	0.000361	20.748908
1234.359959	-3.010900	3.573100	-10.758000	25.657859	0.000360	20.735235
1235.360832	-2.996500	3.573500	-10.708000	25.672145	0.000361	20.746265
1236.360395	-2.993200	3.574200	-10.697000	25.686426	0.000362	20.744487
1237.363721	-3.015500	3.571700	-10.770000	25.672539	0.000359	20.749031
1238.362829	-3.014000	3.573000	-10.768000	25.655617	0.000363	20.745312
1239.363510	-2.997100	3.571800	-10.704000	25.624832	0.000360	20.744739
1240.362423	-2.991500	3.571400	-10.683000	25.640161	0.000360	20.732159
1241.363177	-2.998500	3.571300	-10.708000	25.597298	0.000359	20.725145
1242.362384	-2.998600	3.570300	-10.705000	25.602167	0.000359	20.715810
1243.363150	-2.992100	3.571600	-10.685000	25.611905	0.000362	20.730332
1244.362220	-2.999800	3.569700	-10.707000	25.643585	0.000359	20.725640
1245.363735	-3.002000	3.569300	-10.714000	25.655461	0.000359	20.730456
1246.364289	-2.998600	3.569100	-10.701000	25.714418	0.000359	20.741782
1247.364128	-2.991300	3.570400	-10.679000	25.731588	0.000359	20.726786
1248.365047	-2.993500	3.569400	-10.685000	25.698293	0.000358	20.716102
1249.366717	-3.011600	3.569100	-10.747000	25.703486	0.000356	20.752614
1250.365735	-3.006200	3.568500	-10.727000	25.692058	0.000356	20.747299
1251.365324	-3.024900	3.566700	-10.788000	25.721347	0.000357	20.734991
1252.365429	-2.999600	3.567500	-10.701000	25.692920	0.000356	20.719714
1253.364278	-2.995300	3.569300	-10.690000	25.633888	0.000356	20.749093
1254.368085	-3.012200	3.567000	-10.744000	25.664821	0.000354	20.735589
1255.365806	-3.013600	3.566100	-10.747000	25.661319	0.000354	20.736340
1256.372937	-2.996200	3.566600	-10.685000	25.667776	0.000354	20.754680
1257.370697	-3.000900	3.566700	-10.702000	25.679205	0.000356	20.736286
1258.368912	-2.984100	3.566500	-10.641000	25.716774	0.000354	20.729924
1259.368593	-2.998500	3.565600	-10.690000	25.709594	0.000354	20.729351
1260.376320	-2.991200	3.567200	-10.669000	25.704352	0.000354	20.741630
1261.368688	-3.000800	3.566200	-10.700000	25.654533	0.000352	20.736162
1262.368084	-3.010300	3.565000	-10.731000	25.641167	0.000354	20.729850
1263.372998	-2.987200	3.564600	-10.647000	25.643055	0.000351	20.734591
1264.368510	-3.010200	3.564600	-10.729000	25.619643	0.000351	20.723405
1265.369905	-3.014900	3.564700	-10.746000	25.605734	0.000351	20.744050
1266.372163	-3.001200	3.563500	-10.694000	25.579488	0.000350	20.737605
1267.370666	-3.007200	3.564300	-10.718000	25.585433	0.000351	20.744524
1268.371108	-2.984300	3.563500	-10.633000	25.670634	0.000352	20.738583
1269.374461	-3.006900	3.563000	-10.713000	25.642082	0.000349	20.733614
1270.371649	-3.015600	3.561100	-10.738000	25.644545	0.000350	20.746994
1271.372037	-3.002700	3.562000	-10.695000	25.675954	0.000348	20.730650
1272.372153	-3.007500	3.562500	-10.713000	25.714188	0.000351	20.729697
1273.373879	-3.027300	3.562200	-10.783000	25.706787	0.000351	20.745497
1274.372758	-3.011500	3.559700	-10.719000	25.669246	0.000348	20.742879
1275.374849	-2.990300	3.560600	-10.646000	25.656992	0.000349	20.738632
1276.374578	-3.014100	3.560300	-10.730000	25.669689	0.000351	20.745221
1277.372468	-2.988200	3.561400	-10.642000	25.676648	0.000348	20.723285
1278.377781	-3.001100	3.559400	-10.682000	25.699406	0.000349	20.732868
1279.377545	-3.007700	3.558800	-10.703000	25.732253	0.000347	20.734567
1280.375659	-3.002300	3.560900	-10.690000	25.721371	0.000348	20.726481
1281.380078	-2.994800	3.559500	-10.659000	25.717718	0.000347	20.741778
1282.377710	-3.008700	3.558700	-10.706000	25.772004	0.000348	20.719966
1283.376594	-2.999800	3.557300	-10.670000	25.729171	0.000346	20.744273
1284.378518	-2.994900	3.557900	-10.655000	25.752178	0.000346	20.747468
1285.380429	-3.024300	3.556500	-10.755000	25.750163	0.000346	20.766781
1286.379232	-2.998400	3.557900	-10.667000	25.751058	0.000345	20.732592
1287.380396	-3.027300	3.557200	-10.768000	25.760971	0.000346	20.727376
1288.380730	-2.985900	3.556900	-10.620000	25.760129	0.000344	20.731272
1289.379030	-3.002900	3.556200	-10.678000	25.700276	0.000342	20.730423
1290.378888	-3.001500	3.555800	-10.672000	25.676221	0.000343	20.740875
1291.376954	-3.000200	3.555000	-10.665000	25.644168	0.000343	20.744718
1292.378591	-2.994000	3.555800	-10.645000	25.664640	0.000343	20.750581
1293.378524	-2.993700	3.555300	-10.642000	25.664591	0.000342	20.746264
1294.378308	-2.984400	3.554700	-10.608000	25.721240	0.000341	20.740100
1295.379932	-3.000900	3.555300	-10.668000	25.693564	0.000342	20.729371
1296.380023	-2.972300	3.556600	-10.570000	25.670005	0.000340	20.731313
1297.380582	-3.021900	3.553500	-10.736000	25.679743	0.000341	20.742516
1298.384777	-3.001300	3.554300	-10.666000	25.672760	0.000340	20.740244
1299.381658	-2.994300	3.554100	-10.641000	25.700613	0.000342	20.751150
1300.380972	-3.003200	3.553000	-10.669000	25.770551	0.000340	20.745060
1301.384158	-3.006300	3.551900	-10.677000	25.767764	0.000339	20.768814
1302.380937	-2.980500	3.552400	-10.587000	25.762153	0.000337	20.746108
1303.381300	-2.990600	3.551600	-10.620000	25.790545	0.000339	20.741910
1304.384152	-3.037400	3.550300	-10.783000	25.815710	0.000338	20.739213
1305.381875	-2.969700	3.552300	-10.548000	25.853295	0.000340	20.760374
1306.386501	-3.005800	3.551400	-10.674000	25.769492	0.000337	20.732142
1307.389934	-2.994500	3.550100	-10.630000	25.714438	0.000337	20.747967
1308.382079	-2.995000	3.551700	-10.636000	25.717742	0.000338	20.747967
1309.383075	-3.003300	3.548800	-10.658000	25.748377	0.000335	20.754082
1310.383358	-2.997300	3.549400	-10.637000	25.779355	0.000335	20.739205
1311.384278	-3.036200	3.548600	-10.774000	25.757966	0.000336	20.732892
1312.384064	-2.992800	3.548700	-10.620000	25.743853	0.000336	20.741477
1313.387096	-2.977000	3.549300	-10.566000	25.761890	0.000334	20.746792
1314.384800	-3.011900	3.548100	-10.685000	25.742384	0.000332	20.744743
1315.386684	-3.006200	3.547400	-10.664000	25.711704	0.000334	20.745695
1316.386238	-3.017100	3.546300	-10.699000	25.714955	0.000331	20.763660
1317.387341	-3.018600	3.547700	-10.709000	25.722681	0.000335	20.761462
1318.386196	-3.010300	3.546900	-10.677000	25.718609	0.000333	20.762588
1319.387601	-3.006600	3.547700	-10.666000	25.704196	0.000331	20.760914
1320.385414	-3.016200	3.546000	-10.695000	25.686307	0.000332	20.750058
1321.385509	-2.995300	3.546300	-10.622000	25.719631	0.000331	20.738009
1322.385443	-3.009200	3.544900	-10.667000	25.734384	0.000332	20.729594
1323.386837	-3.017800	3.546000	-10.700000	25.800995	0.000332	20.761891
1324.386937	-3.015200	3.544600	-10.686000	25.775259	0.000334	20.755480
1325.386712	-2.999800	3.544800	-10.633000	25.801561	0.000331	20.748709
1326.387145	-3.020800	3.544400	-10.706000	25.775554	0.000332	20.742500
1327.386850	-3.001700	3.544100	-10.637000	25.772726	0.000331	20.774273
1328.386666	-2.999800	3.544600	-10.632000	25.766963	0.000330	20.754733
1329.391352	-3.014100	3.542800	-10.678000	25.751780	0.000331	20.764138
1330.388370	-3.006900	3.544400	-10.657000	25.736128	0.000331	20.757426
1331.396908	-2.992200	3.543200	-10.601000	25.747909	0.000328	20.753138
1332.397765	-3.014900	3.543600	-10.683000	25.728501	0.000329	20.764938
1333.387868	-2.989000	3.541700	-10.585000	25.757945	0.000329	20.783608
1334.389461	-3.010100	3.540800	-10.657000	25.754415	0.000330	20.778165
1335.389869	-3.008800	3.542000	-10.656000	25.785771	0.000326	20.765091
1336.393064	-2.994100	3.541400	-10.602000	25.792133	0.000327	20.764369
1337.389521	-2.992000	3.540300	-10.592000	25.776581	0.000328	20.766765
1338.392706	-3.013700	3.540300	-10.668000	25.756307	0.000326	20.759203
1339.391236	-2.982700	3.539500	-10.556000	25.731613	0.000326	20.753839
1340.390663	-2.972900	3.541000	-10.526000	25.723411	0.000326	20.766464
1341.392715	-2.985600	3.539700	-10.567000	25.794075	0.000327	20.757785
1342.391692	-3.008000	3.538000	-10.642000	25.831734	0.000326	20.756733
1343.390904	-3.010800	3.539500	-10.656000	25.832776	0.000327	20.770583
1344.390922	-3.026000	3.537400	-10.704000	25.841474	0.000324	20.758457
1345.388902	-2.997300	3.539700	-10.609000	25.841642	0.000325	20.777118
1346.390691	-3.005100	3.539600	-10.636000	25.833671	0.000324	20.784284
1347.391825	-2.974500	3.537600	-10.521000	25.824054	0.000323	20.777943
1348.390796	-2.985900	3.538000	-10.563000	25.778789	0.000324	20.762345
1349.391905	-2.995500	3.537600	-10.596000	25.761697	0.000324	20.766987
1350.391370	-2.997100	3.536200	-10.597000	25.750068	0.000323	20.756729
1351.392786	-2.971300	3.538000	-10.511000	25.724031	0.000322	20.778466
1352.394409	-2.987000	3.535900	-10.561000	25.736530	0.000322	20.772055
1353.393237	-3.002500	3.536200	-10.616000	25.681471	0.000322	20.761322
1354.392352	-3.021100	3.533800	-10.675000	25.719282	0.000321	20.748565
1355.395838	-3.045800	3.532900	-10.759000	25.733148	0.000321	20.776244
1356.392866	-2.974200	3.535800	-10.514000	25.753791	0.000323	20.773271
1357.402297	-3.018200	3.532900	-10.662000	25.804127	0.000321	20.769305
1358.399007	-3.002400	3.534900	-10.612000	25.828003	0.000320	20.778116
1359.393309	-3.015900	3.533700	-10.656000	25.810858	0.000321	20.792188
1360.395588	-2.986100	3.534000	-10.552000	25.765346	0.000321	20.795309
1361.399345	-3.012700	3.534200	-10.646000	25.795507	0.000317	20.771552
1362.393938	-3.019700	3.532200	-10.666000	25.785340	0.000320	20.762287
1363.397248	-2.974900	3.532700	-10.508000	25.825019	0.000318	20.790766
1364.399825	-2.983500	3.532700	-10.538000	25.835896	0.000319	20.776561
1365.406264	-3.000200	3.533000	-10.598000	25.859677	0.000318	20.784329
1366.398064	-3.006800	3.531700	-10.618000	25.903268	0.000319	20.787343
1367.398229	-3.003900	3.530800	-10.605000	25.887122	0.000317	20.788667
1368.395019	-2.985700	3.530900	-10.541000	25.836643	0.000317	20.785847
1369.394261	-3.006400	3.530000	-10.612000	25.835104	0.000317	20.779085
1370.396802	-3.002200	3.530100	-10.597000	25.824769	0.000317	20.777238
1371.399065	-3.000500	3.530000	-10.591000	25.844294	0.000316	20.789739
1372.406952	-2.986400	3.529900	-10.541000	25.853463	0.000314	20.779984
1373.398053	-3.008800	3.528900	-10.617000	25.872019	0.000316	20.785822
1374.403410	-3.006100	3.529100	-10.608000	25.868690	0.000315	20.789116
1375.396487	-3.016100	3.528100	-10.641000	25.857510	0.000316	20.777885
1376.400006	-2.980200	3.527800	-10.513000	25.843399	0.000316	20.783624
1377.400945	-3.014700	3.528600	-10.637000	25.788570	0.000316	20.808680
1378.396909	-2.977400	3.528500	-10.505000	25.769217	0.000315	20.797301
1379.398680	-2.995000	3.527000	-10.563000	25.785615	0.000314	20.801918
1380.399999	-2.993200	3.526400	-10.555000	25.785566	0.000315	20.799972
1381.396803	-2.982300	3.527000	-10.518000	25.762957	0.000314	20.790065
1382.402835	-2.975300	3.526200	-10.490000	25.756398	0.000313	20.814296
1383.402497	-3.004600	3.525700	-10.592000	25.726905	0.000313	20.798896
1384.396898	-3.016700	3.524800	-10.632000	25.746136	0.000314	20.783125
1385.405180	-3.020800	3.524500	-10.646000	25.775353	0.000312	20.768851
1386.401658	-3.008200	3.525400	-10.604000	25.793713	0.000315	20.778759
1387.398345	-2.991200	3.524900	-10.543000	25.782783	0.000312	20.787220
1388.400481	-3.018300	3.524600	-10.637000	25.751300	0.000310	20.816287
1389.397954	-3.032800	3.522700	-10.682000	25.807078	0.000312	20.812572
1390.403288	-3.019000	3.522900	-10.635000	25.819675	0.000308	20.807208
1391.402312	-3.009400	3.523100	-10.602000	25.811425	0.000311	20.796076
1392.414514	-3.015900	3.523100	-10.625000	25.784720	0.000310	20.808132
1393.406030	-2.998100	3.521900	-10.558000	25.772148	0.000309	20.807831
1394.401032	-3.018300	3.522200	-10.630000	25.769861	0.000310	20.812172
1395.414140	-3.007200	3.520700	-10.587000	25.757469	0.000308	20.804941
1396.400694	-3.036300	3.520900	-10.689000	25.781322	0.000307	20.802347
1397.402628	-2.991300	3.521000	-10.532000	25.809541	0.000307	20.806986
1398.414744	-3.010400	3.521100	-10.599000	25.815923	0.000307	20.802966
1399.413654	-3.004800	3.521100	-10.579000	25.804373	0.000308	20.831192
1400.406578	-2.997000	3.520600	-10.551000	25.785270	0.000308	20.808684
1401.412205	-3.012300	3.518400	-10.597000	25.765793	0.000307	20.814725
1402.410132	-3.020200	3.518900	-10.627000	25.744679	0.000306	20.802999
1403.404550	-2.995100	3.518700	-10.538000	25.728157	0.000303	20.837137
1404.408021	-3.003500	3.518300	-10.567000	25.737101	0.000306	20.818621
1405.405617	-3.009700	3.517900	-10.587000	25.805576	0.000307	20.814382
1406.404835	-3.018800	3.517300	-10.616000	25.813177	0.000307	20.804949
1407.409817	-2.994200	3.518300	-10.533000	25.808211	0.000306	20.797589
1408.407217	-3.008000	3.517400	-10.579000	25.772755	0.000305	20.816028
1409.410217	-3.012700	3.516300	-10.593000	25.732734	0.000304	20.809493
1410.411453	-2.987600	3.517700	-10.509000	25.739244	0.000302	20.804178
1411.409683	-2.989400	3.517400	-10.514000	25.733756	0.000304	20.824744
1412.421052	-3.014100	3.515900	-10.597000	25.739543	0.000304	20.811117
1413.409539	-3.009200	3.515900	-10.579000	25.763470	0.000302	20.810969
1414.409521	-2.993600	3.515800	-10.524000	25.782849	0.000302	20.813838
1415.411207	-2.988800	3.516400	-10.509000	25.836315	0.000302	20.820130
1416.409981	-2.980900	3.516200	-10.481000	25.821682	0.000301	20.817759
1417.407402	-2.989600	3.514200	-10.505000	25.837780	0.000302	20.850524
1418.413338	-2.991400	3.514800	-10.513000	25.802682	0.000302	20.809105
1419.413245	-2.984000	3.514000	-10.485000	25.817812	0.000302	20.825725
1420.411255	-2.987100	3.514000	-10.495000	25.846079	0.000300	20.815714
1421.410812	-2.989700	3.512900	-10.502000	25.828943	0.000297	20.832639
1422.412376	-3.002700	3.512400	-10.546000	25.813165	0.000300	20.840497
1423.413326	-3.000100	3.511600	-10.534000	25.737717	0.000298	20.813550
1424.413606	-3.001600	3.512900	-10.544000	25.724499	0.000297	20.816869
1425.412294	-2.996100	3.512100	-10.522000	25.694882	0.000299	20.818889
1426.411439	-3.011000	3.511800	-10.573000	25.688651	0.000299	20.810260
1427.414721	-3.007100	3.511400	-10.559000	25.728329	0.000298	20.823086
1428.418398	-2.978700	3.511500	-10.459000	25.705001	0.000299	20.824311
1429.417313	-3.005500	3.510900	-10.551000	25.746066	0.000295	20.805341
1430.413434	-2.994900	3.509700	-10.511000	25.777525	0.000296	20.839310
1431.413921	-2.993900	3.510400	-10.509000	25.762592	0.000296	20.819569
1432.417490	-3.024500	3.509900	-10.614000	25.763959	0.000295	20.821416
1433.413690	-3.006100	3.508300	-10.545000	25.745578	0.000294	20.814333
1434.415718	-3.014700	3.508900	-10.578000	25.772160	0.000295	20.830128
1435.417294	-3.010900	3.508500	-10.562000	25.733526	0.000295	20.840159
1436.414977	-2.989500	3.507800	-10.486000	25.759370	0.000295	20.828661
1437.425420	-3.012000	3.506000	-10.559000	25.801533	0.000297	20.835451
1438.418871	-2.980100	3.507300	-10.451000	25.813358	0.000293	20.836898
1439.422903	-2.995800	3.506600	-10.504000	25.858598	0.000294	20.829238
1440.416705	-2.990200	3.507500	-10.487000	25.862846	0.000294	20.842988
1441.413029	-3.004800	3.507000	-10.537000	25.864036	0.000293	20.850821
1442.416062	-3.001700	3.506500	-10.524000	25.900084	0.000292	20.828714
1443.415482	-3.008400	3.506000	-10.546000	25.910340	0.000294	20.830483
1444.423269	-2.993700	3.505100	-10.492000	25.903638	0.000293	20.832759
1445.418841	-2.982900	3.505700	-10.456000	25.902272	0.000293	20.832334
1446.418014	-2.972200	3.506000	-10.420000	25.840066	0.000292	20.844287
1447.417873	-2.986100	3.504800	-10.465000	25.766405	0.000293	20.849951
1448.424104	-3.002300	3.503300	-10.516000	25.765260	0.000290	20.849749
1449.417923	-2.993400	3.503300	-10.486000	25.809164	0.000291	20.856866
1450.418347	-2.986000	3.503700	-10.461000	25.850106	0.000290	20.852475
1451.421303	-3.003900	3.503200	-10.522000	25.867964	0.000291	20.841017
1452.419493	-2.980900	3.503600	-10.443000	25.828693	0.000289	20.853724
1453.418981	-2.989800	3.503100	-10.472000	25.824219	0.000290	20.850178
1454.426174	-2.973600	3.501800	-10.412000	25.849564	0.000290	20.840077
1455.420174	-2.993600	3.502400	-10.483000	25.832342	0.000289	20.844113
1456.420942	-2.992100	3.500900	-10.474000	25.787302	0.000287	20.861458
1457.423381	-3.002400	3.501200	-10.511000	25.785718	0.000290	20.851807
1458.419863	-3.011600	3.500400	-10.540000	25.835252	0.000287	20.832338
1459.427576	-2.996400	3.500600	-10.489000	25.848797	0.000290	20.851634
1460.425537	-3.010300	3.500200	-10.535000	25.849392	0.000289	20.865981
1461.424264	-2.991300	3.499700	-10.468000	25.811257	0.000288	20.852331
1462.427005	-2.991400	3.500200	-10.470000	25.858778	0.000285	20.864979
1463.422716	-2.995800	3.499700	-10.483000	25.808203	0.000288	20.865858
1464.431149	-3.009100	3.497500	-10.524000	25.787282	0.000287	20.851955
1465.436800	-2.991300	3.497500	-10.462000	25.767432	0.000284	20.870422
1466.424544	-2.992000	3.497400	-10.463000	25.795783	0.000285	20.851485
1467.423726	-3.001500	3.498000	-10.498000	25.807809	0.000285	20.862143
1468.424974	-3.027700	3.497200	-10.588000	25.817270	0.000286	20.885870
1469.425658	-2.968900	3.497000	-10.381000	25.801496	0.000285	20.852483
1470.432116	-3.000900	3.496000	-10.490000	25.795881	0.000283	20.869601
1471.434824	-2.991000	3.497700	-10.461000	25.827757	0.000284	20.858474
1472.425734	-3.004600	3.496100	-10.504000	25.871949	0.000284	20.853555
1473.433463	-3.012100	3.495000	-10.527000	25.884570	0.000283	20.889465
1474.425511	-3.024100	3.494500	-10.566000	25.934924	0.000283	20.885998
1475.426128	-3.008900	3.493900	-10.512000	25.907825	0.000281	20.877266
1476.437023	-3.003100	3.493500	-10.490000	25.892299	0.000282	20.863565
1477.426697	-3.002800	3.495400	-10.495000	25.909762	0.000281	20.846023
1478.428061	-2.994800	3.494400	-10.464000	25.913612	0.000282	20.859372
1479.436573	-3.007400	3.494100	-10.507000	25.854986	0.000283	20.878713
1480.429653	-3.016800	3.492600	-10.535000	25.833721	0.000281	20.885326
1481.428303	-3.010300	3.493100	-10.514000	25.810498	0.000280	20.871007
1482.442988	-3.003800	3.493400	-10.492000	25.804776	0.000281	20.871898
1483.427093	-2.982100	3.492700	-10.414000	25.823386	0.000281	20.905762
1484.429377	-3.013200	3.491400	-10.519000	25.847783	0.000280	20.904665
1485.431621	-3.001600	3.490600	-10.477000	25.876078	0.000279	20.889469
1486.429049	-3.007900	3.491200	-10.499000	25.862095	0.000278	20.885853
1487.429704	-2.988200	3.491400	-10.432000	25.912298	0.000279	20.897879
1488.430717	-3.022300	3.489800	-10.546000	25.938955	0.000279	20.880090
1489.430037	-2.971600	3.490700	-10.371000	25.949913	0.000277	20.887779
1490.433661	-3.026600	3.488000	-10.556000	25.905399	0.000279	20.881941
1491.434411	-3.032900	3.488700	-10.580000	25.885773	0.000277	20.884984
1492.433332	-2.991900	3.489500	-10.438000	25.914490	0.000279	20.875427
1493.437381	-2.995600	3.488900	-10.450000	25.909003	0.000275	20.873708
1494.433425	-3.005400	3.488700	-10.484000	25.939480	0.000278	20.875402
1495.433482	-3.010700	3.487600	-10.499000	25.969936	0.000278	20.891774
1496.435606	-3.025800	3.486400	-10.548000	25.963279	0.000276	20.873234
1497.434182	-2.986300	3.487800	-10.415000	25.934937	0.000276	20.884588
1498.439013	-3.008500	3.487300	-10.491000	25.911958	0.000277	20.880469
1499.443858	-2.984600	3.486900	-10.405000	25.886598	0.000278	20.890553
1500.435536	-2.993400	3.486400	-10.435000	25.853205	0.000277	20.886406
1501.441389	-3.017200	3.486800	-10.519000	25.870628	0.000275	20.866452
1502.436780	-2.978300	3.486400	-10.383000	25.885133	0.000277	20.870591
1503.438180	-2.989100	3.485600	-10.418000	25.872434	0.000273	20.870162
1504.441383	-2.994900	3.484300	-10.434000	25.913747	0.000274	20.880844
1505.437632	-3.002900	3.485700	-10.466000	25.921344	0.000273	20.887053
1506.439505	-3.021900	3.484600	-10.529000	25.934391	0.000273	20.857963
1507.440472	-2.992200	3.485600	-10.428000	25.967474	0.000275	20.876973
1508.441043	-2.999800	3.483900	-10.451000	25.918935	0.000274	20.870409
1509.439862	-3.017000	3.483200	-10.509000	25.846396	0.000271	20.887626
1510.440656	-3.014400	3.483800	-10.501000	25.877798	0.000272	20.874602
1511.443372	-3.006600	3.482500	-10.470000	25.924098	0.000271	20.867536
1512.441743	-3.004900	3.482900	-10.465000	25.938528	0.000272	20.861170
1513.445902	-2.977700	3.482900	-10.370000	25.980036	0.000270	20.875843
1514.444088	-3.002600	3.481200	-10.452000	25.997822	0.000272	20.863842
1515.442409	-2.986300	3.481500	-10.396000	25.996652	0.000269	20.856503
1516.445213	-2.993200	3.482600	-10.423000	25.956040	0.000270	20.865961
1517.442439	-3.007400	3.481000	-10.468000	25.957033	0.000269	20.869803
1518.441976	-3.008800	3.480800	-10.472000	26.008648	0.000270	20.860020
1519.442564	-2.985900	3.481400	-10.394000	25.979662	0.000269	20.849865
1520.443122	-3.004600	3.479900	-10.455000	25.986245	0.000270	20.870228
1521.449471	-2.980600	3.481700	-10.377000	26.022678	0.000268	20.862262
1522.443374	-2.987600	3.479300	-10.394000	25.990016	0.000268	20.842250
1523.442653	-2.998300	3.479100	-10.431000	25.989298	0.000267	20.887993
1524.448713	-2.980000	3.480400	-10.371000	25.956684	0.000267	20.849065
1525.444525	-3.014400	3.478400	-10.484000	25.997395	0.000267	20.844448
1526.444858	-2.996500	3.478800	-10.423000	25.995876	0.000266	20.853353
1527.451715	-2.996400	3.478200	-10.420000	26.022182	0.000266	20.857971
1528.443982	-2.990200	3.476400	-10.395000	26.039692	0.000266	20.840951
1529.445769	-2.991900	3.477400	-10.403000	26.062373	0.000266	20.850937
1530.449723	-3.014700	3.476000	-10.478000	26.045208	0.000265	20.846967
1531.446354	-2.977700	3.477400	-10.354000	25.989245	0.000265	20.834837
1532.446526	-2.986100	3.476400	-10.379000	25.932638	0.000263	20.847668
1533.451013	-3.019300	3.475500	-10.492000	25.931543	0.000263	20.852256
1534.447112	-2.971600	3.476900	-10.331000	25.969152	0.000264	20.842625
1535.445570	-3.005300	3.476100	-10.446000	25.970839	0.000263	20.846690
1536.447103	-3.004300	3.474500	-10.437000	25.960160	0.000262	20.846394
1537.449105	-2.982500	3.474100	-10.360000	25.948037	0.000263	20.840378
1538.446686	-3.016700	3.473000	-10.476000	25.928066	0.000263	20.828376
1539.447160	-2.976700	3.475100	-10.343000	25.945332	0.000264	20.858049
1540.452824	-2.991100	3.473200	-10.388000	25.974167	0.000262	20.862836
1541.452186	-2.988300	3.474100	-10.381000	25.939320	0.000262	20.832095
1542.448543	-3.007400	3.474300	-10.448000	25.959212	0.000264	20.844967
1543.451680	-2.974400	3.473000	-10.329000	25.966045	0.000262	20.848039
1544.455027	-2.990300	3.472500	-10.383000	26.010630	0.000262	20.843520
1545.451101	-3.005000	3.471700	-10.431000	26.012911	0.000260	20.839174
1546.451596	-2.993500	3.472600	-10.395000	25.995203	0.000260	20.836082
1547.454239	-3.006400	3.470900	-10.434000	26.017134	0.000263	20.837253
1548.450650	-3.022700	3.470600	-10.490000	26.021546	0.000261	20.818926
1549.455721	-2.994200	3.471700	-10.394000	25.981562	0.000258	20.827593
1550.455070	-3.014200	3.471600	-10.462000	26.024927	0.000260	20.825643
1551.451592	-3.008500	3.469600	-10.438000	25.966353	0.000261	20.836020
1552.460626	-2.995900	3.469800	-10.394000	25.937337	0.000259	20.844802
1553.455418	-2.984300	3.469200	-10.351000	25.977105	0.000259	20.832124
1554.451970	-2.996000	3.468500	-10.391000	25.975989	0.000259	20.819623
1555.455203	-2.975900	3.469900	-10.324000	25.983462	0.000260	20.822390
1556.455604	-2.976300	3.469200	-10.324000	26.017914	0.000257	20.826183
1557.449990	-3.000000	3.467800	-10.403000	26.019576	0.000257	20.836387
1558.451959	-2.996700	3.468000	-10.392000	25.998162	0.000259	20.832417
1559.459431	-2.989500	3.467200	-10.364000	26.013736	0.000255	20.841425
1560.463500	-3.006100	3.467800	-10.424000	26.048059	0.000255	20.852676
1561.462989	-2.973300	3.466700	-10.307000	26.028661	0.000251	20.835558
1562.455891	-2.997100	3.465600	-10.385000	26.044358	0.000254	20.819087
1563.461127	-2.985600	3.466700	-10.349000	26.051137	0.000254	20.810251
1564.455984	-3.001000	3.465400	-10.399000	26.061687	0.000256	20.822748
1565.455910	-2.977400	3.465800	-10.318000	26.088012	0.000256	20.816481
1566.463420	-2.997600	3.466200	-10.390000	26.065487	0.000253	20.827988
1567.459328	-3.002000	3.464300	-10.399000	26.001252	0.000254	20.825564
1568.458454	-3.000000	3.464800	-10.393000	25.989552	0.000252	20.830404
1569.458182	-2.999500	3.464300	-10.389000	25.999241	0.000251	20.826863
1570.458565	-2.987500	3.463900	-10.347000	25.955715	0.000252	20.827704
1571.465165	-2.990600	3.463800	-10.358000	25.945730	0.000253	20.826681
1572.464208	-2.976100	3.463800	-10.307000	25.952514	0.000251	20.826859
1573.459982	-2.981800	3.464300	-10.329000	25.953384	0.000252	20.844327
1574.463207	-2.998800	3.461900	-10.380000	25.956860	0.000251	20.835018
1575.463092	-2.994700	3.462600	-10.368000	25.997472	0.000251	20.835043
1576.461284	-3.018900	3.460900	-10.446000	26.018783	0.000252	20.838436
1577.460441	-2.973300	3.462400	-10.294000	26.024816	0.000251	20.814626
1578.461056	-2.998900	3.462100	-10.382000	26.037213	0.000248	20.836090
1579.460036	-3.025200	3.459800	-10.465000	26.005093	0.000251	20.832742
1580.462128	-2.994000	3.461600	-10.363000	25.982194	0.000250	20.823960
1581.464091	-3.021200	3.459200	-10.450000	25.990414	0.000249	20.832693
1582.467574	-3.026000	3.459700	-10.469000	25.992429	0.000250	20.829501
1583.466022	-3.015700	3.458000	-10.427000	25.968876	0.000249	20.830969
1584.462542	-3.008800	3.458600	-10.405000	25.958419	0.000250	20.831843
1585.465779	-2.979100	3.459500	-10.305000	25.975237	0.000248	20.812704
1586.463623	-3.009900	3.458400	-10.409000	25.943415	0.000247	20.808235
1587.472508	-2.989200	3.458200	-10.336000	25.937107	0.000248	20.812803
1588.465892	-3.008500	3.458900	-10.406000	25.924413	0.000248	20.820439
1589.463346	-2.996700	3.458400	-10.363000	25.919496	0.000248	20.824983
1590.470509	-2.996700	3.457300	-10.359000	25.954172	0.000247	20.840378
1591.464418	-2.998800	3.457700	-10.368000	25.949826	0.000247	20.824158
1592.464252	-2.992000	3.457200	-10.344000	25.966073	0.000247	20.811558
1593.470922	-3.003300	3.457200	-10.382000	26.013592	0.000248	20.827057
1594.465662	-2.986600	3.457000	-10.324000	25.994415	0.000248	20.816799
1595.468322	-3.008300	3.455200	-10.394000	26.002212	0.000245	20.808037
1596.466125	-2.969200	3.455000	-10.258000	26.024250	0.000247	20.826859
1597.466333	-2.998700	3.454700	-10.359000	26.047173	0.000247	20.811484
1598.466841	-2.987000	3.456700	-10.323000	26.020027	0.000246	20.825935
1599.474398	-3.004300	3.454400	-10.378000	25.990541	0.000244	20.809113
1600.466888	-3.007900	3.454500	-10.391000	25.947273	0.000245	20.814481
1601.470414	-2.993800	3.454500	-10.341000	25.950503	0.000245	20.803028
1602.471788	-3.002900	3.452700	-10.367000	25.927028	0.000245	20.806945
1603.470900	-3.013000	3.451600	-10.399000	25.894141	0.000242	20.812313
1604.473653	-3.000500	3.453300	-10.361000	25.917740	0.000242	20.834597
1605.468596	-3.026600	3.452600	-10.448000	25.929814	0.000243	20.823020
1606.474763	-3.008300	3.452700	-10.386000	25.951053	0.000242	20.813537
1607.473744	-2.988200	3.451800	-10.313000	25.935925	0.000242	20.812564
1608.469726	-3.015600	3.452100	-10.409000	25.920719	0.000240	20.797288
1609.471231	-3.001200	3.451300	-10.357000	25.929593	0.000238	20.830384
1610.472580	-2.997400	3.451100	-10.343000	25.926190	0.000240	20.808474
1611.469558	-3.010100	3.451300	-10.387000	25.946362	0.000241	20.794600
1612.472445	-3.009300	3.451200	-10.384000	25.980766	0.000242	20.809249
1613.472800	-2.988000	3.452400	-10.315000	26.046890	0.000239	20.789863
1614.469315	-3.024600	3.448800	-10.430000	26.028505	0.000240	20.805530
1615.477569	-3.024800	3.449400	-10.433000	26.042048	0.000240	20.817714
1616.473710	-2.995300	3.449600	-10.331000	25.988395	0.000241	20.797474
1617.472842	-3.006400	3.448400	-10.366000	26.017282	0.000238	20.804211
1618.478635	-2.989700	3.448500	-10.309000	26.034049	0.000239	20.816790
1619.478552	-2.981700	3.449100	-10.283000	26.034924	0.000236	20.799177
1620.473899	-3.007400	3.447700	-10.368000	26.060826	0.000239	20.826624
1621.470314	-3.014500	3.448000	-10.393000	26.063161	0.000237	20.816168
1622.472310	-3.001900	3.447900	-10.350000	26.058692	0.000235	20.805040
1623.477171	-2.996800	3.447000	-10.329000	26.076452	0.000237	20.798703
1624.471927	-2.986400	3.448100	-10.297000	26.098734	0.000236	20.791693
1625.477410	-2.983300	3.447500	-10.285000	26.100519	0.000235	20.802970
1626.474873	-3.023500	3.445800	-10.417000	26.141898	0.000235	20.805667
1627.472744	-3.002000	3.447000	-10.346000	26.129383	0.000233	20.806842
1628.474704	-2.993700	3.446500	-10.317000	26.142251	0.000235	20.807918
1629.475051	-3.002200	3.445000	-10.342000	26.125086	0.000233	20.812008
1630.473116	-3.007900	3.444600	-10.360000	26.098640	0.000233	20.801556
1631.478048	-2.997300	3.443900	-10.321000	26.031427	0.000232	20.803725
1632.478862	-3.029300	3.444100	-10.433000	26.044420	0.000232	20.796864
1633.475269	-3.000200	3.443200	-10.329000	26.060736	0.000234	20.801877
1634.477813	-2.983400	3.443500	-10.272000	26.035482	0.000231	20.825816
1635.477502	-3.001200	3.442700	-10.332000	26.060469	0.000231	20.790230
1636.475855	-3.003300	3.442400	-10.337000	26.026220	0.000232	20.799915
1637.479453	-2.988300	3.442000	-10.285000	25.996090	0.000229	20.807576
1638.481435	-2.994200	3.442900	-10.308000	26.006472	0.000230	20.799515
1639.476645	-3.003900	3.440800	-10.335000	26.023167	0.000230	20.803960
1640.480022	-2.990100	3.442500	-10.293000	26.077388	0.000229	20.802014
1641.476946	-3.015000	3.441100	-10.374000	26.114369	0.000230	20.810247
1642.477713	-2.995600	3.440200	-10.303000	26.126268	0.000231	20.783798
1643.478791	-3.024300	3.440400	-10.404000	26.114742	0.000231	20.778854
1644.483079	-3.025000	3.438700	-10.401000	26.104065	0.000229	20.795627
1645.484552	-2.981000	3.438400	-10.249000	26.065763	0.000229	20.791755
1646.480096	-3.005600	3.438900	-10.335000	26.064926	0.000229	20.771000
1647.480330	-2.987300	3.439500	-10.275000	26.068648	0.000227	20.796551
1648.479641	-3.002500	3.438300	-10.322000	26.022695	0.000225	20.782149
1649.480486	-3.021500	3.437400	-10.385000	26.027615	0.000227	20.806058
1650.478841	-3.003900	3.439200	-10.330000	26.060974	0.000227	20.783625
1651.482533	-2.982500	3.438800	-10.256000	26.051412	0.000227	20.783501
1652.485695	-2.983900	3.436800	-10.254000	26.009411	0.000226	20.798674
1653.483267	-2.953300	3.438200	-10.153000	25.992142	0.000225	20.788911
1654.484249	-3.009900	3.436900	-10.344000	25.981090	0.000225	20.788239
1655.487497	-2.998400	3.435900	-10.302000	25.997957	0.000225	20.806607
1656.485638	-3.006100	3.436800	-10.331000	25.932979	0.000226	20.781629
1657.482801	-2.986800	3.436300	-10.262000	25.946489	0.000226	20.784771
1658.483525	-2.993200	3.434700	-10.280000	25.973765	0.000222	20.793681
1659.488450	-3.006000	3.435600	-10.326000	26.023072	0.000225	20.792011
1660.483490	-2.998000	3.434900	-10.297000	26.084397	0.000225	20.775391
1661.485845	-3.001300	3.433900	-10.305000	26.069468	0.000225	20.781254
1662.486161	-3.013400	3.434500	-10.349000	26.040804	0.000224	20.766204
1663.485511	-2.988300	3.434700	-10.263000	26.075033	0.000222	20.759344
1664.484290	-3.000800	3.432300	-10.299000	26.088546	0.000224	20.789517
1665.486909	-2.998300	3.432700	-10.291000	26.075431	0.000224	20.786297
1666.491189	-3.028000	3.433200	-10.395000	26.037727	0.000223	20.765957
1667.490558	-3.008000	3.431600	-10.321000	26.006604	0.000223	20.786845
1668.488152	-3.012000	3.432400	-10.338000	26.015345	0.000221	20.788041
1669.487564	-3.029400	3.431600	-10.394000	25.997190	0.000222	20.789715
1670.493102	-2.971400	3.433200	-10.201000	26.012415	0.000220	20.776088
1671.489686	-2.996500	3.431100	-10.281000	26.024086	0.000221	20.799668
1672.489477	-2.992900	3.431000	-10.268000	26.039114	0.000219	20.767351
1673.492849	-2.992100	3.432300	-10.269000	26.055229	0.000220	20.785439
1674.489889	-2.993700	3.429500	-10.266000	26.016633	0.000223	20.774162
1675.492161	-3.021800	3.430700	-10.366000	26.049619	0.000219	20.758465
1676.492566	-2.993900	3.430700	-10.271000	26.078004	0.000222	20.760906
1677.490580	-2.996400	3.428400	-10.272000	26.044247	0.000220	20.764448
1678.495458	-2.996100	3.429000	-10.273000	26.086892	0.000221	20.767940
1679.498602	-2.985600	3.429600	-10.239000	26.114906	0.000218	20.764320
1680.492129	-3.016100	3.428500	-10.340000	26.112768	0.000218	20.788725
1681.491768	-2.987500	3.428000	-10.239000	26.076034	0.000217	20.781213
1682.492332	-2.990000	3.429200	-10.252000	26.062053	0.000216	20.772855
1683.492427	-2.990200	3.428200	-10.250000	26.052364	0.000219	20.789199
1684.492499	-3.001300	3.427700	-10.286000	26.038059	0.000217	20.756808
1685.493101	-3.023600	3.427100	-10.362000	26.045979	0.000216	20.762394
1686.499634	-3.019500	3.426200	-10.344000	26.078020	0.000215	20.765664
1687.494501	-3.000300	3.427000	-10.281000	26.124114	0.000215	20.764089
1688.493583	-3.012500	3.425000	-10.317000	26.146095	0.000215	20.761520
1689.494770	-3.012000	3.424700	-10.314000	26.140556	0.000214	20.767808
1690.497739	-2.998600	3.424200	-10.267000	26.100101	0.000215	20.768884
1691.495965	-2.974300	3.426000	-10.189000	26.094159	0.000216	20.778561
1692.496544	-3.001100	3.424100	-10.275000	26.133026	0.000214	20.746965
1693.501406	-3.000100	3.425200	-10.275000	26.137647	0.000213	20.761091
1694.498054	-3.010000	3.424100	-10.306000	26.104171	0.000214	20.753534
1695.498712	-2.998900	3.423600	-10.266000	26.093810	0.000211	20.746442
1696.504036	-3.024500	3.422200	-10.350000	26.106207	0.000212	20.759372
1697.498318	-3.037000	3.421900	-10.391000	26.126276	0.000212	20.752511
1698.505402	-2.993500	3.422900	-10.246000	26.161466	0.000213	20.763215
1699.502176	-2.996900	3.422900	-10.257000	26.155857	0.000212	20.759001
1700.499193	-3.008000	3.422000	-10.292000	26.085767	0.000212	20.765388
1701.500181	-3.001600	3.420700	-10.267000	26.081102	0.000209	20.744104
1702.502880	-3.008000	3.421600	-10.291000	26.074840	0.000211	20.764839
1703.502022	-3.006500	3.420900	-10.283000	26.031772	0.000212	20.745275
1704.502184	-2.999900	3.420400	-10.260000	26.076555	0.000211	20.755183
1705.502001	-2.986500	3.420700	-10.215000	26.084228	0.000210	20.754832
1706.505645	-2.979200	3.420900	-10.191000	26.146920	0.000210	20.759030
1707.503336	-3.009200	3.420000	-10.290000	26.140187	0.000210	20.760799
1708.502759	-3.007900	3.419500	-10.285000	26.154716	0.000210	20.749794
1709.504269	-2.988700	3.418900	-10.217000	26.176746	0.000210	20.774776
1710.502584	-2.992800	3.420000	-10.235000	26.194899	0.000209	20.748920
1711.514799	-2.996100	3.418700	-10.242000	26.206572	0.000206	20.757805
1712.503442	-3.006000	3.418500	-10.275000	26.198550	0.000209	20.745003
1713.503865	-2.995100	3.418100	-10.236000	26.213875	0.000208	20.750445
1714.503201	-3.014500	3.417000	-10.299000	26.203815	0.000210	20.752189
1715.504333	-2.992300	3.417000	-10.224000	26.174957	0.000207	20.746899
1716.505089	-3.028600	3.415500	-10.344000	26.194082	0.000207	20.727235
1717.505134	-2.972900	3.416600	-10.155000	26.190279	0.000207	20.748545
1718.504596	-3.004700	3.415600	-10.262000	26.137360	0.000206	20.749897
1719.507470	-2.984200	3.416200	-10.194000	26.112079	0.000205	20.754367
1720.504769	-3.009700	3.415300	-10.279000	26.153600	0.000206	20.746302
1721.505484	-2.995500	3.415500	-10.230000	26.144762	0.000205	20.728411
1722.510131	-2.995900	3.414600	-10.229000	26.161524	0.000206	20.730555
1723.505124	-3.007000	3.413900	-10.265000	26.161996	0.000205	20.741935
1724.505251	-3.011600	3.413500	-10.280000	26.145603	0.000205	20.741110
1725.504639	-3.004900	3.414100	-10.258000	26.173698	0.000204	20.734728
1726.508805	-2.995000	3.413000	-10.219000	26.174391	0.000204	20.743485
1727.506707	-3.008900	3.412500	-10.266000	26.134356	0.000204	20.744508
1728.507341	-2.991900	3.413700	-10.213000	26.125365	0.000203	20.722197
1729.505048	-2.989100	3.413600	-10.202000	26.144988	0.000204	20.758510
1730.506982	-2.987200	3.411600	-10.190000	26.154372	0.000202	20.746603
1731.506266	-2.976700	3.412600	-10.157000	26.203794	0.000202	20.739840
1732.507368	-3.022000	3.410500	-10.304000	26.245267	0.000202	20.744533
1733.507157	-3.007400	3.411900	-10.260000	26.262655	0.000201	20.742092
1734.511365	-2.997400	3.410700	-10.222000	26.246514	0.000200	20.748631
1735.514932	-3.019800	3.411200	-10.300000	26.233077	0.000201	20.746034
1736.518135	-3.004800	3.411000	-10.249000	26.208414	0.000201	20.747802
1737.510800	-3.018800	3.410200	-10.293000	26.217211	0.000201	20.732460
1738.510699	-2.965900	3.409100	-10.110000	26.180082	0.000200	20.761533
1739.509153	-3.012400	3.409000	-10.269000	26.218971	0.000199	20.724745
1740.509028	-3.008500	3.408400	-10.253000	26.169406	0.000201	20.735631
1741.513065	-2.984400	3.409700	-10.175000	26.123211	0.000200	20.747060
1742.509000	-2.999100	3.408300	-10.221000	26.105550	0.000197	20.750177
1743.510201	-3.028000	3.407800	-10.318000	26.079251	0.000196	20.741770
1744.512686	-3.011200	3.407400	-10.260000	26.070560	0.000197	20.731140
1745.510586	-3.008800	3.408000	-10.253000	26.038145	0.000197	20.753101
1746.511353	-3.016900	3.407800	-10.280000	26.049570	0.000197	20.736130
1747.512929	-3.008500	3.407300	-10.251000	26.034645	0.000197	20.747213
1748.510741	-2.996100	3.406900	-10.206000	26.064843	0.000196	20.747683
1749.510818	-3.003300	3.406200	-10.229000	26.119937	0.000198	20.738554
1750.515645	-3.016100	3.405500	-10.270000	26.093088	0.000196	20.747139
1751.512123	-3.011600	3.405400	-10.254000	26.104065	0.000195	20.734934
1752.509987	-3.006500	3.404500	-10.234000	26.098529	0.000194	20.730794
1753.515769	-3.004300	3.405600	-10.231000	26.115296	0.000194	20.740055
1754.513593	-3.014300	3.404600	-10.262000	26.154713	0.000195	20.743152
1755.513656	-2.996300	3.404900	-10.201000	26.167330	0.000195	20.738760
1756.512575	-3.013800	3.403900	-10.258000	26.193258	0.000193	20.721191
1757.514353	-3.018100	3.403900	-10.272000	26.207709	0.000191	20.741403
1758.513001	-2.997400	3.403500	-10.201000	26.229541	0.000192	20.724935
1759.515209	-2.995300	3.402800	-10.192000	26.250425	0.000193	20.742603
1760.516438	-3.002000	3.402100	-10.212000	26.231383	0.000193	20.729632
1761.514753	-2.987400	3.403500	-10.167000	26.190677	0.000192	20.734720
1762.517292	-3.036100	3.400600	-10.323000	26.198707	0.000193	20.748953
1763.513890	-2.989000	3.402000	-10.167000	26.207992	0.000191	20.729834
1764.514691	-3.018800	3.401600	-10.268000	26.239084	0.000193	20.725516
1765.517158	-3.007000	3.402500	-10.231000	26.189344	0.000191	20.725793
1766.515511	-3.000700	3.399700	-10.201000	26.154101	0.000192	20.736847
1767.516033	-3.002600	3.401900	-10.213000	26.090696	0.000191	20.737623
1768.515304	-3.008300	3.400500	-10.229000	26.103737	0.000191	20.755468
1769.515946	-2.990300	3.401400	-10.170000	26.141763	0.000190	20.758115
1770.519894	-2.997600	3.399800	-10.190000	26.162648	0.000191	20.734056
1771.515794	-2.979800	3.400300	-10.132000	26.187686	0.000190	20.757319
1772.513907	-2.976300	3.399900	-10.118000	26.225705	0.000190	20.747634
1773.521289	-3.001600	3.398900	-10.201000	26.194641	0.000190	20.766679
1774.517689	-3.012500	3.398300	-10.236000	26.163203	0.000190	20.747416
1775.517384	-3.003900	3.398800	-10.208000	26.223247	0.000188	20.734258
1776.520507	-3.022400	3.397000	-10.266000	26.223846	0.000188	20.748137
1777.516885	-3.005500	3.397400	-10.210000	26.251557	0.000187	20.733310
1778.517498	-3.031700	3.397600	-10.299000	26.224466	0.000188	20.734060
1779.520348	-3.011700	3.396500	-10.228000	26.193824	0.000188	20.743098
1780.517703	-3.001500	3.395800	-10.191000	26.236090	0.000187	20.744319
1781.520331	-2.977600	3.398400	-10.118000	26.232393	0.000186	20.736336
1782.522748	-2.965500	3.396600	-10.072000	26.225660	0.000186	20.757546
1783.519040	-2.984300	3.395500	-10.132000	26.187214	0.000186	20.742620
1784.521736	-2.992500	3.395500	-10.160000	26.180711	0.000186	20.756000
1785.523149	-2.992100	3.396100	-10.160000	26.160096	0.000186	20.752355
1786.520918	-2.996200	3.394000	-10.168000	26.126495	0.000186	20.768852
1787.520006	-3.023400	3.393200	-10.258000	26.134792	0.000184	20.754429
1788.521631	-2.997600	3.393300	-10.171000	26.094406	0.000186	20.744195
1789.521157	-2.996600	3.394000	-10.169000	26.179492	0.000185	20.744344
1790.531099	-3.003100	3.392100	-10.185000	26.172217	0.000184	20.768328
1791.522509	-3.002900	3.392500	-10.186000	26.199835	0.000184	20.755777
1792.523612	-2.991900	3.392500	-10.149000	26.182918	0.000184	20.752528
1793.521750	-2.979000	3.392700	-10.105000	26.218660	0.000183	20.758573
1794.523019	-2.986500	3.391800	-10.129000	26.184461	0.000185	20.765459
1795.526581	-3.032800	3.390500	-10.282000	26.245255	0.000182	20.763014
1796.522488	-3.002100	3.391300	-10.180000	26.270287	0.000185	20.742649
1797.522464	-3.005800	3.390900	-10.191000	26.273639	0.000182	20.746966
1798.529012	-3.017400	3.391100	-10.231000	26.262861	0.000183	20.764110
1799.525982	-2.996600	3.391800	-10.163000	26.275276	0.000180	20.751456
1800.523009	-3.018000	3.389800	-10.229000	26.231400	0.000180	20.762366
1801.522984	-3.021300	3.390200	-10.242000	26.205547	0.000179	20.763888
1802.524982	-3.025600	3.387900	-10.250000	26.223998	0.000182	20.765834
1803.528053	-2.997900	3.389200	-10.159000	26.167228	0.000177	20.746245
1804.525401	-3.011000	3.388200	-10.201000	26.193156	0.000179	20.746220
1805.526521	-3.007300	3.388500	-10.189000	26.209174	0.000178	20.766584
1806.526349	-3.019800	3.387000	-10.227000	26.201075	0.000180	20.757971
1807.528419	-2.993100	3.388400	-10.141000	26.234379	0.000178	20.752083
1808.526521	-3.000000	3.388000	-10.163000	26.256629	0.000177	20.767331
1809.524970	-3.029600	3.386700	-10.260000	26.245034	0.000178	20.752359
1810.530993	-3.000700	3.388600	-10.168000	26.164992	0.000177	20.752532
1811.534346	-2.972600	3.386400	-10.066000	26.166210	0.000176	20.761818
1812.531814	-3.005000	3.386000	-10.174000	26.173932	0.000177	20.780009
1813.525560	-2.997800	3.385700	-10.149000	26.147606	0.000177	20.770151
1814.528838	-3.000200	3.385300	-10.156000	26.173883	0.000174	20.757674
1815.530471	-3.004800	3.385500	-10.172000	26.148176	0.000176	20.758396
1816.527144	-3.011300	3.384800	-10.192000	26.201895	0.000178	20.762589
1817.529540	-2.993800	3.383800	-10.129000	26.269983	0.000175	20.772691
1818.529991	-3.002000	3.384100	-10.157000	26.295141	0.000174	20.771421
1819.527533	-3.011000	3.383300	-10.186000	26.266365	0.000175	20.774744
1820.530332	-3.019800	3.382700	-10.213000	26.305152	0.000174	20.780059
1821.528654	-2.991000	3.382900	-10.117000	26.304151	0.000175	20.763879
1822.529222	-2.978200	3.384200	-10.078000	26.296483	0.000176	20.776562
1823.532469	-2.991600	3.382100	-10.116000	26.284413	0.000174	20.776760
1824.530395	-3.001700	3.381200	-10.148000	26.302592	0.000173	20.764684
1825.528990	-2.985200	3.383600	-10.100000	26.316668	0.000173	20.793055
1826.539479	-2.996400	3.382100	-10.133000	26.346941	0.000174	20.796926
1827.534346	-3.011700	3.380600	-10.181000	26.374801	0.000174	20.784149
1828.532447	-2.984200	3.381200	-10.089000	26.313616	0.000172	20.768650
1829.530178	-2.976800	3.381200	-10.064000	26.307880	0.000172	20.795603
1830.541901	-2.997500	3.381100	-10.135000	26.310436	0.000172	20.783947
1831.533163	-3.000700	3.378900	-10.138000	26.324812	0.000171	20.784644
1832.533037	-3.009100	3.380100	-10.170000	26.311802	0.000170	20.792906
1833.534455	-3.023800	3.379000	-10.216000	26.341698	0.000172	20.786441
1834.535395	-2.982400	3.381200	-10.083000	26.389869	0.000170	20.768947
1835.533103	-2.995900	3.378700	-10.122000	26.389249	0.000171	20.800567
1836.533947	-3.002200	3.378000	-10.141000	26.420808	0.000170	20.781077
1837.543314	-2.985200	3.378700	-10.085000	26.354760	0.000169	20.784870
1838.535786	-3.027200	3.377100	-10.222000	26.307384	0.000168	20.774241
1839.539368	-3.026900	3.377200	-10.222000	26.298296	0.000166	20.792135
1840.539483	-3.007900	3.377400	-10.158000	26.304200	0.000169	20.800439
1841.548184	-3.025400	3.376000	-10.212000	26.293997	0.000165	20.784021
1842.536273	-2.998000	3.376400	-10.121000	26.263854	0.000166	20.777436
1843.535924	-2.983000	3.377100	-10.073000	26.214286	0.000168	20.787369
1844.541098	-3.021300	3.375100	-10.196000	26.241452	0.000166	20.793805
1845.537813	-3.014700	3.376100	-10.177000	26.306268	0.000167	20.770275
1846.539338	-3.000100	3.374500	-10.123000	26.294177	0.000165	20.790367
1847.540266	-2.987900	3.375800	-10.085000	26.294797	0.000167	20.795731
1848.537581	-3.013100	3.374500	-10.167000	26.284003	0.000165	20.814755
1849.538210	-3.020600	3.372800	-10.187000	26.264752	0.000167	20.775495
1850.539982	-3.009600	3.374000	-10.154000	26.329768	0.000164	20.806694
1851.537209	-3.013800	3.373900	-10.167000	26.369669	0.000163	20.780414
1852.538474	-3.009500	3.372500	-10.149000	26.346822	0.000165	20.787798
1853.541391	-2.994400	3.373000	-10.099000	26.352394	0.000164	20.799561
1854.538497	-3.003700	3.374000	-10.133000	26.333440	0.000165	20.795211
1855.540673	-2.983700	3.374500	-10.067000	26.328997	0.000163	20.780315
1856.538497	-2.987100	3.373000	-10.074000	26.336447	0.000162	20.796337
1857.541402	-2.967700	3.373500	-10.010000	26.393134	0.000162	20.787402
1858.538848	-3.000900	3.371200	-10.115000	26.423331	0.000162	20.789777
1859.539524	-2.989100	3.371100	-10.076000	26.438899	0.000163	20.803528
1860.540536	-2.999700	3.371500	-10.113000	26.453597	0.000162	20.794119
1861.551395	-2.989000	3.370500	-10.073000	26.420476	0.000163	20.782166
1862.541340	-3.010600	3.371300	-10.149000	26.410918	0.000161	20.800534
1863.540608	-3.006200	3.370700	-10.132000	26.365628	0.000161	20.789629
1864.541811	-3.014300	3.368800	-10.153000	26.368803	0.000161	20.780018
1865.539274	-2.993800	3.369300	-10.086000	26.421494	0.000161	20.781292
1866.542971	-2.979500	3.369500	-10.039000	26.457966	0.000161	20.809415
1867.541356	-3.011900	3.369100	-10.146000	26.433813	0.000160	20.803631
1868.540341	-3.001300	3.367600	-10.106000	26.423278	0.000160	20.808690
1869.545446	-2.989700	3.369000	-10.072000	26.409847	0.000158	20.799458
1870.542665	-3.016600	3.368800	-10.160000	26.421169	0.000160	20.798510
1871.541300	-2.981200	3.368300	-10.040000	26.418462	0.000157	20.821393
1872.546331	-3.010400	3.367500	-10.137000	26.436787	0.000157	20.808991
1873.546443	-3.014800	3.367400	-10.151000	26.464722	0.000158	20.812413
1874.544561	-3.002600	3.366600	-10.108000	26.466035	0.000157	20.802827
1875.545630	-2.993100	3.366600	-10.076000	26.442025	0.000159	20.808092
1876.556089	-2.953500	3.368400	-9.948000	26.429612	0.000156	20.807943
1877.549810	-2.999600	3.367300	-10.100000	26.395969	0.000157	20.832451
1878.545512	-3.006700	3.364700	-10.116000	26.390677	0.000155	20.814804
1879.552969	-3.004100	3.366400	-10.111000	26.429883	0.000156	20.806793
1880.549015	-3.037800	3.363400	-10.216000	26.396187	0.000155	20.841203
1881.550638	-3.017100	3.363500	-10.147000	26.381910	0.000155	20.813105
1882.545979	-2.990600	3.364600	-10.061000	26.416850	0.000155	20.828307
1883.549951	-3.011400	3.363600	-10.129000	26.424669	0.000154	20.799656
1884.548113	-3.017400	3.362400	-10.144000	26.425907	0.000153	20.827928
1885.549140	-2.997100	3.362500	-10.077000	26.419877	0.000153	20.821867
1886.550169	-2.976000	3.362400	-10.005000	26.457814	0.000153	20.847194
1887.547965	-2.997400	3.362300	-10.078000	26.508363	0.000153	20.810285
1888.569860	-3.005500	3.361900	-10.104000	26.524032	0.000154	20.821294
1889.552427	-3.005300	3.361200	-10.100000	26.512608	0.000153	20.829251
1890.553641	-3.000800	3.362500	-10.089000	26.502157	0.000152	20.822065
1891.554246	-2.990300	3.361600	-10.051000	26.502751	0.000153	20.823611
1892.552686	-3.031300	3.360400	-10.185000	26.473750	0.000152	20.795409
1893.550837	-3.012900	3.361400	-10.126000	26.499248	0.000152	20.820564
1894.551220	-2.981800	3.361800	-10.023000	26.572186	0.000151	20.818490
1895.552560	-3.010900	3.359500	-10.114000	26.547211	0.000152	20.841748
1896.553700	-3.001300	3.360800	-10.086000	26.507469	0.000150	20.820292
1897.552862	-2.989400	3.359400	-10.041000	26.519011	0.000149	20.838058
1898.552378	-2.995500	3.359000	-10.061000	26.490310	0.000152	20.841451
1899.554788	-2.987300	3.359400	-10.035000	26.490909	0.000148	20.824035
1900.553809	-2.999000	3.357800	-10.069000	26.504761	0.000148	20.862139
1901.554273	-3.003800	3.358100	-10.086000	26.516579	0.000149	20.834190
1902.560536	-2.987600	3.358600	-10.034000	26.519085	0.000147	20.814425
1903.555082	-3.002400	3.357100	-10.079000	26.502128	0.000150	20.795483
1904.555694	-2.986600	3.357400	-10.025000	26.452050	0.000147	20.842824
1905.557555	-3.004200	3.357100	-10.084000	26.441373	0.000146	20.869548
1906.553972	-2.985000	3.356500	-10.019000	26.438050	0.000146	20.833019
1907.555868	-2.982100	3.357800	-10.013000	26.434645	0.000147	20.830546
1908.558792	-2.982300	3.356800	-10.011000	26.461255	0.000146	20.848282
1909.554684	-2.960400	3.357700	-9.939700	26.516624	0.000147	20.839925
1910.555635	-2.996500	3.354700	-10.052000	26.538819	0.000147	20.836157
1911.552204	-3.003300	3.354300	-10.073000	26.514511	0.000145	20.843017
1912.554190	-2.981300	3.353800	-9.998100	26.535537	0.000145	20.844712
1913.558871	-2.989200	3.354200	-10.024000	26.479009	0.000146	20.836730
1914.554986	-3.024900	3.352000	-10.139000	26.443104	0.000142	20.835254
1915.558176	-2.988000	3.354000	-10.021000	26.457457	0.000145	20.844939
1916.561523	-3.004800	3.352200	-10.072000	26.403156	0.000144	20.842044
1917.556581	-2.973300	3.353900	-9.970800	26.363027	0.000141	20.849127
1918.558801	-2.985400	3.353800	-10.012000	26.358309	0.000144	20.845808
1919.561565	-3.006900	3.353100	-10.082000	26.386365	0.000143	20.826591
1920.561753	-3.011000	3.352600	-10.094000	26.391780	0.000143	20.851473
1921.556024	-2.998200	3.350800	-10.045000	26.421296	0.000143	20.847000
1922.556539	-2.995600	3.352400	-10.041000	26.482676	0.000142	20.858907
1923.557347	-2.976400	3.353100	-9.978800	26.511078	0.000141	20.848101
1924.557049	-2.991100	3.349500	-10.018000	26.496779	0.000141	20.844633
1925.557240	-2.996500	3.350800	-10.040000	26.506533	0.000141	20.832153
1926.562748	-2.993000	3.350400	-10.027000	26.509363	0.000142	20.878144
1927.559224	-3.008700	3.350500	-10.080000	26.535332	0.000141	20.859204
1928.559936	-2.976100	3.349300	-9.966700	26.530767	0.000141	20.851296
1929.558401	-2.997100	3.348700	-10.035000	26.535189	0.000138	20.870438
1930.560387	-2.996300	3.349900	-10.037000	26.526890	0.000139	20.857831
1931.562048	-3.002800	3.349000	-10.055000	26.535135	0.000138	20.867540
1932.561026	-3.014700	3.349100	-10.095000	26.536226	0.000137	20.846353
1933.566667	-3.007700	3.348100	-10.069000	26.566862	0.000136	20.843483
1934.561962	-3.004100	3.347000	-10.054000	26.572252	0.000138	20.870710
1935.561807	-2.981600	3.348300	-9.982400	26.568704	0.000138	20.874730
1936.570565	-2.997400	3.346800	-10.030000	26.599437	0.000139	20.849202
1937.564114	-3.004500	3.347000	-10.055000	26.613440	0.000137	20.846208
1938.563047	-3.000100	3.345500	-10.036000	26.652612	0.000136	20.858086
1939.566660	-3.013100	3.345600	-10.080000	26.663534	0.000138	20.859109
1940.563662	-3.003600	3.346600	-10.051000	26.621561	0.000138	20.883293
1941.564394	-3.028900	3.344900	-10.130000	26.663563	0.000137	20.867198
1942.569254	-2.982300	3.344600	-9.974300	26.690098	0.000137	20.867796
1943.564378	-2.997700	3.344800	-10.026000	26.699432	0.000134	20.881446
1944.564323	-3.020200	3.344500	-10.100000	26.721898	0.000135	20.846662
1945.567936	-3.019700	3.344800	-10.099000	26.652198	0.000134	20.869997
1946.565656	-2.997000	3.343300	-10.019000	26.600237	0.000135	20.876083
1947.564387	-3.006700	3.344000	-10.054000	26.634923	0.000133	20.870649
1948.571323	-2.986300	3.344600	-9.986900	26.632565	0.000134	20.885347
1949.567067	-3.021500	3.342400	-10.098000	26.630727	0.000133	20.871647
1950.566103	-3.032200	3.342800	-10.134000	26.603321	0.000132	20.896251
1951.566345	-2.994600	3.343200	-10.010000	26.612131	0.000132	20.878082
1952.567529	-3.012400	3.341700	-10.065000	26.647137	0.000131	20.883401
1953.568044	-2.988100	3.342200	-9.986200	26.666623	0.000131	20.889713
1954.566987	-3.013300	3.341200	-10.067000	26.689237	0.000131	20.876887
1955.567611	-3.011300	3.342000	-10.063000	26.686760	0.000130	20.882931
1956.568264	-2.999500	3.340100	-10.018000	26.661738	0.000131	20.883380
1957.570009	-3.001900	3.340600	-10.028000	26.693260	0.000130	20.888043
1958.570694	-2.994000	3.340100	-9.999800	26.661238	0.000131	20.865335
1959.573835	-2.985600	3.339900	-9.970700	26.674694	0.000130	20.880284
1960.569029	-2.990000	3.339200	-9.983700	26.689040	0.000129	20.879059
1961.570420	-2.995400	3.338800	-9.999700	26.686534	0.000128	20.887919
1962.576154	-3.000300	3.339200	-10.017000	26.736625	0.000130	20.885174
1963.569507	-3.006200	3.339200	-10.038000	26.702369	0.000127	20.873494
1964.570354	-2.984000	3.338700	-9.961000	26.693039	0.000130	20.874545
1965.570553	-2.985000	3.339100	-9.966200	26.677421	0.000128	20.892034
1966.581967	-2.991100	3.337700	-9.982600	26.668460	0.000127	20.883500
1967.572062	-2.998900	3.338500	-10.009000	26.668013	0.000128	20.901067
1968.572920	-3.018700	3.337200	-10.073000	26.679008	0.000125	20.888888
1969.574436	-2.959900	3.338100	-9.879300	26.678315	0.000127	20.887717
1970.570272	-2.998900	3.336300	-10.004000	26.707183	0.000127	20.889713
1971.571729	-2.997200	3.336000	-9.997200	26.732200	0.000125	20.896371
1972.575428	-3.012000	3.335500	-10.046000	26.705170	0.000126	20.898119
1973.573611	-3.000300	3.336300	-10.009000	26.703853	0.000124	20.881624
1974.576139	-2.990300	3.336000	-9.974100	26.683351	0.000123	20.894202
1975.577557	-3.011300	3.334800	-10.041000	26.704472	0.000125	20.900737
1976.574152	-3.006100	3.334000	-10.021000	26.713286	0.000125	20.879253
1977.575744	-3.006700	3.333500	-10.022000	26.703332	0.000123	20.893427
1978.575090	-3.020300	3.332700	-10.064000	26.768936	0.000123	20.901536
1979.576852	-3.006800	3.333600	-10.023000	26.802091	0.000125	20.877975
1980.576944	-3.019200	3.332700	-10.061000	26.801722	0.000124	20.896094
1981.576176	-3.008900	3.332700	-10.027000	26.775313	0.000122	20.884242
1982.579488	-2.997900	3.332900	-9.991200	26.737732	0.000120	20.884390
1983.576504	-3.019700	3.330400	-10.056000	26.755358	0.000125	20.902584
1984.576222	-3.004000	3.331700	-10.008000	26.775883	0.000122	20.891452
1985.579482	-2.984200	3.331600	-9.941300	26.712092	0.000123	20.892751
1986.577459	-2.970400	3.330900	-9.892300	26.717108	0.000121	20.908223
1987.577599	-2.999900	3.330900	-9.991800	26.693748	0.000121	20.886163
1988.586804	-2.996900	3.329300	-9.976400	26.679201	0.000119	20.884340
1989.576602	-2.999900	3.329900	-9.988300	26.694068	0.000121	20.870838
1990.591852	-2.988900	3.330900	-9.954700	26.648671	0.000121	20.885891
1991.576819	-2.988500	3.330500	-9.952300	26.590012	0.000118	20.871968
1992.577638	-2.989400	3.329800	-9.953000	26.674538	0.000122	20.868274
1993.578162	-3.000000	3.329700	-9.988300	26.732298	0.000120	20.884143
1994.578451	-2.997300	3.327800	-9.973900	26.720139	0.000120	20.868600
1995.584830	-3.020700	3.328500	-10.053000	26.718798	0.000117	20.871045
1996.577123	-2.977100	3.329100	-9.909700	26.712363	0.000119	20.883541
1997.579122	-2.975100	3.329600	-9.903900	26.661307	0.000117	20.849758
1998.580052	-2.988000	3.328100	-9.943400	26.621987	0.000118	20.867602
1999.588348	-2.978200	3.327000	-9.907400	26.658850	0.000117	20.871469
2000.578824	-3.005400	3.327000	-9.997900	26.694273	0.000114	20.865829
2001.580772	-2.989700	3.327500	-9.947000	26.685857	0.000118	20.846938
2002.578559	-2.979500	3.326000	-9.909200	26.674513	0.000115	20.864456
2003.580755	-3.009400	3.325500	-10.007000	26.686756	0.000117	20.871548
2004.579977	-2.989000	3.325800	-9.939500	26.638697	0.000116	20.872071
2005.582554	-3.005300	3.324700	-9.990100	26.629514	0.000116	20.857151
2006.579146	-2.999400	3.325100	-9.972600	26.589471	0.000116	20.854830
2007.581641	-3.024200	3.323600	-10.050000	26.583314	0.000114	20.868080
2008.597531	-3.013800	3.323600	-10.016000	26.671142	0.000114	20.872921
2009.579214	-3.041000	3.322000	-10.101000	26.712896	0.000115	20.848517
2010.584449	-3.019700	3.323500	-10.035000	26.736875	0.000113	20.862193
2011.580273	-3.003000	3.323600	-9.978800	26.747948	0.000113	20.857679
2012.580479	-3.021700	3.321900	-10.036000	26.764253	0.000114	20.872649
2013.583092	-3.010900	3.321900	-10.001000	26.813250	0.000111	20.853160
2014.583990	-3.001500	3.322700	-9.971700	26.882899	0.000110	20.853490
2015.580656	-3.005900	3.322800	-9.987000	26.887860	0.000111	20.849944
2016.584416	-3.009900	3.321700	-9.996900	26.849364	0.000110	20.853436
2017.583839	-2.987200	3.321400	-9.920900	26.901740	0.000112	20.848254
2018.580279	-2.987600	3.322100	-9.924300	26.884932	0.000111	20.839414
2019.583200	-2.978700	3.321300	-9.892200	26.869076	0.000110	20.855238
2020.582651	-3.003600	3.320200	-9.971500	26.823707	0.000110	20.839019
2021.584144	-2.980000	3.320500	-9.894400	26.819688	0.000109	20.850625
2022.585349	-2.989900	3.319800	-9.925000	26.813033	0.000110	20.849148
2023.585947	-3.002500	3.317900	-9.960700	26.768260	0.000108	20.838272
2024.583183	-3.009000	3.318600	-9.985300	26.788342	0.000110	20.858936
2025.585541	-3.002000	3.319000	-9.962700	26.764487	0.000105	20.837798
2026.582968	-2.976300	3.318600	-9.877000	26.771414	0.000108	20.843339
2027.584255	-2.986600	3.318300	-9.909800	26.732565	0.000108	20.838421
2028.583158	-2.974000	3.319100	-9.870300	26.729416	0.000106	20.850901
2029.583526	-2.997700	3.316100	-9.939700	26.727509	0.000106	20.833337
2030.589967	-2.994600	3.317100	-9.932300	26.744184	0.000106	20.853420
2031.585785	-3.001500	3.316400	-9.953200	26.788043	0.000104	20.842989
2032.583884	-3.009300	3.315200	-9.975100	26.861535	0.000106	20.847656
2033.589362	-3.012600	3.315200	-9.985800	26.875657	0.000105	20.843364
2034.584965	-3.003800	3.315300	-9.957900	26.918990	0.000105	20.847582
2035.584416	-2.994900	3.315300	-9.928300	26.935990	0.000104	20.843339
2036.591787	-3.006900	3.314400	-9.965100	26.918203	0.000104	20.845842
2037.584996	-2.982100	3.315100	-9.885400	26.895938	0.000102	20.846687
2038.590970	-3.020500	3.313600	-10.009000	26.850123	0.000102	20.840924
2039.587067	-3.025400	3.313600	-10.024000	26.872734	9.968381E-5	20.825726
2040.586482	-3.004000	3.314500	-9.955200	26.963142	0.000103	20.827495
2041.591317	-3.019800	3.312500	-10.002000	26.983913	0.000101	20.837951
2042.587645	-3.003200	3.312100	-9.945700	26.958160	0.000100	20.814900
2043.588834	-3.001700	3.312800	-9.943600	26.918425	9.978282E-5	20.817617
2044.587976	-3.017700	3.312200	-9.994500	26.960067	0.000102	20.822506
2045.588130	-3.001700	3.311400	-9.938000	26.976098	0.000100	20.822506
2046.587949	-2.993300	3.311900	-9.912700	26.961231	9.984882E-5	20.837901
2047.591936	-2.996800	3.311100	-9.922100	26.977463	9.994783E-5	20.824828
2048.590499	-3.009500	3.310300	-9.961100	26.975881	9.869374E-5	20.810434
2049.588808	-2.981600	3.311000	-9.871300	26.974237	9.707662E-5	20.844341
2050.588130	-3.009700	3.310300	-9.962000	26.951009	9.572352E-5	20.855123
2051.592755	-2.994200	3.309700	-9.909200	26.876059	9.592153E-5	20.809156
2052.590686	-3.009500	3.310100	-9.961000	26.831010	9.800069E-5	20.826922
2053.589110	-2.984900	3.310000	-9.879700	26.824285	9.743965E-5	20.801669
2054.592070	-2.988900	3.310100	-9.892800	26.830666	9.674659E-5	20.827998
2055.592029	-3.047500	3.307600	-10.079000	26.847294	9.605354E-5	20.799673
2056.591451	-3.007400	3.308200	-9.948500	26.852776	9.509647E-5	20.828893
2057.599467	-3.021300	3.307100	-9.990000	26.916514	9.615255E-5	20.812376
2058.591005	-3.003100	3.307700	-9.931100	26.957779	9.390839E-5	20.812145
2059.592122	-2.976900	3.308000	-9.847000	26.980813	9.522848E-5	20.813023
2060.591736	-3.010600	3.307100	-9.955700	27.027860	9.400739E-5	20.814817
2061.595301	-2.999700	3.306800	-9.918100	27.018697	9.384238E-5	20.825516
2062.592176	-2.988100	3.306700	-9.880200	26.977877	9.466744E-5	20.810071
2063.591777	-3.006000	3.306600	-9.938100	26.943858	9.364437E-5	20.846036
2064.593977	-3.003000	3.305100	-9.924800	26.960657	9.328134E-5	20.824048
2065.601045	-2.985600	3.305900	-9.869400	26.984228	9.252229E-5	20.817880
2066.592646	-2.982300	3.305800	-9.858100	26.976836	9.262129E-5	20.815188
2067.595010	-2.989200	3.306000	-9.880900	27.016983	9.196124E-5	20.819999
2068.591372	-2.980400	3.304400	-9.847500	27.051750	9.169723E-5	20.815608
2069.593700	-2.999400	3.303300	-9.907300	27.045076	9.090517E-5	20.810318
2070.595441	-3.025300	3.303000	-9.991000	26.991994	9.146621E-5	20.803404
2071.596038	-3.015800	3.301600	-9.955900	27.010460	9.192824E-5	20.819129
2072.594030	-2.978200	3.303200	-9.836400	26.997332	9.031112E-5	20.807350
2073.595575	-2.996900	3.303000	-9.897400	26.965368	9.054214E-5	20.803181
2074.595034	-3.009300	3.301900	-9.934800	27.007406	9.041013E-5	20.809894
2075.594676	-3.003300	3.300800	-9.912100	26.988148	9.093817E-5	20.817554
2076.599848	-3.009600	3.300300	-9.930900	27.027631	8.948606E-5	20.818379
2077.597258	-2.985400	3.301400	-9.854200	27.057432	8.899103E-5	20.818952
2078.597076	-2.985900	3.300500	-9.854400	27.028377	8.734091E-5	20.817707
2079.597788	-2.979400	3.301300	-9.834600	27.009443	8.783594E-5	20.809098
2080.597988	-2.993300	3.300200	-9.877900	27.055301	8.783594E-5	20.820601
2081.597737	-2.979100	3.300400	-9.831100	27.084905	8.737391E-5	20.816235
2082.599288	-2.998000	3.298300	-9.887500	27.087159	8.651585E-5	20.818028
2083.599204	-2.992400	3.299000	-9.871400	27.065304	8.486573E-5	20.828291
2084.601415	-2.996900	3.297900	-9.883400	27.044879	8.516275E-5	20.800163
2085.598799	-2.992900	3.299300	-9.873600	27.035626	8.638384E-5	20.812195
2086.600801	-3.000700	3.298000	-9.895400	26.992420	8.417268E-5	20.831808
2087.602755	-2.971700	3.298400	-9.801300	27.027762	8.407367E-5	20.818985
2088.600569	-2.986600	3.298300	-9.850100	27.079227	8.582280E-5	20.820956
2089.601339	-2.976500	3.297900	-9.815300	27.132899	8.582280E-5	20.799545
2090.604357	-2.980000	3.296700	-9.822500	27.161332	8.258856E-5	20.814866
2091.601222	-2.986500	3.296800	-9.845300	27.164858	8.407367E-5	20.805610
2092.604252	-3.003900	3.295200	-9.896700	27.186818	8.281958E-5	20.793559
2093.604617	-2.987200	3.294800	-9.841100	27.132378	8.262156E-5	20.800444
2094.601527	-3.016700	3.293400	-9.933400	27.100865	8.173050E-5	20.802415
2095.601019	-2.987900	3.294800	-9.843500	27.049225	8.034440E-5	20.810224
2096.604434	-2.978400	3.295600	-9.814400	27.040271	8.258856E-5	20.819711
2097.601373	-3.003500	3.294700	-9.894800	27.056625	7.984936E-5	20.815769
2098.601852	-2.973100	3.295000	-9.795100	27.055206	8.034440E-5	20.802963
2099.606007	-2.985600	3.296100	-9.840300	27.086869	8.192851E-5	20.800667
2100.601851	-2.996400	3.293100	-9.866800	27.090271	7.988236E-5	20.799821
2101.608734	-3.024800	3.291400	-9.955600	27.101906	7.965135E-5	20.796350
2102.604742	-3.007400	3.292700	-9.901600	27.124835	7.932132E-5	20.798073
2103.604364	-3.008900	3.290700	-9.901000	27.152605	7.899130E-5	20.793286
2104.607783	-3.011300	3.291400	-9.910900	27.181805	8.070742E-5	20.790887
2105.603158	-2.989500	3.291100	-9.838400	27.145505	7.714316E-5	20.792309
2106.605296	-2.995000	3.290200	-9.853300	27.176918	7.872728E-5	20.797352
2107.611030	-2.986300	3.290800	-9.827000	27.157668	7.734118E-5	20.805017
2108.606812	-2.990000	3.289300	-9.834500	27.182079	7.704415E-5	20.821983
2109.620031	-2.999900	3.289900	-9.868700	27.223859	7.612009E-5	20.809952
2110.605104	-3.003200	3.289400	-9.876500	27.260533	7.869428E-5	20.779985
2111.611907	-2.996400	3.288900	-9.853900	27.285963	7.757219E-5	20.788495
2112.607409	-2.999900	3.287800	-9.861700	27.191213	8.054241E-5	20.785651
2113.607246	-3.002700	3.287100	-9.868600	27.175779	7.668113E-5	20.785774
2114.607631	-2.986000	3.288200	-9.817300	27.166174	7.618609E-5	20.794132
2115.607479	-2.999800	3.286600	-9.858400	27.183371	7.503101E-5	20.797203
2116.606680	-3.007500	3.287300	-9.885600	27.195927	7.628510E-5	20.799875
2117.606872	-2.976000	3.287300	-9.781800	27.203941	7.618609E-5	20.784228
2118.607132	-2.989500	3.286500	-9.824300	27.220813	7.674713E-5	20.806888
2119.610535	-2.983800	3.287200	-9.807700	27.198833	7.588907E-5	20.802324
2120.607078	-2.979400	3.284900	-9.786700	27.172954	7.641711E-5	20.795262
2121.607919	-2.994100	3.285600	-9.836800	27.147075	7.347989E-5	20.773974
2122.610605	-3.027000	3.283900	-9.938300	27.160947	7.506401E-5	20.790772
2123.608511	-3.008200	3.284400	-9.879600	27.165686	7.387592E-5	20.784158
2124.607561	-2.991700	3.286700	-9.831900	27.223223	7.588907E-5	20.773751
2125.609320	-3.014500	3.283200	-9.896500	27.236673	7.301786E-5	20.786805
2126.606556	-3.016500	3.284100	-9.906000	27.238411	7.153275E-5	20.805149
2127.608333	-3.013600	3.283200	-9.893400	27.225142	7.189578E-5	20.782794
2128.606474	-3.015200	3.282100	-9.895700	27.167552	7.123573E-5	20.785560
2129.608788	-3.032900	3.281100	-9.950700	27.132342	7.173077E-5	20.789502
2130.612096	-2.993400	3.281600	-9.822000	27.130161	7.163176E-5	20.791576
2131.616449	-3.010900	3.280800	-9.877200	27.081179	7.196178E-5	20.796367
2132.613533	-3.004000	3.282800	-9.860600	27.134634	7.103771E-5	20.803187
2133.611176	-3.005700	3.279400	-9.856100	27.224646	7.070769E-5	20.768070
2134.613157	-3.000700	3.281900	-9.846700	27.265137	7.083970E-5	20.771340
2135.613617	-3.003700	3.280400	-9.852600	27.241538	7.097171E-5	20.791225
2136.612659	-2.976400	3.279700	-9.761000	27.175496	6.988263E-5	20.776481
2137.612236	-3.013200	3.280200	-9.883500	27.193931	6.697842E-5	20.795497
2138.614286	-3.020000	3.279000	-9.901500	27.218916	6.902457E-5	20.773211
2139.613934	-3.012100	3.278700	-9.875000	27.210926	6.796849E-5	20.775607
2140.614862	-3.010400	3.277200	-9.864000	27.223953	6.945360E-5	20.773537
2141.613448	-3.004900	3.277800	-9.848600	27.228516	6.796849E-5	20.787135
2142.615017	-3.005500	3.277700	-9.850100	27.242834	6.618636E-5	20.755069
2143.614309	-2.984200	3.276800	-9.777500	27.314036	6.803450E-5	20.762207
2144.614269	-3.010600	3.275900	-9.860600	27.357397	6.536130E-5	20.775479
2145.615396	-3.024900	3.275800	-9.908700	27.344273	6.582333E-5	20.770812
2146.615269	-3.050800	3.274800	-9.989700	27.341941	6.565832E-5	20.773681
2147.614768	-3.016200	3.274400	-9.874600	27.315451	6.536130E-5	20.788286
2148.614492	-2.979800	3.276000	-9.760900	27.315844	6.387619E-5	20.782517
2149.615686	-3.026700	3.273600	-9.907900	27.335444	6.483326E-5	20.782794
2150.616662	-3.002500	3.274100	-9.829900	27.326238	6.493227E-5	20.769265
2151.615564	-2.975800	3.274200	-9.742900	27.270863	6.470125E-5	20.769987
2152.615882	-3.010200	3.272300	-9.848900	27.249130	6.513028E-5	20.754764
2153.617156	-3.014500	3.273400	-9.866800	27.240645	6.427222E-5	20.781317
2154.620348	-2.976800	3.272900	-9.742100	27.255528	6.499827E-5	20.767365
2155.616379	-2.994000	3.274000	-9.801700	27.220272	6.189605E-5	20.768412
2156.620222	-2.993000	3.272000	-9.791800	27.261308	6.328215E-5	20.785032
2157.617546	-3.013400	3.272600	-9.861200	27.256815	6.206106E-5	20.769133
2158.616934	-3.006400	3.269500	-9.828400	27.318492	6.258910E-5	20.759576
2159.617064	-2.967100	3.270200	-9.701800	27.328861	6.377718E-5	20.777594
2160.619319	-3.013500	3.269900	-9.852500	27.336059	6.291912E-5	20.778670
2161.620024	-2.998800	3.270000	-9.804800	27.367909	5.971789E-5	20.757131
2162.619345	-2.989900	3.269300	-9.774800	27.429604	6.126900E-5	20.756133
2163.621343	-2.992100	3.269700	-9.783000	27.469787	5.879382E-5	20.758153
2164.622880	-3.001000	3.267700	-9.803900	27.448731	5.912384E-5	20.765418
2165.618781	-2.999400	3.267800	-9.800700	27.396739	5.889283E-5	20.776176
2166.620801	-2.987800	3.269200	-9.767300	27.363098	5.899183E-5	20.772679
2167.620177	-2.988800	3.268300	-9.767100	27.376398	5.862881E-5	20.750971
2168.621148	-2.998000	3.265700	-9.789300	27.416014	5.833178E-5	20.750996
2169.620391	-2.999600	3.267100	-9.799200	27.428911	6.008091E-5	20.754014
2170.620394	-3.006500	3.267000	-9.821000	27.443272	6.017992E-5	20.756133
2171.621979	-2.985400	3.267200	-9.753100	27.367369	5.790275E-5	20.767967
2172.620175	-2.985500	3.265300	-9.747600	27.358688	5.829878E-5	20.760656
2173.620946	-2.971400	3.266900	-9.706200	27.343978	5.697869E-5	20.763877
2174.620981	-3.014900	3.264400	-9.840600	27.362831	5.737471E-5	20.745858
2175.621937	-3.000700	3.265100	-9.796400	27.372332	5.678067E-5	20.748777
2176.635731	-2.984400	3.264500	-9.741000	27.429858	5.433849E-5	20.772985
2177.624335	-2.997800	3.264100	-9.784200	27.465034	5.720970E-5	20.762380
2178.622910	-2.985100	3.264100	-9.743300	27.489221	5.638464E-5	20.753049
2179.622576	-2.978400	3.264000	-9.720500	27.491897	5.602162E-5	20.765699
2180.628197	-2.986100	3.262900	-9.742300	27.475107	5.645065E-5	20.759238
2181.622675	-2.982900	3.262400	-9.730500	27.398858	5.453651E-5	20.747961
2182.626790	-2.984500	3.262000	-9.734400	27.381993	5.539457E-5	20.750909
2183.628398	-2.983900	3.260700	-9.727400	27.371623	5.407447E-5	20.768454
2184.625054	-3.010500	3.260400	-9.814700	27.370336	5.351343E-5	20.750089
2185.629885	-2.983500	3.261300	-9.728900	27.332403	5.351343E-5	20.756026
2186.626919	-2.980900	3.259300	-9.714300	27.321689	5.334842E-5	20.756154
2187.627006	-3.028900	3.259300	-9.871400	27.322558	5.394246E-5	20.763667
2188.625757	-2.986900	3.259600	-9.735100	27.281849	5.196232E-5	20.758278
2189.628853	-3.016300	3.258600	-9.827700	27.281156	5.384346E-5	20.756633
2190.626827	-2.991500	3.259300	-9.749600	27.299568	5.130227E-5	20.744333
2191.635122	-3.007100	3.258600	-9.797300	27.389391	5.282038E-5	20.750765
2192.627882	-3.002400	3.258700	-9.782400	27.468973	5.242435E-5	20.748799
2193.627129	-3.033500	3.256700	-9.878500	27.447469	5.331542E-5	20.756089
2194.627518	-3.005000	3.255600	-9.781900	27.467784	5.235835E-5	20.754241
2195.628154	-2.996100	3.257300	-9.758300	27.477087	5.093924E-5	20.756963
2196.627696	-2.981700	3.256200	-9.708600	27.488624	5.110425E-5	20.748655
2197.627984	-2.982000	3.255900	-9.707900	27.514048	5.084024E-5	20.745785
2198.626431	-2.993900	3.254700	-9.743900	27.535755	4.961915E-5	20.766203
2199.627844	-3.002500	3.253800	-9.769200	27.504946	4.862907E-5	20.742317
2200.629183	-2.978600	3.253700	-9.690800	27.485972	4.975116E-5	20.741719
2201.627303	-3.002700	3.253700	-9.768900	27.522830	5.153329E-5	20.732809
2202.630029	-3.000000	3.254300	-9.762500	27.508024	5.018019E-5	20.746362
2203.631264	-2.993100	3.254700	-9.740800	27.524941	4.919011E-5	20.745839
2204.630987	-3.036400	3.252100	-9.873500	27.494484	4.876108E-5	20.748387
2205.630112	-2.998700	3.252900	-9.752600	27.517105	4.889309E-5	20.751706
2206.631675	-2.983600	3.252500	-9.703500	27.585143	4.714396E-5	20.746193
2207.628806	-2.989400	3.252000	-9.720300	27.632094	4.991617E-5	20.735588
2208.629297	-2.984800	3.252000	-9.706100	27.609155	4.816704E-5	20.745225
2209.631203	-2.995900	3.250000	-9.736100	27.546156	4.763900E-5	20.749641
2210.628917	-3.020800	3.249800	-9.816200	27.564088	4.618689E-5	20.753933
2211.630808	-3.005100	3.249000	-9.763100	27.549607	4.509781E-5	20.747422
2212.633183	-2.980400	3.250200	-9.686300	27.495411	4.671493E-5	20.725610
2213.632360	-2.980200	3.248900	-9.680900	27.509279	4.588987E-5	20.758530
2214.639481	-3.012400	3.248900	-9.786000	27.471974	4.787002E-5	20.756085
2215.631062	-2.983400	3.248400	-9.690000	27.482239	4.539484E-5	20.754560
2216.631659	-3.008900	3.247600	-9.771100	27.530437	4.582387E-5	20.768439
2217.632129	-3.007500	3.247300	-9.765900	27.565555	4.608789E-5	20.772953
2218.634268	-2.997500	3.247200	-9.732500	27.647603	4.806803E-5	20.745979
2219.636960	-3.011300	3.246900	-9.775800	27.633540	4.410774E-5	20.739889
2220.633185	-3.018900	3.247100	-9.801400	27.571465	4.466878E-5	20.763726
2221.634159	-3.002200	3.247200	-9.748200	27.555491	4.579087E-5	20.764250
2222.637493	-3.003100	3.244600	-9.743200	27.531703	4.222660E-5	20.720399
2223.636933	-3.007200	3.243800	-9.753500	27.554922	4.569186E-5	20.744710
2224.635209	-2.998600	3.245600	-9.731400	27.629628	4.476779E-5	20.749703
2225.637166	-3.033200	3.242500	-9.834700	27.638748	4.447077E-5	20.746078
2226.635975	-3.004500	3.243500	-9.744300	27.662137	4.532883E-5	20.769614
2227.636837	-2.996400	3.243400	-9.717800	27.621813	4.163256E-5	20.754643
2228.640418	-3.000600	3.242800	-9.729300	27.603333	4.110452E-5	20.758333
2229.637579	-2.999900	3.242800	-9.727600	27.630025	4.239162E-5	20.748680
2230.636526	-3.025700	3.242000	-9.808200	27.683345	4.344769E-5	20.754445
2231.645322	-2.992500	3.241600	-9.699700	27.720250	4.268864E-5	20.744166
2232.637675	-3.009700	3.242300	-9.757100	27.749237	4.225961E-5	20.732558
2233.637540	-3.004000	3.241200	-9.736100	27.749762	4.272164E-5	20.753002
2234.638597	-2.997900	3.239700	-9.711200	27.721541	4.097251E-5	20.768699
2235.637784	-2.991500	3.241300	-9.695600	27.673352	4.146755E-5	20.765252
2236.639155	-2.985000	3.238700	-9.666100	27.645129	4.044447E-5	20.742067
2237.637618	-2.985600	3.239700	-9.672000	27.604509	4.018045E-5	20.749085
2238.637985	-2.988900	3.240300	-9.684400	27.647170	4.044447E-5	20.753130
2239.637557	-3.028900	3.237400	-9.805100	27.676036	3.935539E-5	20.759892
2240.637938	-3.015300	3.237600	-9.761600	27.704676	4.169856E-5	20.757892
2241.641439	-2.986800	3.237700	-9.670000	27.664924	4.308467E-5	20.755348
2242.640088	-2.993300	3.237100	-9.688200	27.669783	4.027946E-5	20.746013
2243.640500	-2.987600	3.237200	-9.669800	27.590524	3.839832E-5	20.762514
2244.641304	-2.997200	3.236700	-9.700400	27.558426	3.994944E-5	20.748235
2245.640157	-3.018300	3.233900	-9.759900	27.553762	3.948740E-5	20.777683
2246.640141	-3.005900	3.234100	-9.721100	27.566663	3.942140E-5	20.747514
2247.644214	-2.978100	3.236300	-9.637200	27.573157	3.919038E-5	20.756894
2248.647976	-2.973500	3.235700	-9.620600	27.596994	3.800229E-5	20.750532
2249.641324	-2.966300	3.235100	-9.595300	27.644264	3.734225E-5	20.767750
2250.648794	-2.992100	3.234000	-9.675600	27.681293	3.780428E-5	20.763759
2251.642642	-2.980800	3.233000	-9.635700	27.633377	3.635217E-5	20.765330
2252.643639	-2.989300	3.233200	-9.663900	27.657954	3.549411E-5	20.744541
2253.643742	-2.970700	3.231900	-9.600300	27.680793	3.744125E-5	20.748557
2254.643744	-2.988400	3.231600	-9.656700	27.623600	3.717723E-5	20.763553
2255.643495	-2.985200	3.233000	-9.650100	27.656913	3.582413E-5	20.763409
2256.644204	-2.987700	3.229500	-9.647000	27.715489	3.433902E-5	20.763557
2257.645751	-2.980300	3.230700	-9.627600	27.699096	3.631917E-5	20.745638
2258.643310	-3.013000	3.229400	-9.729000	27.708544	3.513108E-5	20.763207
2259.643690	-2.989200	3.230800	-9.656100	27.672488	3.457004E-5	20.753476
2260.645477	-3.003800	3.228500	-9.697400	27.682280	3.529610E-5	20.771391
2261.645726	-3.000700	3.228300	-9.686700	27.680891	3.457004E-5	20.772838
2262.644752	-2.997600	3.227700	-9.674500	27.718886	3.397600E-5	20.768398
2263.645661	-3.004800	3.228000	-9.699000	27.735053	3.460304E-5	20.773762
2264.648097	-3.006500	3.226300	-9.698200	27.732545	3.612116E-5	20.760333
2265.645962	-3.017300	3.225900	-9.732900	27.753203	3.466905E-5	20.762155
2266.646149	-3.031600	3.227200	-9.783100	27.811975	3.658319E-5	20.767247
2267.646743	-3.033000	3.224500	-9.778700	27.781002	3.357997E-5	20.774957
2268.646820	-3.007100	3.225600	-9.698800	27.795185	3.324994E-5	20.775481
2269.649756	-3.005700	3.224900	-9.692600	27.865384	3.338195E-5	20.766472
2270.649710	-2.979800	3.224500	-9.607000	27.847654	3.397600E-5	20.759058
2271.647459	-3.018700	3.223700	-9.730700	27.764482	3.301893E-5	20.769238
2272.655941	-2.988500	3.223100	-9.631400	27.733807	3.126980E-5	20.754016
2273.650439	-3.024300	3.222000	-9.743600	27.677908	3.387699E-5	20.766517
2274.648660	-2.980000	3.223500	-9.605200	27.650455	3.202886E-5	20.779196
2275.651178	-3.011600	3.221000	-9.699600	27.670074	3.117079E-5	20.773333
2276.652765	-3.011600	3.221700	-9.701400	27.710371	3.150082E-5	20.750820
2277.648920	-3.031700	3.220800	-9.763800	27.761950	3.272191E-5	20.779493
2278.651703	-2.992300	3.221600	-9.638700	27.772242	3.206186E-5	20.763771
2279.653314	-2.992900	3.221700	-9.641500	27.773180	2.998270E-5	20.775621
2280.649598	-3.014400	3.220200	-9.705700	27.779330	3.113779E-5	20.773275
2281.650490	-2.996000	3.219700	-9.645100	27.825060	3.189685E-5	20.770459
2282.657582	-3.006900	3.218500	-9.676100	27.888952	2.862961E-5	20.779760
2283.650168	-3.020300	3.219300	-9.722300	27.900881	3.209486E-5	20.768533
2284.651178	-2.996900	3.218700	-9.645300	27.906583	3.123680E-5	20.775221
2285.650060	-3.046000	3.216000	-9.795400	27.876109	2.806856E-5	20.800025
2286.654185	-3.017900	3.219500	-9.714900	27.828771	2.866261E-5	20.788893
2287.650528	-3.025400	3.217100	-9.732200	27.797598	3.018072E-5	20.790711
2288.651691	-3.011500	3.215900	-9.683700	27.821851	2.889362E-5	20.770075
2289.657746	-2.991000	3.217100	-9.621100	27.850767	2.793655E-5	20.794909
2290.651459	-2.980100	3.216500	-9.584900	27.876600	2.559338E-5	20.781080
2291.651981	-2.980300	3.215500	-9.582500	27.851729	2.714450E-5	20.785446
2292.656203	-3.009500	3.214300	-9.671800	27.800822	2.816757E-5	20.786370
2293.653537	-3.013000	3.212300	-9.677400	27.827329	2.717750E-5	20.798347
2294.654112	-2.994900	3.213000	-9.621400	27.867428	2.605542E-5	20.781805
2295.655510	-3.013900	3.212800	-9.682500	27.808086	2.684747E-5	20.780403
2296.653647	-3.004500	3.214600	-9.657200	27.762933	2.612142E-5	20.785223
2297.652988	-2.977700	3.212100	-9.564400	27.752219	2.549438E-5	20.781080
2298.654511	-3.003900	3.210700	-9.644200	27.814985	2.519735E-5	20.802046
2299.653242	-2.978500	3.211800	-9.565500	27.793063	2.691348E-5	20.795156
2300.653683	-2.992000	3.212000	-9.608500	27.844220	2.526336E-5	20.798277
2301.655213	-3.030600	3.209600	-9.725400	27.872119	2.503234E-5	20.791268
2302.654789	-3.003000	3.210800	-9.641200	27.824781	2.622043E-5	20.780610
2303.655309	-2.998200	3.209900	-9.623000	27.879210	2.605542E-5	20.804569
2304.656759	-3.023400	3.208700	-9.699500	27.861980	2.506534E-5	20.793866
2305.657598	-2.995200	3.207800	-9.607000	27.906612	2.410827E-5	20.800854
2306.655275	-3.008300	3.208100	-9.649000	27.877575	2.503234E-5	20.781113
2307.654318	-2.997300	3.209100	-9.616600	27.844249	2.549438E-5	20.792142
2308.656025	-3.004600	3.207100	-9.635100	27.847645	2.381125E-5	20.806940
2309.655121	-3.025900	3.206500	-9.701200	27.791162	2.631944E-5	20.798459
2310.656049	-3.003100	3.205500	-9.626100	27.803858	2.585740E-5	20.797960
2311.655695	-2.993600	3.205600	-9.595800	27.773950	2.707849E-5	20.794888
2312.656582	-3.011500	3.205500	-9.652200	27.795967	2.420728E-5	20.776268
2313.656337	-3.003900	3.205100	-9.626000	27.821463	2.255716E-5	20.795762
2314.656882	-3.021600	3.203500	-9.678400	27.848440	2.374525E-5	20.798731
2315.657498	-3.013400	3.204300	-9.655200	27.922428	2.473532E-5	20.806816
2316.658059	-3.012900	3.202400	-9.647200	27.932370	2.394326E-5	20.801650
2317.659892	-2.994900	3.204600	-9.596600	27.982157	2.688048E-5	20.789174
2318.662515	-3.010400	3.200700	-9.634200	28.033330	2.539537E-5	20.806544
2319.659526	-2.990900	3.201000	-9.572500	28.005681	2.420728E-5	20.809059
2320.658535	-2.997000	3.200400	-9.590600	27.998812	2.476832E-5	20.809731
2321.662312	-2.990100	3.200400	-9.568700	27.992418	2.252416E-5	20.799976
2322.659712	-2.987200	3.200000	-9.558000	28.011182	2.146808E-5	20.808432
2323.659537	-3.009500	3.198900	-9.626200	28.045519	2.209513E-5	20.795106
2324.659749	-2.984900	3.200400	-9.551500	28.097107	2.292019E-5	20.816216
2325.662956	-2.971500	3.200500	-9.509000	28.079802	2.334922E-5	20.793581
2326.660961	-3.004300	3.197300	-9.605300	28.063685	2.206212E-5	20.813392
2327.660181	-2.992100	3.197700	-9.566600	28.018760	2.295319E-5	20.805154
2328.664558	-2.972000	3.197800	-9.503400	28.003436	2.275517E-5	20.820075
2329.660971	-2.994300	3.196700	-9.571500	28.031924	2.031299E-5	20.815086
2330.661237	-2.986100	3.196700	-9.545000	28.032317	2.262316E-5	20.816904
2331.664725	-3.009100	3.195800	-9.615500	28.009330	2.252416E-5	20.812258
2332.661805	-3.023600	3.194100	-9.657200	28.053686	2.321721E-5	20.817078
2333.662376	-2.992700	3.193800	-9.557400	28.012627	2.103905E-5	20.816051
2334.665133	-2.986300	3.194300	-9.538300	27.921137	2.110505E-5	20.825431
2335.663499	-2.984300	3.194300	-9.531200	27.847648	2.153408E-5	20.809788
2336.662328	-3.017200	3.191500	-9.627900	27.851491	2.004897E-5	20.801327
2337.665553	-3.038200	3.192100	-9.696400	27.879655	1.948793E-5	20.837259
2338.669837	-3.002300	3.191200	-9.580100	27.882257	2.156709E-5	20.826127
2339.665072	-3.021600	3.190100	-9.638500	27.925475	1.886089E-5	20.803245
2340.665349	-2.998300	3.190500	-9.565300	27.962641	2.008198E-5	20.832592
2341.667710	-3.003300	3.189100	-9.577100	27.910572	2.024699E-5	20.825228
2342.665810	-2.987600	3.189300	-9.527900	27.915504	1.952094E-5	20.819761
2343.665469	-3.001200	3.188400	-9.568700	27.916225	1.922391E-5	20.825228
2344.665981	-3.026200	3.189200	-9.650300	27.981304	1.757379E-5	20.825298
2345.665429	-3.016500	3.189500	-9.619600	28.071994	2.027999E-5	20.834559
2346.666062	-3.015400	3.187400	-9.610800	28.048717	1.965295E-5	20.830093
2347.666686	-2.998400	3.186600	-9.553900	27.993998	1.836585E-5	20.839024
2348.667027	-3.016800	3.185900	-9.610500	27.999601	1.879488E-5	20.820483
2349.667130	-3.010200	3.186500	-9.591300	28.040607	1.730977E-5	20.837102
2350.666557	-3.016100	3.184800	-9.605100	28.030420	1.810183E-5	20.829693
2351.666983	-2.985100	3.183100	-9.500800	28.007982	1.734278E-5	20.837927
2352.667217	-3.000600	3.184600	-9.555100	28.048934	1.684774E-5	20.827941
2353.667544	-3.008500	3.181800	-9.571400	28.077417	1.895989E-5	20.839543
2354.667730	-3.009800	3.181400	-9.573600	28.027737	1.787081E-5	20.839320
2355.666520	-2.998600	3.183100	-9.543300	27.990299	1.816784E-5	20.828662
2356.668108	-2.976400	3.181500	-9.467600	27.997090	1.694675E-5	20.857308
2357.667856	-2.984200	3.181500	-9.493500	28.023895	1.585767E-5	20.853470
2358.667916	-2.979300	3.180400	-9.474300	28.052330	1.823384E-5	20.838471
2359.668250	-2.985800	3.181800	-9.499900	28.093628	1.780481E-5	20.827413
2360.668245	-2.997800	3.177600	-9.524600	28.096405	1.681474E-5	20.843010
2361.666862	-2.998400	3.178400	-9.529000	28.073546	1.516462E-5	20.846078
2362.668840	-2.986700	3.178400	-9.491500	28.137084	1.556064E-5	20.835597
2363.668750	-2.955200	3.176800	-9.387200	28.105919	1.513161E-5	20.853536
2364.668649	-3.019500	3.176200	-9.589300	28.106018	1.582466E-5	20.842730
2365.669237	-3.002500	3.175500	-9.533700	28.144095	1.509861E-5	20.844078
2366.670030	-2.999000	3.174200	-9.518400	28.168464	1.569265E-5	20.833523
2367.670261	-3.006900	3.172900	-9.539400	28.190575	1.582466E-5	20.833024
2368.676179	-2.968300	3.174800	-9.422700	28.117744	1.635270E-5	20.860223
2369.670397	-2.957600	3.174700	-9.388100	28.133389	1.529663E-5	20.849421
2370.671881	-3.002000	3.171600	-9.520700	28.193769	1.493360E-5	20.840033
2371.671278	-2.983500	3.173100	-9.466700	28.252488	1.635270E-5	20.836562
2372.673482	-3.016200	3.171300	-9.563900	28.281215	1.331648E-5	20.863587
2373.675028	-3.009400	3.170700	-9.541100	28.291252	1.526362E-5	20.856624
2374.671745	-2.973800	3.169800	-9.425600	28.230132	1.575866E-5	20.868106
2375.672782	-2.993400	3.170700	-9.490400	28.177506	1.424055E-5	20.868230
2376.672715	-2.974600	3.169100	-9.425900	28.126889	1.143534E-5	20.860895
2377.672823	-3.006800	3.166800	-9.521200	28.103683	1.219440E-5	20.828052
2378.672638	-3.007000	3.167300	-9.523200	28.190689	1.196338E-5	20.852105
2379.673561	-3.021700	3.166400	-9.567300	28.236672	1.460357E-5	20.855251
2380.673249	-3.017400	3.165800	-9.551600	28.235402	1.245842E-5	20.891428
2381.675734	-2.974800	3.166000	-9.417500	28.251668	1.318447E-5	20.853754
2382.671986	-2.994600	3.166100	-9.480400	28.245841	1.136934E-5	20.872542
2383.672484	-3.012300	3.163200	-9.527700	28.222088	1.140234E-5	20.879447
2384.676775	-2.998500	3.163900	-9.485400	28.251345	1.156735E-5	20.864333
2385.673366	-3.016700	3.162800	-9.540900	28.261186	1.110532E-5	20.869499
2386.673264	-2.985300	3.161800	-9.437700	28.302128	1.047827E-5	20.856195
2387.676011	-3.003500	3.161700	-9.495500	28.272337	1.255742E-5	20.866976
2388.673557	-3.000200	3.161600	-9.484700	28.272312	1.282144E-5	20.865055
2389.672828	-2.985500	3.160700	-9.435800	28.270109	9.554203E-6	20.849561
2390.680886	-2.996500	3.160000	-9.468000	28.279499	1.024725E-5	20.863756
2391.672557	-2.996200	3.158100	-9.461400	28.267279	1.259043E-5	20.848609
2392.673010	-3.009100	3.157100	-9.499300	28.232355	1.041227E-5	20.876982
2393.674471	-2.986400	3.157100	-9.426400	28.179636	1.212839E-5	20.882226
2394.680007	-2.977800	3.156700	-9.398600	28.182212	9.125172E-6	20.873915
2395.671816	-2.997000	3.155400	-9.455800	28.238212	9.917230E-6	20.859172
2396.677377	-2.996000	3.154200	-9.449000	28.221110	9.818223E-6	20.892686
2397.672794	-3.002800	3.153200	-9.467900	28.184399	9.488198E-6	20.882754
2398.673675	-3.006500	3.154200	-9.482200	28.235853	1.097331E-5	20.878132
2399.673614	-2.986300	3.153400	-9.416300	28.237270	8.168101E-6	20.893308
2400.674381	-3.005600	3.153200	-9.476100	28.292742	9.587206E-6	20.864762
2401.678616	-3.009200	3.151800	-9.482400	28.305236	1.107231E-5	20.858850
2402.675037	-3.000000	3.149500	-9.446900	28.356045	8.696140E-6	20.869231
2403.673706	-2.973700	3.151600	-9.370700	28.315945	1.163336E-5	20.894286
2404.674193	-2.986300	3.148900	-9.403100	28.338647	9.158174E-6	20.870679
2405.674346	-3.018200	3.147200	-9.498000	28.281694	1.130333E-5	20.884457
2406.674217	-2.986000	3.148500	-9.400500	28.254822	8.201104E-6	20.886325
2407.674689	-3.013100	3.145600	-9.477300	28.263471	8.366116E-6	20.890291
2408.674515	-3.006200	3.146200	-9.457500	28.351013	7.673065E-6	20.867483
2409.683235	-3.005600	3.144100	-9.449300	28.359440	8.168101E-6	20.871701
2410.676921	-2.994400	3.144600	-9.415600	28.350517	9.818223E-6	20.888794
2411.678077	-3.008800	3.142900	-9.455600	28.258217	5.824929E-6	20.887372
2412.677896	-3.021200	3.143100	-9.494700	28.236803	6.980014E-6	20.871977
2413.675910	-2.985000	3.143100	-9.381500	28.240444	6.881007E-6	20.896978
2414.678174	-3.011700	3.140900	-9.458200	28.244432	4.999868E-6	20.882977
2415.681626	-2.972500	3.141200	-9.336100	28.229043	6.484977E-6	20.880285
2416.678976	-3.001000	3.140800	-9.424600	28.268078	6.451975E-6	20.875490
2417.682564	-3.034400	3.137200	-9.518200	28.297255	5.923936E-6	20.895382
2418.681602	-2.977000	3.138400	-9.341100	28.361147	5.824929E-6	20.908505
2419.681182	-2.970300	3.137600	-9.319000	28.325031	6.385970E-6	20.892055
2420.680485	-2.976500	3.136200	-9.334100	28.369595	6.022943E-6	20.892356
2421.687842	-2.991700	3.135900	-9.381100	28.431280	5.197883E-6	20.901838
2422.679439	-2.982100	3.134600	-9.347300	28.382907	6.451975E-6	20.906707
2423.684587	-2.989400	3.133600	-9.366900	28.438716	5.296890E-6	20.898420
2424.684432	-3.011200	3.131300	-9.427700	28.485821	5.956939E-6	20.894648
2425.683666	-2.998400	3.130700	-9.385600	28.502423	4.834856E-6	20.886238
2426.688973	-3.024300	3.129900	-9.464300	28.507627	6.451975E-6	20.890529
2427.686654	-2.983300	3.130900	-9.338900	28.496253	4.702846E-6	20.904679
2428.696515	-2.999900	3.128300	-9.383700	28.413800	3.415751E-6	20.903677
2429.693008	-3.008200	3.129100	-9.412300	28.337962	5.428900E-6	20.892273
2430.688860	-2.981600	3.128100	-9.325800	28.380118	5.956939E-6	20.889202
2431.684464	-3.023700	3.125400	-9.449600	28.409112	3.547761E-6	20.910809
2432.685988	-3.002500	3.125100	-9.381700	28.417637	5.098875E-6	20.889997
2433.687606	-3.003500	3.124300	-9.383100	28.420437	4.042798E-6	20.898981
2434.686846	-2.975500	3.124800	-9.297000	28.468166	5.923936E-6	20.898680
2435.688987	-3.029300	3.121100	-9.453300	28.468142	3.712773E-6	20.883957
2436.688305	-2.966700	3.122100	-9.260700	28.474062	3.943790E-6	20.916469
2437.688269	-3.025100	3.120100	-9.437600	28.455871	3.217737E-6	20.896256
2438.687360	-3.005400	3.120500	-9.377400	28.511229	1.798632E-6	20.892735
2439.687915	-3.002400	3.120300	-9.367600	28.519282	2.326671E-6	20.897999
2440.687728	-2.994100	3.118200	-9.336000	28.585417	2.161659E-6	20.894903
2441.689495	-3.002800	3.117500	-9.358800	28.597535	2.689698E-6	20.884823
2442.687508	-3.007900	3.115800	-9.371700	28.592381	1.006574E-6	20.892434
2443.688709	-3.007100	3.115700	-9.368500	28.578752	1.798632E-6	20.882976
2444.689894	-3.004400	3.115600	-9.359900	28.604494	1.072579E-6	20.870022
2445.690876	-2.975600	3.113600	-9.263900	28.665621	1.039577E-6	20.853828
2446.691341	-2.985200	3.113100	-9.292700	28.678975	1.600618E-6	20.874388
2447.692875	-2.981200	3.112500	-9.278300	28.571764	2.557688E-6	20.875464
2448.693844	-3.006200	3.110700	-9.350100	28.545943	1.303596E-6	20.868427
2449.693627	-3.016600	3.111100	-9.383300	28.530897	6.765498E-7	20.843792
2450.695135	-2.992200	3.109500	-9.303900	28.536744	2.194662E-6	20.881920
2451.696325	-3.006100	3.107600	-9.341200	28.528891	4.950364E-8	20.874487
2452.695997	-2.973900	3.106900	-9.238800	28.558847	1.732628E-6	20.887585
2453.702983	-2.989700	3.106400	-9.286400	28.644506	7.095522E-7	20.861484
2454.698554	-2.996100	3.106500	-9.306500	28.642971	3.135231E-7	20.881747
2455.696011	-2.983000	3.105700	-9.262600	28.666285	1.303596E-6	20.861607
2456.698553	-3.008100	3.103800	-9.335200	28.676637	1.831635E-6	20.858284
2457.698347	-2.994400	3.102200	-9.288300	28.603741	5.445401E-7	20.871160
2458.696831	-2.962800	3.103200	-9.193100	28.585626	-1.303596E-6	20.857657
2459.695606	-2.975600	3.099600	-9.222200	28.544518	4.125304E-7	20.856087
2460.698752	-2.976400	3.100300	-9.226400	28.563694	-5.445401E-7	20.880613
2461.696978	-2.986900	3.099400	-9.256600	28.571129	5.445401E-7	20.864868
2462.698815	-2.993200	3.097800	-9.271000	28.524867	4.785352E-7	20.879917
2463.697132	-2.998200	3.096100	-9.281700	28.576979	3.135231E-7	20.884509
2464.699915	-2.968800	3.095200	-9.187700	28.529153	1.567615E-6	20.850570
2465.696765	-2.987900	3.095200	-9.247400	28.539683	-1.600618E-6	20.859752
2466.698636	-3.002300	3.094500	-9.290200	28.585818	1.485109E-7	20.866385
2467.702477	-2.982100	3.094100	-9.225500	28.583714	-1.534613E-6	20.849094
2468.699328	-2.991400	3.092100	-9.249200	28.653213	-9.735717E-7	20.854606
2469.698896	-2.985600	3.090900	-9.227800	28.664815	-1.435606E-6	20.845903
2470.702583	-2.995000	3.090800	-9.255900	28.657602	1.485109E-7	20.855707
2471.697712	-2.986800	3.088800	-9.223500	28.676011	-1.485109E-7	20.840585
2472.698822	-2.986000	3.087400	-9.217800	28.680522	-5.445401E-7	20.857930
2473.701538	-2.985000	3.087100	-9.214100	28.708369	-2.887713E-6	20.867960
2474.699816	-2.990800	3.084800	-9.225400	28.683964	-1.930642E-6	20.856181
2475.698789	-2.986000	3.084600	-9.209700	28.676334	1.138584E-6	20.854186
2476.699872	-2.994800	3.082700	-9.230900	28.652075	-7.095522E-7	20.860572
2477.697226	-3.008900	3.080900	-9.268900	28.630273	-5.115377E-7	20.847622
2478.699699	-2.981800	3.081400	-9.187200	28.670607	-1.485109E-7	20.836565
2479.702731	-3.008400	3.078700	-9.261000	28.719467	-1.996647E-6	20.866336
2480.700009	-2.996200	3.078100	-9.221900	28.744837	-6.765498E-7	20.865338
2481.699557	-3.018900	3.078200	-9.291800	28.740449	-1.369601E-6	20.859022
2482.700641	-3.026000	3.075600	-9.305500	28.708934	-1.864637E-6	20.848616
2483.700130	-2.995300	3.075600	-9.212000	28.630886	1.650122E-8	20.828801
2484.700118	-2.999700	3.073500	-9.218600	28.605513	-1.864637E-6	20.845445
2485.702461	-2.970300	3.073600	-9.128800	28.656529	-1.996647E-6	20.849412
2486.701975	-3.027000	3.071100	-9.295400	28.726593	-2.755703E-6	20.852178
2487.703051	-2.991100	3.070800	-9.184200	28.737694	-1.666623E-6	20.871893
2488.702729	-3.003300	3.068700	-9.215300	28.715443	-2.854710E-6	20.848533
2489.702923	-2.972800	3.068100	-9.119800	28.693293	-1.204589E-6	20.841871
2490.703082	-2.978000	3.068300	-9.136000	28.714673	-1.204589E-6	20.848706
2491.707411	-2.986600	3.066600	-9.158300	28.741828	-2.623693E-6	20.850455
2492.703658	-3.006700	3.064800	-9.213700	28.696560	-5.775425E-7	20.838997
2493.710514	-2.968200	3.065400	-9.097800	28.735332	-1.303596E-6	20.846282
2494.714162	-3.007200	3.061900	-9.206900	28.775667	-2.194662E-6	20.840918
2495.708049	-2.984300	3.060600	-9.132800	28.772143	-2.392676E-6	20.859653
2496.709905	-2.990300	3.060000	-9.149400	28.805812	-2.095654E-6	20.841413
2497.711693	-2.972600	3.059900	-9.093900	28.833411	-1.468608E-6	20.850248
2498.708252	-2.987800	3.058300	-9.136000	28.699552	-2.590691E-6	20.833950
2499.708989	-3.006600	3.057300	-9.190900	28.698389	-3.382749E-6	20.844159
2500.712366	-2.985500	3.055200	-9.120000	28.662092	-7.755571E-7	20.844109
2501.707765	-3.023700	3.054100	-9.233500	28.755696	-2.557688E-6	20.859207
2502.710531	-2.992600	3.054500	-9.139500	28.739691	-2.293669E-6	20.850199
2503.707669	-3.003200	3.052800	-9.166900	28.693731	-3.250739E-6	20.812441
2504.706968	-3.030800	3.050100	-9.243000	28.745438	-1.798632E-6	20.832755
2505.709120	-3.045100	3.048600	-9.282700	28.697477	-4.042798E-6	20.827593
2506.710577	-3.032400	3.047700	-9.241300	28.642869	-5.395897E-6	20.810524
2507.707786	-2.993700	3.046900	-9.121200	28.693514	-4.339820E-6	20.814593
2508.711741	-2.978800	3.045900	-9.072500	28.831160	-5.445401E-7	20.836127
2509.711502	-2.995600	3.044100	-9.118100	28.861161	-4.042798E-6	20.846435
2510.709781	-3.010000	3.043600	-9.160600	28.850385	-4.801854E-6	20.825148
2511.708301	-3.001300	3.041400	-9.127000	28.881625	-3.019722E-6	20.828170
2512.708216	-2.989700	3.041900	-9.094400	28.900378	-3.844783E-6	20.824777
2513.709729	-3.005500	3.040600	-9.137500	28.894636	-5.461902E-6	20.833691
2514.709784	-2.997200	3.036700	-9.100400	28.930131	-3.646769E-6	20.838630
2515.708101	-2.990000	3.036800	-9.079100	28.924082	-4.735849E-6	20.829217
2516.708289	-2.986200	3.037400	-9.069600	28.890199	-5.857931E-6	20.828747
2517.710219	-3.005800	3.034500	-9.120600	28.896621	-4.504832E-6	20.836165
2518.709432	-3.007000	3.031500	-9.114600	28.951490	-1.699625E-6	20.825062
2519.708337	-3.003700	3.032400	-9.106600	28.811547	-4.768851E-6	20.844344
2520.708893	-2.990300	3.030700	-9.061800	28.785937	-4.570837E-6	20.829453
2521.706628	-3.001800	3.028600	-9.090600	28.863625	-4.141805E-6	20.824262
2522.711999	-2.991800	3.027800	-9.058100	28.900734	-4.801854E-6	20.815179
2523.709245	-2.990500	3.025800	-9.047500	28.962163	-5.461902E-6	20.807840
2524.710048	-3.003400	3.024100	-9.081200	29.006700	-5.098876E-6	20.821891
2525.711122	-2.994600	3.023700	-9.054100	28.958423	-4.570837E-6	20.815925
2526.712360	-3.012700	3.021800	-9.102700	28.921418	-5.989941E-6	20.837439
2527.710669	-2.994100	3.021300	-9.045200	28.908314	-5.296890E-6	20.819970
2528.711495	-3.005000	3.020500	-9.075600	28.885079	-6.253961E-6	20.825960
2529.716204	-3.005300	3.018900	-9.071000	28.855227	-5.329893E-6	20.819595
2530.710154	-3.019100	3.016500	-9.106100	28.779101	-8.498126E-6	20.824464
2531.712168	-3.019800	3.016100	-9.107400	28.742803	-4.966866E-6	20.832471
2532.710966	-2.993700	3.015800	-9.027100	28.813855	-6.220958E-6	20.816799
2533.712045	-3.012600	3.013000	-9.074900	28.827407	-5.824929E-6	20.832347
2534.713754	-2.994500	3.012600	-9.020200	28.847057	-5.857931E-6	20.819900
2535.712497	-2.968900	3.010800	-8.937500	28.810589	-6.649990E-6	20.816828
2536.712312	-2.991700	3.008400	-8.999500	28.818611	-7.013017E-6	20.818271
2537.711857	-3.013500	3.006800	-9.060500	28.849083	-6.088948E-6	20.833320
2538.724675	-3.004700	3.006000	-9.030900	28.924193	-5.659917E-6	20.824587
2539.715399	-3.012100	3.005600	-9.051900	28.953716	-5.362895E-6	20.822563
2540.715665	-3.020800	3.002600	-9.069000	28.949878	-5.131878E-6	20.813954
2541.714961	-2.994700	3.003100	-8.990600	28.928404	-7.706068E-6	20.808442
2542.715186	-3.007700	3.001100	-9.025200	28.934027	-6.815002E-6	20.806520
2543.717293	-3.007100	2.999200	-9.017600	28.928355	-7.574058E-6	20.810763
2544.716279	-2.985400	2.998100	-8.948800	28.987826	-6.154953E-6	20.816626
2545.717277	-3.004200	2.996400	-9.000800	28.982899	-6.121951E-6	20.825412
2546.714852	-2.984900	2.996200	-8.942600	28.931400	-4.735849E-6	20.818572
2547.715698	-2.975000	2.996300	-8.913000	28.873960	-7.376043E-6	20.820922
2548.714459	-2.989200	2.993100	-8.945800	28.874970	-8.828150E-6	20.821940
2549.721649	-2.981600	2.991600	-8.919600	28.863777	-8.531128E-6	20.804500
2550.715395	-2.990600	2.990700	-8.943100	28.843836	-6.121951E-6	20.809543
2551.718813	-3.007900	2.987600	-8.985900	28.795801	-6.484978E-6	20.810940
2552.717566	-2.995700	2.986800	-8.946500	28.806234	-8.696141E-6	20.815286
2553.718588	-2.999700	2.985700	-8.955000	28.805117	-9.158175E-6	20.794720
2554.720387	-2.990500	2.984800	-8.925000	28.778094	-8.432121E-6	20.819182
2555.718944	-2.981900	2.983500	-8.895600	28.797913	-8.564131E-6	20.812594
2556.719958	-3.023600	2.981400	-9.014000	28.896011	-6.517980E-6	20.794774
2557.719325	-2.999000	2.979700	-8.935400	29.010252	-7.937085E-6	20.816935
2558.721590	-3.010300	2.977800	-8.963200	29.074699	-6.815002E-6	20.788462
2559.720490	-2.982200	2.977100	-8.876900	29.002326	-5.230885E-6	20.806578
2560.720706	-3.009300	2.975400	-8.953600	28.961259	-7.211031E-6	20.787489
2561.726472	-2.980900	2.973800	-8.864100	28.987442	-8.135099E-6	20.797747
2562.722431	-2.997300	2.972000	-8.906400	29.035399	-4.042798E-6	20.790589
2563.723770	-2.969400	2.971200	-8.821600	29.032575	-8.300111E-6	20.784899
2564.721426	-2.977300	2.970000	-8.842100	29.067546	-9.818223E-6	20.823928
2565.724245	-3.013200	2.967000	-8.939600	28.985269	-7.871080E-6	20.784652
2566.722888	-3.009600	2.966400	-8.926900	28.994878	-9.554204E-6	20.791962
2567.725867	-2.990000	2.964600	-8.863400	28.977490	-5.131878E-6	20.818065
2568.725347	-2.994900	2.963900	-8.875000	29.080060	-7.310038E-6	20.795286
2569.725410	-3.010600	2.961600	-8.915700	29.103658	-8.168102E-6	20.821434
2570.725119	-2.992400	2.960700	-8.858600	29.008624	-6.980014E-6	20.809131
2571.723692	-2.987000	2.959200	-8.837800	28.999637	-7.607060E-6	20.793438
2572.725046	-2.986100	2.958000	-8.832700	29.014431	-9.752218E-6	20.796964
2573.725906	-3.004700	2.956700	-8.883300	28.991739	-8.201104E-6	20.788800
2574.725155	-2.996200	2.954100	-8.850100	28.930954	-8.003089E-6	20.782562
2575.725997	-2.995600	2.952900	-8.844300	28.946657	-7.904082E-6	20.798382
2576.724849	-3.005700	2.952600	-8.873700	29.020221	-8.135099E-6	20.786677
2577.724981	-3.004000	2.949300	-8.858700	29.086947	-7.607060E-6	20.784681
2578.723713	-2.984100	2.947100	-8.793800	29.116768	-6.980014E-6	20.792445
2579.725784	-3.002400	2.947000	-8.847100	29.129694	-6.715995E-6	20.785081
2580.725710	-3.001000	2.944200	-8.835100	29.122886	-8.663138E-6	20.782962
2581.732399	-2.993200	2.943500	-8.809600	29.020000	-8.267109E-6	20.799256
2582.736167	-3.005600	2.940200	-8.836500	28.971973	-9.521201E-6	20.783110
2583.725743	-2.984100	2.940600	-8.773800	28.960232	-8.729143E-6	20.792144
2584.724952	-3.020700	2.939000	-8.876500	29.022055	-8.300111E-6	20.783782
2585.731895	-2.992900	2.936200	-8.787000	29.039569	-9.686214E-6	20.791472
2586.727729	-3.000600	2.934000	-8.803000	29.052746	-7.640063E-6	20.793368
2587.727449	-2.993700	2.934100	-8.783000	28.981979	-9.653211E-6	20.765216
2588.735062	-2.998000	2.932400	-8.789900	29.000108	-6.947012E-6	20.771153
2589.727330	-3.010100	2.930200	-8.818600	29.040134	-1.004924E-5	20.802472
2590.728583	-2.994700	2.928300	-8.768500	29.056580	-7.541055E-6	20.792016
2591.728868	-3.006800	2.928500	-8.804300	29.042609	-9.224179E-6	20.786000
2592.728074	-3.006300	2.924900	-8.792500	29.075747	-9.752218E-6	20.792836
2593.727442	-2.990700	2.924600	-8.745300	29.071413	-7.508053E-6	20.804591
2594.729865	-3.015900	2.922000	-8.811900	29.032776	-7.904082E-6	20.771825
2595.729270	-3.015900	2.920500	-8.807400	29.031933	-1.031326E-5	20.794684
2596.728558	-3.014700	2.917300	-8.793400	29.084786	-9.191177E-6	20.802418
2597.729303	-3.004300	2.918000	-8.765700	29.071286	-7.343041E-6	20.785971
2598.730189	-2.972400	2.917000	-8.669600	29.017639	-9.851226E-6	20.771747
2599.731614	-2.985100	2.913700	-8.696600	29.005894	-1.001624E-5	20.797372
2600.732734	-2.975100	2.912900	-8.665400	28.964901	-7.772072E-6	20.767924
2601.730547	-3.021300	2.909500	-8.789700	28.960015	-7.673065E-6	20.754940
2602.730670	-2.985900	2.907200	-8.679200	28.959000	-9.323187E-6	20.793747
2603.732779	-2.997000	2.906400	-8.708800	29.012847	-8.663138E-6	20.786833
2604.733197	-2.980500	2.905200	-8.658000	29.103400	-5.692919E-6	20.766172
2605.732577	-3.036100	2.902300	-8.810100	29.147873	-8.168102E-6	20.775424
2606.734670	-2.997800	2.901300	-8.697100	29.118429	-5.824929E-6	20.780368
2607.734284	-3.006100	2.898200	-8.711500	29.116469	-8.630136E-6	20.792617
2608.732760	-3.000100	2.896300	-8.688700	29.195647	-9.191177E-6	20.765718
2609.737041	-3.000100	2.895100	-8.683800	29.256359	-8.564131E-6	20.775692
2610.734058	-3.003500	2.893100	-8.688500	29.240043	-6.319965E-6	20.773948
2611.736398	-3.000000	2.892100	-8.675400	29.213445	-7.211031E-6	20.783654
2612.740499	-2.977000	2.890400	-8.603200	29.189125	-1.021425E-5	20.775741
2613.738038	-2.981400	2.888900	-8.611700	29.229581	-8.531128E-6	20.775733
2614.740191	-2.993900	2.885800	-8.638900	29.163908	-7.838077E-6	20.781151
2615.744625	-2.972300	2.885900	-8.576700	29.199620	-8.399119E-6	20.765928
2616.743124	-3.015000	2.881600	-8.687600	29.209742	-7.508053E-6	20.779922
2617.739741	-3.009500	2.880800	-8.668800	29.171012	-8.267109E-6	20.775506
2618.743243	-2.997700	2.879200	-8.629700	29.182525	-9.950233E-6	20.765771
2619.742861	-2.985300	2.878000	-8.591000	29.205327	-8.102097E-6	20.772628
2620.744300	-3.014200	2.874700	-8.663900	29.224991	-8.630136E-6	20.762098
2621.746402	-2.990500	2.873500	-8.592400	29.266988	-8.498126E-6	20.789723
2622.743545	-3.005300	2.872400	-8.631900	29.349440	-7.442048E-6	20.773247
2623.745557	-3.003100	2.870300	-8.619100	29.274856	-7.442048E-6	20.763986
2624.747860	-3.018600	2.867900	-8.655900	29.221865	-9.818223E-6	20.766060
2625.743656	-3.024700	2.865700	-8.666500	29.172730	-6.517980E-6	20.777712
2626.746371	-2.999400	2.863100	-8.586200	29.125151	-7.574058E-6	20.753950
2627.748726	-3.005500	2.862400	-8.602200	29.053845	-8.729143E-6	20.767923
2628.745087	-3.025500	2.859400	-8.650600	29.133568	-9.191177E-6	20.752000
2629.746689	-3.023400	2.856600	-8.635900	29.219705	-1.008224E-5	20.768624
2630.750097	-2.978900	2.855300	-8.505200	29.277621	-8.432121E-6	20.767247
2631.746290	-3.000900	2.854500	-8.565100	29.350839	-6.649990E-6	20.766122
2632.746473	-2.997200	2.851700	-8.545400	29.393232	-8.729143E-6	20.788935
2633.748544	-3.004100	2.850300	-8.561200	29.454899	-9.125172E-6	20.755785
2634.746532	-3.007000	2.846700	-8.559600	29.489291	-6.848004E-6	20.765796
2635.746267	-3.040300	2.843700	-8.644400	29.546498	-7.871080E-6	20.772253
2636.747637	-3.020900	2.845100	-8.593500	29.573386	-9.257182E-6	20.750045
2637.747175	-3.015000	2.840400	-8.562600	29.518549	-9.950233E-6	20.747872
2638.745591	-3.023200	2.838800	-8.581200	29.366924	-9.026165E-6	20.754358
2639.747106	-3.006900	2.836000	-8.527100	29.365914	-8.366116E-6	20.729157
2640.746899	-3.029500	2.833900	-8.584600	29.338001	-1.153435E-5	20.752709
2641.747377	-3.028900	2.832700	-8.579300	29.294325	-1.100631E-5	20.733820
2642.746120	-3.021200	2.829700	-8.547400	29.326539	-8.828150E-6	20.754906
2643.746994	-2.995900	2.828300	-8.471500	29.401565	-1.021425E-5	20.756082
2644.747184	-3.013600	2.826000	-8.515900	29.432883	-6.881007E-6	20.749715
2645.751184	-3.017200	2.823100	-8.517400	29.467542	-7.805075E-6	20.743398
2646.748314	-2.995100	2.821600	-8.450000	29.439989	-9.620209E-6	20.757826
2647.749809	-2.992500	2.818500	-8.432200	29.394877	-9.323187E-6	20.764514
2648.754455	-3.018800	2.816900	-8.502900	29.412434	-9.785221E-6	20.765614
2649.749143	-3.026700	2.812300	-8.511200	29.461353	-9.092170E-6	20.772723
2650.749320	-3.033100	2.809700	-8.520500	29.467399	-1.094031E-5	20.755583
2651.753571	-3.011200	2.808400	-8.455900	29.400821	-9.125172E-6	20.743477
2652.748733	-3.012800	2.806300	-8.453600	29.338177	-9.092170E-6	20.756679
2653.749141	-3.020800	2.803300	-8.467400	29.335555	-8.399119E-6	20.744553
2654.754428	-2.974300	2.803000	-8.336500	29.415281	-8.366116E-6	20.739086
2655.750762	-3.011400	2.797800	-8.424200	29.493844	-8.597133E-6	20.755686
2656.749108	-3.007900	2.796300	-8.410400	29.590990	-6.319965E-6	20.751670
2657.756566	-3.011600	2.792100	-8.408100	29.478942	-8.003089E-6	20.766744
2658.751194	-3.017500	2.789600	-8.417100	29.443858	-8.729143E-6	20.758407
2659.753926	-3.031800	2.786600	-8.447900	29.489271	-6.616987E-6	20.750602
2660.754213	-3.031200	2.783300	-8.436400	29.542228	-8.795148E-6	20.745662
2661.753167	-2.998700	2.781100	-8.338200	29.519801	-8.564131E-6	20.750557
2662.749773	-3.020200	2.778000	-8.388600	29.433521	-8.630136E-6	20.751307
2663.755104	-2.994600	2.775600	-8.310800	29.405742	-9.224179E-6	20.754127
2664.750853	-2.994800	2.772300	-8.301800	29.454146	-6.154953E-6	20.760716
2665.750059	-3.001300	2.769100	-8.309800	29.507898	-8.993162E-6	20.749938
2666.754889	-3.002300	2.767200	-8.306900	29.484432	-8.564131E-6	20.749518
2667.751220	-3.024500	2.764700	-8.361000	29.583734	-6.550982E-6	20.747675
2668.767136	-3.026100	2.760200	-8.351400	29.580863	-7.079021E-6	20.742409
2669.756330	-2.977500	2.758300	-8.212400	29.559946	-9.554204E-6	20.740764
2670.753233	-2.987600	2.755100	-8.228800	29.459587	-8.630136E-6	20.741069
2671.753532	-3.031700	2.750200	-8.337100	29.474685	-6.782000E-6	20.763875
2672.756271	-3.013200	2.747300	-8.277300	29.489046	-9.719216E-6	20.756065
2673.752573	-3.001000	2.744200	-8.233900	29.524280	-9.257182E-6	20.755546
2674.756436	-2.999200	2.742500	-8.224600	29.528317	-9.290184E-6	20.749184
2675.756156	-3.012500	2.737600	-8.245800	29.505890	-8.564131E-6	20.728473
2676.752770	-2.982600	2.734700	-8.155900	29.552830	-7.871080E-6	20.740228
2677.758002	-2.973900	2.732100	-8.123000	29.577387	-9.092170E-6	20.759294
2678.759294	-3.006100	2.728100	-8.199700	29.542015	-8.069094E-6	20.747345
2679.757152	-2.986800	2.724500	-8.136700	29.525650	-8.498126E-6	20.736064
2680.758006	-2.983200	2.722200	-8.119800	29.491635	-6.715995E-6	20.751089
2681.761262	-3.019900	2.716900	-8.203800	29.555857	-8.663138E-6	20.749918
2682.756138	-2.980100	2.714300	-8.087900	29.518926	-6.715995E-6	20.753468
2683.757518	-2.986500	2.710200	-8.093100	29.531303	-7.409046E-6	20.754565
2684.760321	-2.944700	2.707800	-7.972500	29.498724	-7.541055E-6	20.750174
2685.754889	-3.000800	2.702300	-8.108100	29.554253	-7.937085E-6	20.735499
2686.757166	-2.974600	2.698700	-8.026400	29.594708	-7.871080E-6	20.753048
2687.759858	-2.990500	2.693900	-8.055000	29.530465	-8.432121E-6	20.745185
2688.758788	-3.018700	2.688900	-8.115600	29.586545	-7.937085E-6	20.758569
2689.761222	-3.009800	2.686700	-8.085000	29.683727	-6.121951E-6	20.759340
2690.761072	-2.982000	2.682000	-7.996500	29.685731	-8.696141E-6	20.739548
2691.763965	-3.007600	2.677300	-8.051200	29.713630	-7.607060E-6	20.757719
2692.761765	-3.034300	2.672000	-8.106600	29.720513	-7.508053E-6	20.739453
2693.761606	-3.011900	2.668700	-8.037000	29.769176	-8.498126E-6	20.752285
2694.759951	-2.996300	2.664600	-7.982800	29.732323	-9.587206E-6	20.758074
2695.763104	-2.989700	2.661200	-7.954700	29.788609	-1.087430E-5	20.752710
2696.764168	-3.037200	2.653600	-8.057700	29.771483	-8.168102E-6	20.758676
2697.758796	-2.995000	2.650900	-7.938800	29.760569	-7.706068E-6	20.748145
2698.762946	-2.983000	2.647200	-7.895600	29.746661	-9.554204E-6	20.730803
2699.766841	-3.000400	2.641800	-7.925600	29.717233	-7.904082E-6	20.733850
2700.760557	-3.012200	2.635900	-7.939200	29.702850	-8.003089E-6	20.762973
2701.762836	-2.998400	2.631900	-7.890300	29.688193	-6.088948E-6	20.750092
2702.763000	-3.014900	2.626200	-7.916600	29.705251	-7.376043E-6	20.750694
2703.758961	-2.981200	2.622200	-7.816300	29.694483	-6.881007E-6	20.765917
2704.765016	-2.992200	2.616900	-7.829700	29.724087	-6.319965E-6	20.746925
2705.762826	-3.069600	2.607900	-8.004200	29.811018	-8.069094E-6	20.754442
2706.769102	-3.013500	2.605100	-7.849800	29.843166	-8.432121E-6	20.750347
2707.760479	-2.980800	2.601500	-7.753000	29.893186	-8.234107E-6	20.767121
2708.763973	-3.001400	2.595900	-7.790500	29.897095	-6.848004E-6	20.763476
2709.761918	-3.024700	2.588600	-7.829000	29.914145	-7.739070E-6	20.765022
2710.763934	-3.014000	2.583000	-7.784200	29.926149	-8.861153E-6	20.758635
2711.762012	-3.003700	2.577700	-7.741800	29.894699	-7.211031E-6	20.770069
2712.762052	-3.000500	2.571800	-7.715700	29.819535	-9.323187E-6	20.782945
2713.765718	-2.981900	2.566300	-7.651800	29.896878	-7.706068E-6	20.768473
2714.768867	-3.014900	2.559700	-7.716100	29.980225	-7.409046E-6	20.754372
2715.762076	-3.015700	2.554000	-7.700700	29.974857	-5.329893E-6	20.746113
2716.763403	-2.993300	2.547600	-7.625000	29.953155	-7.079021E-6	20.769747
2717.768600	-2.968100	2.542100	-7.544100	29.916234	-7.409046E-6	20.741050
2718.763157	-2.998300	2.536200	-7.603900	29.906630	-8.762145E-6	20.768350
2719.766850	-2.978200	2.530900	-7.537000	29.874508	-6.121951E-6	20.756821
2720.767036	-3.015600	2.521800	-7.604500	29.885503	-8.828150E-6	20.763641
2721.769184	-2.993600	2.516300	-7.530800	29.841146	-8.333114E-6	20.751156
2722.767828	-3.013600	2.509800	-7.561500	29.888443	-7.574058E-6	20.764235
2723.768868	-3.008900	2.503200	-7.531500	29.973528	-3.745776E-6	20.774172
2724.765062	-3.007500	2.496900	-7.508700	30.097399	-5.923936E-6	20.760644
