LabVIEW Measurement	
Writer_Version	2
Reader_Version	2
Separator	Tab
Decimal_Separator	.
Multi_Headings	No
X_Columns	One
Time_Pref	Absolute
Operator	admin
Description	Clolumns are: time, Current, Voltage, Power, Battery Temp, and Chamber Temp
Date	2024/08/16
Time	13:07:17.8513970375061035156
***End_of_Header***	
	
Channels	6						
Samples	1	1	1	1	1	1	
Date	2024/09/19	2024/09/19	2024/09/19	2024/09/19	2024/09/19	2024/09/19	
Time	23:45:39.4020776748657226563	23:45:39.4080710411071777344	23:45:39.4139609336853027344	23:45:39.3855834007263183594	23:45:39.3855834007263183594	23:45:39.3855834007263183594	
X_Dimension	Time	Time	Time	Time	Time	Time	
X0	0.0000000000000000E+0	0.0000000000000000E+0	0.0000000000000000E+0	0.0000000000000000E+0	0.0000000000000000E+0	0.0000000000000000E+0	
Delta_X	1.000000	1.000000	1.000000	1.000000	1.000000	1.000000	
***End_of_Header***							
X_Value	Untitled	Untitled 1	Untitled 2	Untitled 3	Untitled 4	Untitled 5	Comment
0.000000	0.006552	4.086600	0.026959	20.848153	0.000475	20.856214
0.998817	-2.988200	3.912200	-11.689000	20.862851	0.000471	20.835826
1.998540	-2.976000	3.906700	-11.626000	20.850769	0.000473	20.821846
2.999233	-2.998300	3.901400	-11.696000	20.856217	0.000470	20.832510
4.003789	-3.007100	3.898100	-11.722000	20.866093	0.000471	20.830533
5.001093	-3.011800	3.897600	-11.738000	20.887552	0.000470	20.825915
5.999343	-3.017900	3.892900	-11.748000	20.869988	0.000468	20.848178
7.005339	-3.014200	3.890800	-11.727000	20.864593	0.000469	20.851791
8.001754	-2.981500	3.890700	-11.598000	20.875002	0.000468	20.829011
9.002191	-2.997400	3.887700	-11.653000	20.889923	0.000467	20.826864
10.001389	-2.971000	3.886200	-11.545000	20.907790	0.000464	20.836198
11.002527	-3.001800	3.885400	-11.663000	20.909213	0.000465	20.820551
12.007138	-3.003000	3.881600	-11.655000	20.902628	0.000466	20.828190
12.999962	-2.999000	3.880900	-11.638000	20.901723	0.000465	20.817802
14.004185	-3.028700	3.879700	-11.749000	20.929224	0.000465	20.830607
15.003432	-3.028500	3.878900	-11.746000	20.921338	0.000463	20.810867
16.005119	-3.006800	3.878500	-11.661000	20.922286	0.000465	20.831255
17.000845	-3.010900	3.877800	-11.675000	20.951407	0.000463	20.821025
18.005903	-3.006100	3.876400	-11.652000	20.954676	0.000460	20.809596
19.006826	-2.987900	3.876200	-11.580000	20.970244	0.000463	20.824691
20.009939	-2.979100	3.875800	-11.545000	20.980426	0.000460	20.806900
21.007299	-2.988600	3.873200	-11.575000	20.987187	0.000461	20.839740
22.005759	-2.991300	3.872900	-11.584000	20.993976	0.000461	20.836099
23.003179	-2.995100	3.872300	-11.597000	21.011941	0.000461	20.813764
24.005788	-3.010200	3.871800	-11.654000	21.011064	0.000460	20.811465
25.008725	-3.020500	3.872200	-11.695000	21.020874	0.000459	20.819854
26.005731	-3.003900	3.870900	-11.627000	21.032998	0.000459	20.822971
27.012033	-3.000600	3.870700	-11.614000	21.024338	0.000460	20.798663
28.007425	-3.015400	3.869800	-11.668000	21.023492	0.000459	20.805403
29.008831	-3.017000	3.870300	-11.676000	21.056976	0.000458	20.806178
30.009033	-3.007400	3.868900	-11.634000	21.072418	0.000458	20.808821
31.010959	-3.022600	3.868100	-11.690000	21.069670	0.000457	20.826461
32.008916	-3.010500	3.869000	-11.647000	21.088715	0.000460	20.789561
33.006074	-3.014600	3.868000	-11.660000	21.104826	0.000458	20.831280
34.012067	-3.025500	3.866400	-11.697000	21.102131	0.000457	20.813411
35.006962	-3.002900	3.867500	-11.613000	21.108469	0.000458	20.813588
36.007826	-3.000400	3.866100	-11.599000	21.100755	0.000457	20.821518
37.018638	-2.980400	3.866400	-11.521000	21.118247	0.000455	20.812463
38.009945	-3.018600	3.863900	-11.663000	21.125857	0.000456	20.822919
39.008657	-3.003900	3.865600	-11.611000	21.126182	0.000458	20.815184
40.021093	-2.986500	3.865100	-11.542000	21.165299	0.000457	20.792198
41.013773	-2.984100	3.865200	-11.534000	21.163551	0.000456	20.833598
42.012921	-2.991600	3.863400	-11.556000	21.163028	0.000454	20.808419
43.018047	-2.991800	3.863300	-11.558000	21.175250	0.000455	20.807842
44.015471	-2.977100	3.863300	-11.501000	21.183955	0.000455	20.796636
45.010816	-3.002700	3.862300	-11.596000	21.195755	0.000456	20.799906
46.018636	-2.985000	3.863700	-11.533000	21.213615	0.000454	20.797857
47.015976	-3.008000	3.862000	-11.616000	21.201542	0.000455	20.785780
48.017710	-3.003100	3.861800	-11.596000	21.210598	0.000455	20.803848
49.018683	-2.989500	3.862500	-11.546000	21.228333	0.000454	20.807839
50.015704	-2.972900	3.862800	-11.483000	21.238488	0.000456	20.809937
51.020526	-2.967900	3.863000	-11.464000	21.260864	0.000454	20.794863
52.020182	-2.996900	3.861500	-11.572000	21.243277	0.000453	20.806193
53.013788	-3.004400	3.859700	-11.594000	21.273558	0.000455	20.790020
54.013421	-2.973500	3.862300	-11.484000	21.264228	0.000455	20.805341
55.015341	-2.989700	3.860700	-11.541000	21.284785	0.000454	20.815001
56.016378	-3.007000	3.858900	-11.602000	21.293539	0.000452	20.800051
57.018129	-2.985900	3.861100	-11.528000	21.302693	0.000451	20.798778
58.015133	-2.986700	3.860200	-11.528000	21.294735	0.000452	20.799825
59.019135	-2.982700	3.860800	-11.515000	21.309700	0.000455	20.808633
60.020180	-3.032400	3.857300	-11.695000	21.344597	0.000451	20.802295
61.020356	-3.014800	3.858500	-11.631000	21.343399	0.000452	20.797302
62.025502	-3.011100	3.859200	-11.620000	21.340856	0.000453	20.791913
63.019041	-3.005500	3.858700	-11.596000	21.358487	0.000452	20.789164
64.016057	-2.997000	3.858800	-11.564000	21.361083	0.000452	20.791287
65.016207	-3.012500	3.858500	-11.623000	21.385528	0.000452	20.782080
66.021863	-2.996000	3.858200	-11.558000	21.391562	0.000453	20.784798
67.019842	-3.015900	3.857500	-11.632000	21.392761	0.000454	20.784575
68.021689	-2.994400	3.858900	-11.553000	21.403459	0.000450	20.803339
69.019614	-2.980700	3.857000	-11.496000	21.399594	0.000453	20.790463
70.018574	-2.984400	3.857200	-11.510000	21.415979	0.000453	20.773666
71.023055	-2.980100	3.857500	-11.494000	21.417899	0.000454	20.799769
72.021253	-2.983200	3.856200	-11.502000	21.432188	0.000452	20.788461
73.016881	-3.015800	3.855400	-11.626000	21.455733	0.000454	20.808701
74.022463	-3.012000	3.855900	-11.613000	21.445258	0.000452	20.798220
75.016083	-2.982900	3.856500	-11.503000	21.444611	0.000453	20.797572
76.017179	-3.000400	3.854300	-11.563000	21.461222	0.000455	20.783846
77.016490	-3.012200	3.855600	-11.612000	21.485213	0.000453	20.783670
78.021677	-3.004000	3.854600	-11.578000	21.506512	0.000452	20.778429
79.017446	-3.016600	3.855700	-11.630000	21.509554	0.000453	20.776257
80.022480	-3.015500	3.854200	-11.621000	21.522998	0.000454	20.792081
81.023870	-2.998500	3.855000	-11.559000	21.510027	0.000451	20.782895
82.020792	-2.966200	3.855100	-11.434000	21.510749	0.000453	20.768918
83.021201	-2.999600	3.854200	-11.561000	21.535213	0.000453	20.788182
84.022147	-3.001400	3.854300	-11.568000	21.536560	0.000453	20.786211
85.022513	-2.993800	3.853200	-11.535000	21.544368	0.000454	20.776006
86.020261	-2.992600	3.852700	-11.529000	21.587614	0.000455	20.773288
87.020401	-2.984300	3.854300	-11.501000	21.549103	0.000454	20.786908
88.022523	-3.002300	3.852700	-11.566000	21.556062	0.000454	20.797191
89.022530	-3.010800	3.852600	-11.598000	21.609255	0.000455	20.772659
90.021646	-3.013700	3.852800	-11.609000	21.610553	0.000456	20.793398
91.026071	-2.993900	3.854400	-11.538000	21.598807	0.000456	20.796816
92.020270	-3.003300	3.851800	-11.568000	21.615567	0.000455	20.785613
93.027277	-3.028900	3.852900	-11.669000	21.616809	0.000455	20.776899
94.024204	-3.021100	3.852700	-11.639000	21.639155	0.000455	20.776502
95.026134	-2.976000	3.852700	-11.464000	21.637334	0.000454	20.789853
96.022948	-2.995000	3.853700	-11.541000	21.640453	0.000455	20.783016
97.024895	-2.995500	3.851900	-11.538000	21.643169	0.000455	20.785260
98.024015	-2.987400	3.852900	-11.509000	21.656160	0.000456	20.773130
99.027430	-2.986600	3.854000	-11.509000	21.652493	0.000455	20.771357
100.024518	-3.002200	3.851100	-11.561000	21.664539	0.000455	20.770136
101.027746	-3.014900	3.850500	-11.608000	21.681246	0.000455	20.781166
102.024318	-2.999100	3.850900	-11.549000	21.695757	0.000457	20.780989
103.027847	-3.012300	3.851600	-11.601000	21.705285	0.000457	20.778671
104.030159	-2.983400	3.850400	-11.486000	21.717480	0.000458	20.788505
105.027124	-3.012000	3.850400	-11.596000	21.723434	0.000456	20.776446
106.024864	-2.988100	3.850800	-11.505000	21.734080	0.000458	20.773824
107.028734	-2.989400	3.850900	-11.511000	21.733684	0.000455	20.770108
108.030155	-3.026900	3.849100	-11.650000	21.738422	0.000458	20.779118
109.028797	-3.005700	3.850200	-11.572000	21.776075	0.000458	20.771283
110.028449	-2.973800	3.850300	-11.449000	21.772461	0.000458	20.747277
111.028827	-2.991300	3.850300	-11.517000	21.767021	0.000457	20.774075
112.029181	-3.010000	3.849900	-11.587000	21.775198	0.000460	20.759500
113.029110	-3.010000	3.849000	-11.584000	21.794371	0.000460	20.762568
114.031183	-3.009900	3.849800	-11.585000	21.802574	0.000459	20.775520
115.027635	-3.015000	3.848400	-11.602000	21.807137	0.000457	20.769656
116.036882	-3.032900	3.847700	-11.669000	21.848151	0.000458	20.767558
117.029414	-2.986500	3.848100	-11.491000	21.826161	0.000461	20.742229
118.028149	-3.018800	3.849100	-11.619000	21.837057	0.000460	20.764989
119.034947	-3.032000	3.848300	-11.666000	21.856978	0.000460	20.752211
120.034534	-2.983100	3.848600	-11.479000	21.871561	0.000460	20.765860
121.032433	-2.985900	3.847600	-11.488000	21.862935	0.000461	20.760545
122.038606	-2.996300	3.847400	-11.527000	21.879713	0.000459	20.756001
123.034513	-2.993500	3.846900	-11.515000	21.892101	0.000458	20.745167
124.033429	-2.989500	3.847400	-11.501000	21.900655	0.000460	20.763687
125.036164	-2.998500	3.848500	-11.539000	21.907436	0.000462	20.768578
126.032455	-3.003900	3.848100	-11.559000	21.909408	0.000462	20.757275
127.030952	-3.008600	3.847900	-11.576000	21.919653	0.000460	20.745718
128.032835	-2.988700	3.848100	-11.500000	21.904445	0.000461	20.755152
129.033882	-3.020900	3.846500	-11.619000	21.926309	0.000463	20.745269
130.035500	-3.007300	3.846000	-11.565000	21.939424	0.000462	20.749862
131.045887	-2.995400	3.846000	-11.519000	21.950990	0.000462	20.737732
132.037372	-2.984000	3.848400	-11.482000	21.954356	0.000462	20.777137
133.037559	-2.990000	3.847100	-11.502000	21.960588	0.000463	20.759194
134.036871	-2.979600	3.846500	-11.459000	21.970730	0.000463	20.763182
135.035366	-2.991300	3.845800	-11.502000	21.961331	0.000463	20.742867
136.037184	-3.026300	3.844600	-11.634000	21.976067	0.000464	20.757145
137.035353	-3.018400	3.845400	-11.605000	21.980655	0.000464	20.752729
138.044296	-2.991900	3.846000	-11.506000	22.029191	0.000464	20.773341
139.037978	-3.027900	3.844600	-11.640000	22.039636	0.000463	20.761512
140.037932	-2.992700	3.845400	-11.507000	22.014332	0.000464	20.764155
141.036859	-3.000500	3.844400	-11.534000	22.038664	0.000465	20.753426
142.038390	-2.998000	3.845100	-11.525000	22.050004	0.000464	20.754821
143.036703	-2.990200	3.846200	-11.500000	22.061618	0.000464	20.744163
144.036493	-3.009900	3.844700	-11.571000	22.043196	0.000464	20.723349
145.035476	-3.015000	3.844500	-11.589000	22.039831	0.000464	20.747956
146.036656	-3.010700	3.844900	-11.575000	22.070714	0.000464	20.723869
147.038614	-2.999600	3.843000	-11.527000	22.075874	0.000464	20.757012
148.036707	-2.997100	3.844500	-11.521000	22.086192	0.000464	20.765445
149.037874	-3.018300	3.844300	-11.602000	22.111194	0.000465	20.767717
150.040463	-2.999900	3.843800	-11.530000	22.124053	0.000467	20.746925
151.040252	-3.007500	3.842400	-11.555000	22.136066	0.000467	20.754685
152.041393	-2.993500	3.842000	-11.500000	22.120388	0.000468	20.761748
153.038681	-2.991300	3.843600	-11.497000	22.146585	0.000465	20.746249
154.039447	-2.992200	3.842700	-11.497000	22.128560	0.000469	20.753808
155.040477	-2.995600	3.842000	-11.508000	22.128962	0.000469	20.730976
156.039183	-2.982100	3.843500	-11.461000	22.139230	0.000467	20.749317
157.037636	-2.983400	3.842100	-11.462000	22.173106	0.000466	20.735343
158.040360	-2.989900	3.843000	-11.489000	22.163882	0.000470	20.768783
159.041062	-3.011500	3.841100	-11.566000	22.171134	0.000467	20.742852
160.037117	-2.991800	3.842100	-11.494000	22.155354	0.000468	20.746494
161.042710	-3.004700	3.840800	-11.539000	22.192520	0.000470	20.753833
162.039881	-2.985600	3.841500	-11.469000	22.196380	0.000468	20.740153
163.039317	-3.000900	3.840400	-11.524000	22.193715	0.000470	20.745071
164.043170	-2.998100	3.840600	-11.514000	22.217988	0.000471	20.758943
165.039521	-3.002500	3.839800	-11.528000	22.213775	0.000471	20.757571
166.041466	-3.010600	3.839800	-11.559000	22.244383	0.000469	20.744120
167.045669	-2.984400	3.840900	-11.462000	22.261728	0.000470	20.740624
168.040078	-3.005500	3.839600	-11.540000	22.275783	0.000472	20.739524
169.039104	-3.009500	3.839600	-11.554000	22.238995	0.000472	20.727819
170.045491	-3.002000	3.838600	-11.522000	22.278225	0.000474	20.751453
171.048983	-3.004900	3.838700	-11.535000	22.243557	0.000471	20.739974
172.041413	-3.005100	3.839100	-11.536000	22.265040	0.000474	20.753898
173.043032	-3.005500	3.839800	-11.540000	22.262744	0.000472	20.764401
174.046407	-2.972700	3.841300	-11.418000	22.286573	0.000473	20.734680
175.041842	-2.994200	3.838200	-11.492000	22.294598	0.000475	20.738923
176.044756	-3.020600	3.838700	-11.594000	22.332654	0.000474	20.729613
177.043419	-3.022700	3.838100	-11.600000	22.332455	0.000472	20.752649
178.042501	-3.016300	3.837200	-11.572000	22.331456	0.000474	20.750700
179.041937	-3.024000	3.836600	-11.600000	22.362036	0.000476	20.750502
180.040795	-3.001600	3.836700	-11.515000	22.343990	0.000476	20.757562
181.047028	-2.999200	3.838500	-11.511000	22.365348	0.000475	20.741489
182.043583	-3.035300	3.836000	-11.641000	22.369287	0.000473	20.759660
183.045037	-2.987300	3.837200	-11.461000	22.368214	0.000475	20.756214
184.042686	-2.993000	3.837500	-11.484000	22.380648	0.000474	20.754915
185.043091	-2.986400	3.836300	-11.456000	22.380750	0.000478	20.754543
186.049963	-3.004300	3.835800	-11.523000	22.410800	0.000477	20.750970
187.042606	-3.013300	3.835200	-11.556000	22.417005	0.000478	20.764770
188.041899	-3.008400	3.836300	-11.540000	22.430238	0.000476	20.749098
189.044358	-2.983400	3.836800	-11.446000	22.459621	0.000479	20.749600
190.045099	-3.007800	3.835600	-11.536000	22.460741	0.000477	20.759257
191.046033	-2.996800	3.834700	-11.491000	22.441252	0.000479	20.751119
192.045847	-2.991800	3.836500	-11.476000	22.439958	0.000479	20.746030
193.045264	-2.977300	3.835900	-11.420000	22.453014	0.000478	20.741087
194.046890	-3.003400	3.834000	-11.515000	22.460466	0.000480	20.756136
195.042940	-3.000800	3.835000	-11.507000	22.466621	0.000480	20.744756
196.044433	-2.994100	3.833800	-11.478000	22.467642	0.000480	20.754788
197.044651	-2.984300	3.835200	-11.445000	22.488323	0.000481	20.750369
198.045566	-2.990300	3.834100	-11.464000	22.498064	0.000480	20.758228
199.043632	-2.992600	3.834800	-11.475000	22.499113	0.000480	20.747899
200.044746	-3.001800	3.833400	-11.506000	22.501827	0.000481	20.758204
201.045679	-2.998900	3.834700	-11.499000	22.522736	0.000482	20.748798
202.045018	-2.993000	3.833700	-11.473000	22.534068	0.000483	20.760147
203.048204	-3.012700	3.832300	-11.544000	22.528263	0.000484	20.748643
204.047585	-3.017700	3.833400	-11.567000	22.525323	0.000482	20.749492
205.049634	-3.013400	3.833800	-11.552000	22.522136	0.000481	20.751041
206.049870	-2.996300	3.832000	-11.481000	22.534467	0.000480	20.749167
207.048478	-3.009000	3.832200	-11.530000	22.558983	0.000483	20.759496
208.044714	-2.995500	3.832400	-11.479000	22.580584	0.000485	20.739404
209.048258	-3.016500	3.831900	-11.559000	22.557238	0.000484	20.757748
210.049438	-3.014800	3.832900	-11.554000	22.542986	0.000484	20.752483
211.044429	-3.019000	3.831700	-11.567000	22.546250	0.000483	20.750062
212.049129	-2.990400	3.830900	-11.455000	22.586213	0.000484	20.759741
213.048568	-3.005300	3.830800	-11.512000	22.593438	0.000485	20.762710
214.048427	-2.973700	3.832500	-11.396000	22.593441	0.000485	20.750859
215.050441	-3.006400	3.830900	-11.517000	22.620774	0.000487	20.764960
216.048445	-2.999200	3.831700	-11.491000	22.634401	0.000486	20.758220
217.046529	-2.988000	3.829700	-11.442000	22.661882	0.000487	20.761089
218.050929	-2.975000	3.832000	-11.400000	22.633726	0.000485	20.749009
219.058056	-2.992800	3.831000	-11.465000	22.658791	0.000487	20.743294
220.052420	-3.016400	3.830100	-11.552000	22.678524	0.000488	20.746939
221.047027	-3.014800	3.829500	-11.545000	22.661854	0.000488	20.765329
222.051106	-3.000500	3.829800	-11.490000	22.664367	0.000489	20.764527
223.051557	-2.998000	3.831000	-11.485000	22.669654	0.000489	20.742321
224.047539	-3.003600	3.830500	-11.503000	22.666563	0.000488	20.752028
225.050438	-3.017400	3.827300	-11.548000	22.679543	0.000490	20.764080
226.051227	-3.019200	3.827400	-11.554000	22.680588	0.000488	20.763231
227.049588	-3.014800	3.828100	-11.540000	22.687265	0.000490	20.771342
228.045313	-3.005200	3.828700	-11.505000	22.727702	0.000489	20.748309
229.050361	-3.011500	3.827700	-11.525000	22.689156	0.000488	20.767545
230.049687	-3.004200	3.828600	-11.500000	22.707094	0.000489	20.762754
231.047372	-3.014100	3.827900	-11.537000	22.718854	0.000492	20.765051
232.051573	-3.014100	3.826700	-11.531000	22.723485	0.000491	20.761155
233.047982	-3.000600	3.827100	-11.483000	22.720252	0.000490	20.761235
234.051278	-2.978400	3.828400	-11.402000	22.742843	0.000490	20.778175
235.049744	-2.990800	3.827800	-11.448000	22.741423	0.000492	20.768218
236.052862	-2.991100	3.827000	-11.446000	22.753257	0.000492	20.772485
237.052562	-2.990400	3.826500	-11.441000	22.732652	0.000492	20.759432
238.047877	-3.001700	3.824900	-11.480000	22.762501	0.000491	20.785065
239.051563	-2.985900	3.826800	-11.425000	22.787810	0.000493	20.760631
240.053935	-2.989100	3.826400	-11.436000	22.806369	0.000493	20.783965
241.051030	-3.001200	3.823800	-11.475000	22.800838	0.000494	20.781743
242.052036	-2.998600	3.824400	-11.467000	22.806496	0.000494	20.774608
243.059256	-3.017600	3.824100	-11.539000	22.821741	0.000494	20.804105
244.052221	-3.014100	3.825000	-11.528000	22.832451	0.000495	20.761254
245.053295	-2.993300	3.825400	-11.450000	22.845728	0.000494	20.760331
246.056257	-3.009300	3.823700	-11.506000	22.857759	0.000494	20.768116
247.051334	-3.023000	3.823300	-11.557000	22.850285	0.000495	20.778172
248.049007	-2.978700	3.824100	-11.390000	22.857483	0.000496	20.761676
249.052972	-3.015100	3.822700	-11.524000	22.858953	0.000494	20.789701
250.052986	-3.011500	3.824200	-11.515000	22.850956	0.000497	20.795441
251.053487	-2.977600	3.823800	-11.385000	22.872054	0.000496	20.791920
252.053147	-2.987700	3.823100	-11.422000	22.886230	0.000498	20.773406
253.050109	-3.013100	3.822900	-11.518000	22.927375	0.000496	20.784281
254.052464	-2.980700	3.822300	-11.393000	22.919109	0.000496	20.772681
255.050298	-3.003700	3.822300	-11.480000	22.907797	0.000499	20.767986
256.049954	-2.995100	3.822700	-11.448000	22.939108	0.000497	20.783708
257.050956	-3.013900	3.821300	-11.516000	22.960652	0.000496	20.780637
258.052198	-3.004400	3.821300	-11.480000	22.971939	0.000500	20.802376
259.057103	-3.001300	3.821600	-11.469000	22.967853	0.000498	20.768885
260.052520	-2.992500	3.822900	-11.439000	22.966807	0.000499	20.800554
261.054661	-2.996400	3.820800	-11.447000	22.950664	0.000500	20.789596
262.053322	-2.982700	3.822600	-11.400000	22.978533	0.000500	20.777690
263.057921	-2.986200	3.821800	-11.411000	22.970392	0.000502	20.814103
264.053061	-2.993400	3.819100	-11.431000	22.971608	0.000500	20.794459
265.054903	-3.014100	3.819600	-11.511000	23.015471	0.000501	20.788146
266.062754	-3.009700	3.819900	-11.496000	22.983891	0.000501	20.792540
267.055616	-3.000700	3.819500	-11.460000	22.999477	0.000502	20.787768
268.053753	-3.021100	3.819300	-11.538000	23.008892	0.000502	20.787244
269.054820	-2.995400	3.820400	-11.442000	23.038857	0.000503	20.799250
270.055820	-3.015600	3.819500	-11.517000	23.005904	0.000504	20.798001
271.055860	-3.010100	3.819000	-11.494000	23.008914	0.000502	20.803862
272.063212	-3.000600	3.819700	-11.460000	23.030110	0.000503	20.792857
273.058199	-2.999300	3.818000	-11.451000	23.020693	0.000505	20.799068
274.056029	-3.006100	3.817900	-11.476000	23.021964	0.000502	20.777582
275.064498	-2.990900	3.819300	-11.422000	23.052398	0.000506	20.806180
276.057137	-3.013000	3.818700	-11.505000	23.071401	0.000505	20.795349
277.052628	-2.989100	3.818400	-11.412000	23.073938	0.000505	20.800261
278.056862	-3.003100	3.817300	-11.462000	23.091969	0.000506	20.800311
279.057661	-3.010600	3.817300	-11.492000	23.095207	0.000505	20.801185
280.056849	-3.002500	3.818600	-11.465000	23.116999	0.000505	20.803580
281.055178	-3.013600	3.815700	-11.498000	23.143145	0.000505	20.786632
282.053444	-2.997700	3.815900	-11.438000	23.129320	0.000507	20.801228
283.057125	-3.004600	3.814900	-11.461000	23.094103	0.000506	20.813355
284.054257	-2.999900	3.817200	-11.449000	23.113903	0.000509	20.808065
285.056806	-3.000600	3.815400	-11.447000	23.116965	0.000507	20.810659
286.057149	-3.010900	3.815800	-11.488000	23.120773	0.000507	20.806888
287.056143	-2.992000	3.816100	-11.417000	23.133249	0.000508	20.801846
288.060727	-2.994400	3.814600	-11.421000	23.109314	0.000509	20.793035
289.059765	-2.985000	3.815400	-11.388000	23.134044	0.000509	20.805013
290.058234	-3.015300	3.815200	-11.503000	23.153317	0.000510	20.814369
291.057645	-3.011800	3.813500	-11.485000	23.139447	0.000511	20.810427
292.059379	-2.999100	3.814300	-11.439000	23.194282	0.000509	20.797099
293.056220	-3.001700	3.815600	-11.452000	23.195330	0.000509	20.818063
294.062185	-2.986200	3.814700	-11.391000	23.203120	0.000510	20.820180
295.057543	-3.002900	3.814200	-11.453000	23.195099	0.000511	20.823047
296.060379	-3.005000	3.815100	-11.463000	23.204042	0.000510	20.821578
297.060493	-3.007300	3.813400	-11.467000	23.219430	0.000511	20.807601
298.060192	-2.983300	3.813500	-11.376000	23.184637	0.000512	20.814934
299.060129	-2.985000	3.814100	-11.383000	23.175625	0.000510	20.832455
300.056861	-3.001400	3.813200	-11.444000	23.186081	0.000511	20.815907
301.061403	-2.998900	3.812300	-11.432000	23.213796	0.000511	20.833249
302.060038	-3.001300	3.811800	-11.439000	23.219026	0.000512	20.798661
303.061621	-3.019100	3.812200	-11.508000	23.248184	0.000513	20.818873
304.062378	-2.995200	3.813200	-11.420000	23.257446	0.000510	20.806818
305.063342	-2.999300	3.811900	-11.432000	23.298054	0.000513	20.818592
306.062761	-3.016100	3.809600	-11.489000	23.295766	0.000515	20.808238
307.058924	-2.993700	3.811100	-11.408000	23.314963	0.000515	20.824632
308.066888	-3.019600	3.809500	-11.502000	23.324050	0.000515	20.831369
309.061093	-2.993000	3.809200	-11.399000	23.341753	0.000513	20.826352
310.065715	-2.983900	3.810800	-11.370000	23.345909	0.000512	20.843319
311.064428	-2.996600	3.810000	-11.416000	23.320733	0.000514	20.828519
312.061669	-2.981500	3.810800	-11.361000	23.316401	0.000516	20.836979
313.066888	-3.008500	3.809500	-11.459000	23.327282	0.000515	20.838875
314.071843	-3.003500	3.809000	-11.440000	23.340925	0.000516	20.836427
315.067796	-2.987200	3.808700	-11.376000	23.341274	0.000514	20.839148
316.067660	-2.999800	3.808000	-11.422000	23.337836	0.000515	20.847081
317.071319	-2.980100	3.809100	-11.351000	23.314652	0.000518	20.824320
318.067910	-2.985700	3.809600	-11.373000	23.368262	0.000515	20.832058
319.070005	-3.011800	3.808400	-11.469000	23.338381	0.000517	20.843360
320.071249	-3.004600	3.809000	-11.444000	23.325357	0.000517	20.842635
321.072471	-3.012600	3.808800	-11.473000	23.317339	0.000516	20.852617
322.067930	-3.017800	3.807400	-11.488000	23.340669	0.000517	20.850869
323.075017	-2.988400	3.807200	-11.378000	23.399878	0.000519	20.852840
324.073415	-2.997300	3.807500	-11.411000	23.385213	0.000517	20.827237
325.074269	-3.018800	3.805700	-11.488000	23.390365	0.000520	20.845201
326.073550	-3.006600	3.806700	-11.444000	23.423853	0.000519	20.850318
327.074612	-3.003200	3.806200	-11.429000	23.402288	0.000519	20.846720
328.075162	-3.007200	3.807500	-11.449000	23.404155	0.000520	20.856178
329.070368	-3.005000	3.806500	-11.438000	23.390783	0.000518	20.860793
330.075438	-3.004700	3.806000	-11.434000	23.417577	0.000518	20.855880
331.074103	-3.021000	3.805500	-11.496000	23.413515	0.000518	20.852757
332.073741	-2.999000	3.805400	-11.412000	23.413663	0.000520	20.850061
333.074646	-2.982900	3.804700	-11.348000	23.409879	0.000519	20.853854
334.078165	-3.018800	3.804600	-11.485000	23.425490	0.000522	20.855751
335.074100	-2.982300	3.804700	-11.346000	23.461464	0.000520	20.843920
336.077029	-2.971800	3.805700	-11.309000	23.493157	0.000520	20.851032
337.073365	-2.998100	3.803600	-11.402000	23.508541	0.000520	20.864555
338.086061	-2.999500	3.803800	-11.408000	23.511181	0.000521	20.853452
339.080966	-3.003100	3.802800	-11.419000	23.518227	0.000523	20.841075
340.074128	-2.968000	3.803900	-11.289000	23.488949	0.000521	20.843495
341.079814	-2.988800	3.804000	-11.369000	23.517677	0.000522	20.849532
342.078973	-3.002500	3.801700	-11.414000	23.509286	0.000524	20.862457
343.079672	-2.985800	3.803800	-11.357000	23.514715	0.000522	20.853201
344.081100	-3.011400	3.803200	-11.452000	23.494645	0.000524	20.863902
345.079885	-2.994400	3.801800	-11.383000	23.511803	0.000523	20.844592
346.080552	-3.004300	3.801000	-11.418000	23.510904	0.000525	20.865027
347.079543	-2.993500	3.802700	-11.382000	23.529150	0.000524	20.853446
348.083072	-2.999400	3.802900	-11.406000	23.531788	0.000526	20.863202
349.077675	-3.008200	3.802100	-11.437000	23.559274	0.000525	20.874159
350.078765	-3.007000	3.800700	-11.428000	23.556634	0.000524	20.865349
351.079327	-2.993600	3.800900	-11.377000	23.565646	0.000525	20.863477
352.078101	-2.998100	3.801100	-11.395000	23.572914	0.000525	20.892098
353.080678	-3.005800	3.801000	-11.424000	23.580158	0.000525	20.849576
354.079432	-3.012900	3.798900	-11.445000	23.570398	0.000526	20.876775
355.082135	-3.018300	3.799600	-11.468000	23.603856	0.000526	20.879970
356.086504	-3.024600	3.800000	-11.493000	23.592354	0.000524	20.867965
357.086570	-2.999300	3.800100	-11.397000	23.594273	0.000526	20.856614
358.084576	-3.013000	3.799500	-11.447000	23.601588	0.000526	20.866791
359.083327	-3.013600	3.799200	-11.448000	23.607860	0.000526	20.883983
360.081570	-3.013900	3.798700	-11.448000	23.587649	0.000525	20.867516
361.084569	-3.016000	3.798300	-11.456000	23.589887	0.000526	20.873553
362.084800	-3.008400	3.798800	-11.427000	23.591105	0.000528	20.853438
363.085621	-2.988100	3.798800	-11.351000	23.590110	0.000528	20.892266
364.085951	-3.010200	3.797800	-11.431000	23.590880	0.000527	20.892564
365.084365	-3.014400	3.797600	-11.446000	23.613135	0.000528	20.857504
366.087636	-3.009300	3.796700	-11.424000	23.622245	0.000528	20.877067
367.084575	-3.004300	3.796100	-11.403000	23.656620	0.000529	20.890191
368.086647	-2.980900	3.796400	-11.316000	23.669065	0.000529	20.871375
369.084318	-3.026900	3.796700	-11.491000	23.677427	0.000527	20.864586
370.085428	-2.990400	3.796500	-11.352000	23.689375	0.000529	20.878933
371.086402	-2.975300	3.796900	-11.296000	23.705502	0.000528	20.904582
372.089799	-2.974700	3.795900	-11.291000	23.697536	0.000530	20.884744
373.086489	-2.989700	3.794600	-11.343000	23.739998	0.000530	20.886064
374.085134	-2.998200	3.794800	-11.377000	23.736685	0.000528	20.895544
375.088100	-3.015700	3.793800	-11.440000	23.748805	0.000530	20.900583
376.086024	-3.010900	3.794900	-11.424000	23.755624	0.000531	20.903152
377.087853	-2.997900	3.794500	-11.374000	23.765580	0.000531	20.884212
378.090417	-2.997800	3.794700	-11.375000	23.747557	0.000531	20.901702
379.090131	-2.996100	3.794800	-11.369000	23.768241	0.000530	20.891148
380.086578	-3.025700	3.793100	-11.475000	23.814558	0.000530	20.893491
381.095057	-2.991300	3.794000	-11.347000	23.786729	0.000531	20.921535
382.089828	-3.016300	3.793300	-11.441000	23.784290	0.000530	20.894436
383.091276	-2.981400	3.793600	-11.310000	23.776624	0.000532	20.894337
384.093163	-2.981900	3.792400	-11.308000	23.767834	0.000531	20.920609
385.091449	-3.009300	3.792800	-11.413000	23.785032	0.000531	20.902766
386.091503	-2.997700	3.791700	-11.366000	23.778984	0.000532	20.896702
387.089395	-2.992000	3.791600	-11.343000	23.771788	0.000533	20.916039
388.091745	-3.005000	3.792600	-11.395000	23.803473	0.000532	20.898023
389.088448	-2.998100	3.790500	-11.364000	23.788937	0.000530	20.874915
390.091364	-2.969200	3.791900	-11.258000	23.802799	0.000533	20.890236
391.093245	-2.986700	3.791100	-11.322000	23.800207	0.000534	20.917031
392.094545	-3.014300	3.790700	-11.426000	23.799536	0.000532	20.910195
393.095010	-3.004900	3.790900	-11.390000	23.778277	0.000533	20.893623
394.097533	-2.985400	3.790700	-11.315000	23.792291	0.000533	20.895820
395.090540	-2.992100	3.788800	-11.336000	23.811776	0.000535	20.894969
396.097535	-2.998500	3.790000	-11.363000	23.828701	0.000534	20.904826
397.094247	-3.006800	3.790600	-11.395000	23.847413	0.000536	20.886131
398.094940	-2.998800	3.789600	-11.364000	23.867100	0.000534	20.886906
399.096665	-3.002100	3.790000	-11.377000	23.871901	0.000533	20.885555
400.095261	-3.029400	3.787400	-11.472000	23.868242	0.000533	20.884731
401.096441	-3.024400	3.788500	-11.456000	23.830258	0.000533	20.868931
402.092515	-3.029500	3.786600	-11.470000	23.834789	0.000534	20.874422
403.093565	-3.007300	3.787900	-11.391000	23.843773	0.000535	20.879163
404.096561	-3.001900	3.788200	-11.371000	23.848799	0.000535	20.890366
405.092565	-3.000400	3.787100	-11.361000	23.864778	0.000533	20.867035
406.096063	-3.011000	3.786800	-11.402000	23.857132	0.000537	20.875963
407.099682	-3.015400	3.787300	-11.419000	23.870224	0.000535	20.885771
408.096252	-3.016100	3.786200	-11.418000	23.854369	0.000536	20.879357
409.094063	-3.007900	3.787100	-11.391000	23.890208	0.000536	20.893007
410.102806	-2.986600	3.787700	-11.312000	23.908671	0.000535	20.876435
411.099011	-3.019500	3.785400	-11.429000	23.929103	0.000533	20.886016
412.094282	-3.016700	3.786000	-11.420000	23.950084	0.000536	20.871969
413.102513	-3.003400	3.785200	-11.368000	23.961355	0.000535	20.880900
414.099604	-3.013400	3.784600	-11.404000	23.936965	0.000536	20.862608
415.101729	-3.005100	3.785200	-11.374000	23.944828	0.000536	20.868121
416.102201	-2.996400	3.784700	-11.340000	23.936740	0.000536	20.872339
417.099185	-2.998600	3.784800	-11.348000	23.933009	0.000536	20.891356
418.100693	-3.033900	3.782900	-11.476000	23.939827	0.000537	20.867374
419.104003	-2.997800	3.784200	-11.343000	23.979171	0.000539	20.857991
420.097662	-2.997700	3.784400	-11.343000	23.956475	0.000536	20.868422
421.101885	-3.007500	3.783600	-11.378000	23.951450	0.000537	20.853426
422.103437	-2.985500	3.783600	-11.295000	23.975515	0.000538	20.883720
423.098835	-3.017700	3.783600	-11.416000	23.984471	0.000538	20.872788
424.099579	-3.009600	3.783600	-11.386000	24.014580	0.000537	20.873111
425.105639	-2.986500	3.782500	-11.295000	23.992583	0.000537	20.854372
426.097695	-3.019700	3.782700	-11.421000	23.980537	0.000538	20.865525
427.096591	-3.011900	3.782500	-11.391000	24.010998	0.000536	20.858140
428.100169	-2.988200	3.781200	-11.298000	23.980886	0.000537	20.864452
429.100172	-2.981000	3.783100	-11.277000	24.007614	0.000540	20.850005
430.104687	-2.976500	3.781300	-11.254000	24.027395	0.000539	20.871738
431.102598	-3.006700	3.780700	-11.367000	24.016295	0.000538	20.871986
432.100039	-3.002800	3.780800	-11.353000	24.042524	0.000537	20.860833
433.102386	-2.987300	3.781100	-11.293000	24.066461	0.000537	20.860657
434.100276	-3.001300	3.781400	-11.348000	24.090424	0.000540	20.848655
435.101779	-2.998100	3.780400	-11.333000	24.104956	0.000539	20.867496
436.105150	-2.996600	3.779900	-11.326000	24.077260	0.000541	20.860108
437.104602	-3.012100	3.779300	-11.383000	24.080570	0.000540	20.855841
438.108162	-3.022000	3.778300	-11.417000	24.051057	0.000540	20.865596
439.103155	-2.998000	3.779800	-11.330000	24.059641	0.000542	20.854292
440.107049	-2.992900	3.780000	-11.312000	24.042021	0.000539	20.853217
441.102342	-2.967300	3.779700	-11.215000	24.075938	0.000539	20.860205
442.102479	-2.994500	3.778100	-11.313000	24.107193	0.000539	20.837499
443.105208	-2.984600	3.778200	-11.276000	24.148793	0.000541	20.850298
444.109520	-3.013800	3.777500	-11.384000	24.140658	0.000540	20.860155
445.106822	-3.004100	3.776800	-11.345000	24.115601	0.000540	20.840242
446.106465	-2.973300	3.778000	-11.232000	24.124831	0.000540	20.846179
447.112879	-2.974300	3.778400	-11.238000	24.092136	0.000541	20.853217
448.107341	-3.002000	3.777200	-11.337000	24.110921	0.000539	20.852616
449.105046	-3.012300	3.777000	-11.377000	24.119257	0.000541	20.858606
450.111104	-2.997500	3.776000	-11.318000	24.118982	0.000541	20.840313
451.106919	-3.003600	3.776100	-11.340000	24.124383	0.000542	20.836721
452.110826	-3.012400	3.775500	-11.373000	24.107985	0.000539	20.843982
453.112485	-3.023700	3.775400	-11.415000	24.136249	0.000545	20.847199
454.113046	-3.019000	3.775100	-11.396000	24.142793	0.000542	20.838591
455.114673	-3.009100	3.774600	-11.358000	24.117539	0.000542	20.846926
456.119189	-2.988800	3.775200	-11.283000	24.114675	0.000541	20.855908
457.113955	-3.013200	3.774000	-11.371000	24.141496	0.000544	20.850091
458.113116	-2.989200	3.773500	-11.279000	24.155008	0.000542	20.834720
459.114707	-3.013900	3.772600	-11.369000	24.172747	0.000543	20.863417
460.112350	-3.008300	3.774300	-11.353000	24.197878	0.000545	20.821296
461.111908	-2.999500	3.772500	-11.314000	24.190933	0.000543	20.837563
462.116732	-3.001100	3.773500	-11.323000	24.213924	0.000542	20.836915
463.119476	-3.006100	3.773800	-11.344000	24.201905	0.000541	20.840981
464.114342	-2.988600	3.773900	-11.277000	24.237930	0.000545	20.838235
465.115906	-2.991900	3.772600	-11.287000	24.249424	0.000543	20.831746
466.117418	-3.019600	3.773000	-11.392000	24.241314	0.000545	20.843525
467.114808	-3.000900	3.771000	-11.314000	24.266444	0.000541	20.836964
468.118949	-3.017700	3.771200	-11.379000	24.194463	0.000542	20.845370
469.114741	-2.996100	3.771900	-11.300000	24.200487	0.000544	20.845722
470.114943	-3.003200	3.770700	-11.323000	24.209667	0.000544	20.858722
471.118084	-3.005000	3.770800	-11.330000	24.178689	0.000543	20.829075
472.115466	-2.999200	3.770400	-11.308000	24.186627	0.000544	20.825657
473.115481	-2.992300	3.770600	-11.281000	24.206206	0.000543	20.845295
474.114709	-2.998900	3.770200	-11.306000	24.209691	0.000542	20.835040
475.118474	-2.994300	3.769700	-11.286000	24.245041	0.000543	20.837307
476.118247	-3.001800	3.769000	-11.313000	24.241484	0.000544	20.819515
477.117812	-2.998200	3.769100	-11.300000	24.218071	0.000542	20.836334
478.123050	-3.012300	3.769300	-11.353000	24.197197	0.000545	20.827251
479.118560	-3.022600	3.767900	-11.388000	24.202370	0.000542	20.836706
480.120133	-3.000400	3.768400	-11.306000	24.195306	0.000543	20.833888
481.122847	-3.005700	3.767300	-11.322000	24.213292	0.000543	20.838652
482.123718	-2.995900	3.768500	-11.288000	24.198885	0.000544	20.833685
483.120972	-3.004300	3.766800	-11.315000	24.189332	0.000544	20.851603
484.122674	-2.996800	3.767000	-11.288000	24.215257	0.000546	20.822606
485.123653	-2.969100	3.768400	-11.188000	24.188532	0.000543	20.832309
486.122233	-2.993400	3.766500	-11.273000	24.208609	0.000543	20.809774
487.123037	-2.993500	3.767300	-11.277000	24.196296	0.000545	20.832036
488.127344	-2.979500	3.766600	-11.221000	24.180221	0.000544	20.847680
489.121328	-2.981100	3.766800	-11.228000	24.241900	0.000547	20.826096
490.122633	-2.989700	3.765700	-11.258000	24.311061	0.000544	20.830512
491.132463	-3.012800	3.766700	-11.347000	24.300212	0.000543	20.809198
492.130269	-3.031800	3.763700	-11.410000	24.357927	0.000544	20.840067
493.127503	-3.004300	3.765200	-11.311000	24.350664	0.000544	20.818083
494.131422	-3.004700	3.764600	-11.311000	24.375039	0.000543	20.825465
495.123991	-2.992500	3.764600	-11.265000	24.407104	0.000543	20.819227
496.127486	-2.991500	3.765800	-11.265000	24.404640	0.000546	20.809168
497.129673	-2.995600	3.764200	-11.275000	24.388867	0.000544	20.821319
498.126594	-3.003300	3.764700	-11.305000	24.346056	0.000548	20.827684
499.129495	-3.001800	3.765100	-11.301000	24.359788	0.000545	20.834347
500.130492	-2.973100	3.763400	-11.188000	24.360406	0.000546	20.838761
501.129933	-3.027500	3.762500	-11.391000	24.343517	0.000544	20.826086
502.127189	-2.989700	3.763300	-11.250000	24.334509	0.000545	20.814679
503.132234	-2.998900	3.763100	-11.284000	24.359184	0.000546	20.810982
504.127308	-2.980800	3.762400	-11.214000	24.366323	0.000547	20.835687
505.131468	-2.987900	3.762500	-11.242000	24.376251	0.000544	20.813879
506.148333	-3.006100	3.760700	-11.303000	24.370827	0.000548	20.828352
507.134186	-2.974400	3.762800	-11.191000	24.368810	0.000544	20.825381
508.132641	-3.023300	3.761300	-11.371000	24.355600	0.000545	20.818767
509.132022	-2.995400	3.760700	-11.264000	24.362443	0.000545	20.807140
510.139729	-2.995700	3.761800	-11.268000	24.412266	0.000545	20.832465
511.137377	-2.999000	3.761900	-11.280000	24.418212	0.000545	20.829896
512.135379	-3.003000	3.760700	-11.293000	24.433311	0.000545	20.833664
513.129924	-3.012600	3.758400	-11.323000	24.389978	0.000545	20.830494
514.134972	-3.001900	3.758900	-11.282000	24.387639	0.000544	20.822459
515.131693	-2.997900	3.760100	-11.271000	24.398953	0.000544	20.844239
516.138562	-3.012500	3.757900	-11.320000	24.433532	0.000544	20.800221
517.135600	-3.001700	3.759200	-11.283000	24.429800	0.000547	20.820185
518.134599	-2.996300	3.757600	-11.258000	24.449227	0.000547	20.817389
519.140882	-2.994500	3.759100	-11.256000	24.415522	0.000545	20.810602
520.134328	-3.018000	3.758300	-11.341000	24.398309	0.000546	20.828896
521.138204	-2.974800	3.757800	-11.178000	24.382014	0.000545	20.822032
522.135382	-2.983300	3.758500	-11.212000	24.422557	0.000546	20.799168
523.138777	-2.985000	3.756800	-11.213000	24.422312	0.000545	20.823104
524.136146	-2.995100	3.755500	-11.247000	24.461015	0.000546	20.805034
525.142919	-2.977200	3.757800	-11.187000	24.437557	0.000545	20.802837
526.134738	-2.979000	3.756800	-11.191000	24.445419	0.000547	20.811198
527.146320	-3.007600	3.756200	-11.296000	24.448700	0.000545	20.835826
528.140702	-3.007500	3.756100	-11.296000	24.431411	0.000544	20.824645
529.141218	-2.986500	3.756500	-11.218000	24.500112	0.000545	20.805853
530.141459	-3.010800	3.754600	-11.303000	24.520582	0.000548	20.797942
531.142578	-2.989400	3.755500	-11.225000	24.477475	0.000547	20.822496
532.143354	-2.993300	3.755000	-11.239000	24.472724	0.000547	20.807298
533.137306	-3.026300	3.753100	-11.357000	24.492895	0.000545	20.806198
534.143680	-3.002100	3.754700	-11.271000	24.505432	0.000545	20.801708
535.143342	-2.991400	3.754000	-11.228000	24.552238	0.000546	20.796038
536.145145	-2.990000	3.754500	-11.225000	24.524652	0.000544	20.802974
537.141108	-3.014700	3.752800	-11.313000	24.548331	0.000546	20.819144
538.145589	-3.021900	3.753400	-11.341000	24.503111	0.000545	20.820716
539.150326	-3.003200	3.753400	-11.271000	24.471994	0.000545	20.802773
540.146750	-2.994100	3.753200	-11.237000	24.534549	0.000544	20.823809
541.147295	-2.987600	3.753500	-11.212000	24.557203	0.000545	20.815244
542.146656	-2.997000	3.752200	-11.245000	24.557228	0.000546	20.797251
543.150455	-2.998600	3.752500	-11.252000	24.538350	0.000545	20.795380
544.144643	-2.996100	3.753100	-11.244000	24.532031	0.000543	20.802316
545.151811	-3.013000	3.752000	-11.304000	24.525835	0.000546	20.800841
546.145562	-3.002400	3.751500	-11.263000	24.481090	0.000546	20.820907
547.156035	-2.993700	3.751900	-11.231000	24.502404	0.000544	20.813368
548.150797	-2.984000	3.751000	-11.192000	24.491707	0.000545	20.803584
549.149429	-2.986700	3.749800	-11.198000	24.534638	0.000546	20.779802
550.151116	-2.995800	3.750000	-11.234000	24.558215	0.000545	20.782595
551.151947	-3.001700	3.749200	-11.253000	24.595944	0.000545	20.779673
552.151069	-3.006400	3.749600	-11.273000	24.589625	0.000543	20.789454
553.150721	-3.006300	3.748700	-11.268000	24.609870	0.000544	20.794595
554.152958	-2.995800	3.750000	-11.233000	24.591564	0.000544	20.786659
555.152658	-2.979900	3.748400	-11.168000	24.560845	0.000545	20.806097
556.156581	-3.010200	3.750400	-11.289000	24.551592	0.000543	20.803450
557.153594	-3.007700	3.749300	-11.274000	24.567931	0.000545	20.784283
558.153080	-2.989200	3.749600	-11.207000	24.552413	0.000543	20.772980
559.150856	-2.992200	3.748900	-11.216000	24.538808	0.000545	20.801055
560.155141	-2.977900	3.749100	-11.163000	24.540822	0.000543	20.786006
561.156850	-2.968400	3.747200	-11.122000	24.572459	0.000545	20.801628
562.154674	-3.011500	3.747800	-11.286000	24.589993	0.000544	20.807842
563.154961	-2.991300	3.747200	-11.208000	24.590637	0.000545	20.796633
564.154397	-3.008600	3.747400	-11.274000	24.604566	0.000545	20.785954
565.159365	-2.986900	3.747800	-11.194000	24.643040	0.000545	20.798006
566.151674	-3.001600	3.746400	-11.244000	24.649702	0.000543	20.786674
567.151031	-2.999900	3.745800	-11.236000	24.650672	0.000546	20.790966
568.157795	-3.020800	3.745700	-11.313000	24.672732	0.000545	20.803145
569.154617	-3.014600	3.746300	-11.294000	24.626300	0.000543	20.787848
570.151872	-3.021000	3.743900	-11.309000	24.594340	0.000543	20.784703
571.152334	-3.016600	3.744700	-11.295000	24.607273	0.000544	20.764013
572.160918	-3.012300	3.744500	-11.278000	24.627367	0.000543	20.788918
573.153341	-3.008700	3.745400	-11.268000	24.647664	0.000546	20.788896
574.157129	-2.995800	3.744900	-11.218000	24.640299	0.000544	20.794307
575.153730	-2.994400	3.743900	-11.210000	24.659949	0.000544	20.783206
576.154596	-2.987400	3.744300	-11.185000	24.683974	0.000545	20.780760
577.154169	-3.002700	3.743600	-11.240000	24.681510	0.000544	20.767382
578.161861	-2.998600	3.743900	-11.225000	24.699193	0.000543	20.775170
579.158127	-3.001500	3.744000	-11.237000	24.723362	0.000542	20.773345
580.157921	-3.017200	3.741900	-11.290000	24.730025	0.000544	20.770073
581.161782	-3.012100	3.741600	-11.270000	24.766062	0.000547	20.781108
582.158083	-3.002700	3.742700	-11.237000	24.741589	0.000547	20.781205
583.156146	-2.999500	3.742900	-11.225000	24.749001	0.000544	20.786746
584.158142	-2.989400	3.742000	-11.185000	24.756437	0.000544	20.799424
585.157578	-2.990200	3.741500	-11.187000	24.753352	0.000545	20.769775
586.154866	-2.996400	3.743300	-11.216000	24.768768	0.000545	20.773867
587.156324	-2.980100	3.741400	-11.148000	24.715973	0.000544	20.783948
588.160592	-3.001700	3.740700	-11.228000	24.710103	0.000544	20.789437
589.157713	-2.988300	3.742100	-11.182000	24.692447	0.000544	20.789263
590.156837	-3.004300	3.740300	-11.235000	24.674066	0.000543	20.768921
591.157725	-3.004300	3.740600	-11.237000	24.704458	0.000544	20.775237
592.167549	-2.999300	3.739900	-11.216000	24.710548	0.000544	20.776133
593.157794	-2.980200	3.740900	-11.148000	24.679437	0.000544	20.766724
594.156840	-2.984000	3.740200	-11.160000	24.687692	0.000545	20.772638
595.155584	-2.997200	3.739000	-11.206000	24.681797	0.000543	20.769093
596.156724	-2.988700	3.738800	-11.173000	24.682918	0.000547	20.773062
597.156961	-3.003800	3.739100	-11.230000	24.682542	0.000543	20.770314
598.156889	-2.984800	3.739200	-11.160000	24.673742	0.000543	20.763855
599.159386	-3.006400	3.738100	-11.238000	24.667896	0.000544	20.781697
600.160797	-3.002400	3.737200	-11.220000	24.695970	0.000543	20.766720
601.161702	-3.007300	3.738600	-11.242000	24.718155	0.000543	20.772861
602.160132	-3.004400	3.737400	-11.227000	24.755829	0.000544	20.772261
603.163774	-3.003000	3.735200	-11.216000	24.809817	0.000545	20.758162
604.163983	-3.002700	3.736000	-11.217000	24.773236	0.000542	20.765074
605.158942	-2.980200	3.738400	-11.141000	24.775324	0.000543	20.768117
606.157336	-2.997000	3.736000	-11.196000	24.790493	0.000543	20.771960
607.157674	-2.992800	3.736600	-11.183000	24.777934	0.000542	20.775478
608.160771	-3.002700	3.735900	-11.217000	24.768210	0.000541	20.776625
609.164488	-3.009600	3.735100	-11.240000	24.760826	0.000542	20.768740
610.166676	-2.984400	3.735900	-11.148000	24.752618	0.000544	20.776625
611.162967	-2.998500	3.734500	-11.197000	24.734191	0.000544	20.765719
612.164241	-2.996600	3.735300	-11.191000	24.771764	0.000541	20.779718
613.164277	-2.996700	3.735000	-11.191000	24.783576	0.000543	20.741311
614.162858	-2.984300	3.734500	-11.144000	24.776563	0.000543	20.761300
615.161239	-3.007400	3.733800	-11.228000	24.785889	0.000542	20.766866
616.165197	-3.001900	3.734400	-11.210000	24.813191	0.000543	20.768661
617.165817	-2.996200	3.734100	-11.188000	24.811326	0.000541	20.762048
618.166360	-2.993600	3.733300	-11.175000	24.805580	0.000542	20.755332
619.170932	-2.986800	3.733300	-11.149000	24.818435	0.000541	20.745000
620.172335	-3.007600	3.734300	-11.230000	24.785659	0.000541	20.749091
621.171105	-3.011700	3.732300	-11.240000	24.817468	0.000541	20.761099
622.171804	-3.011800	3.733000	-11.242000	24.793718	0.000540	20.756705
623.166491	-2.996700	3.733300	-11.187000	24.838055	0.000543	20.736715
624.170694	-2.991800	3.731700	-11.164000	24.804360	0.000541	20.756479
625.171705	-2.991900	3.731800	-11.165000	24.793518	0.000543	20.770729
626.173391	-2.994400	3.730600	-11.171000	24.821193	0.000538	20.755829
627.170003	-2.982000	3.731600	-11.127000	24.789612	0.000541	20.742152
628.170660	-3.004900	3.731400	-11.211000	24.788220	0.000539	20.737435
629.168698	-3.002100	3.731400	-11.202000	24.816493	0.000541	20.747793
630.174792	-3.013500	3.730300	-11.240000	24.808761	0.000539	20.749042
631.174174	-2.992700	3.731000	-11.164000	24.812365	0.000539	20.741279
632.172327	-2.974600	3.730700	-11.097000	24.775015	0.000541	20.755005
633.173643	-2.993800	3.729400	-11.164000	24.776457	0.000538	20.746494
634.176057	-2.991400	3.728300	-11.152000	24.805726	0.000540	20.748840
635.171695	-2.996800	3.728300	-11.172000	24.829497	0.000538	20.742825
636.175000	-3.015100	3.728100	-11.239000	24.853990	0.000541	20.754131
637.169159	-2.980000	3.728600	-11.110000	24.839146	0.000539	20.747294
638.169444	-2.998500	3.728800	-11.180000	24.857248	0.000539	20.745072
639.182030	-2.992100	3.727900	-11.153000	24.830444	0.000539	20.733818
640.176113	-3.006400	3.727400	-11.205000	24.846508	0.000539	20.733818
641.173719	-3.001900	3.729500	-11.195000	24.887981	0.000539	20.744623
642.174329	-3.026400	3.725900	-11.275000	24.862271	0.000540	20.753433
643.171186	-3.007100	3.726100	-11.204000	24.852474	0.000539	20.742651
644.175627	-2.993100	3.727800	-11.156000	24.830917	0.000540	20.737612
645.175813	-3.000700	3.726100	-11.181000	24.858267	0.000538	20.729499
646.175892	-3.009800	3.725500	-11.212000	24.835045	0.000539	20.743178
647.175278	-2.992300	3.726500	-11.150000	24.880422	0.000538	20.729449
648.177543	-2.976300	3.726800	-11.091000	24.870251	0.000538	20.752433
649.174277	-3.005200	3.724400	-11.192000	24.858888	0.000537	20.738183
650.175518	-3.008500	3.726100	-11.209000	24.886390	0.000539	20.747294
651.176414	-3.005300	3.724900	-11.194000	24.882386	0.000540	20.746594
652.175231	-3.010700	3.724600	-11.213000	24.899242	0.000540	20.756400
653.173839	-3.013300	3.724400	-11.222000	24.890738	0.000537	20.738381
654.182630	-2.984500	3.724100	-11.113000	24.880869	0.000540	20.757875
655.179387	-2.998100	3.724500	-11.166000	24.918960	0.000539	20.750112
656.172820	-3.013800	3.723100	-11.219000	24.910457	0.000538	20.726877
657.181139	-2.995000	3.724300	-11.154000	24.884271	0.000536	20.738528
658.177718	-3.011900	3.722400	-11.211000	24.856995	0.000538	20.746716
659.174506	-3.018000	3.722400	-11.233000	24.844086	0.000537	20.745139
660.173843	-2.974400	3.724300	-11.077000	24.834491	0.000537	20.735035
661.175792	-2.991900	3.722400	-11.136000	24.802686	0.000538	20.761437
662.175056	-2.995600	3.721800	-11.148000	24.828918	0.000537	20.765479
663.178420	-3.000800	3.722100	-11.169000	24.839285	0.000537	20.734156
664.180239	-3.018600	3.721900	-11.233000	24.815487	0.000537	20.743464
665.177584	-3.007600	3.720800	-11.190000	24.841022	0.000539	20.746331
666.178761	-3.010500	3.720400	-11.199000	24.863053	0.000538	20.758486
667.178761	-3.012000	3.720700	-11.206000	24.879312	0.000538	20.752992
668.175262	-3.003800	3.721900	-11.179000	24.913772	0.000538	20.744904
669.175358	-3.020200	3.719700	-11.233000	24.946069	0.000537	20.749345
670.177297	-3.010500	3.721000	-11.202000	24.971823	0.000536	20.756704
671.175581	-2.980900	3.721200	-11.092000	24.932216	0.000537	20.748717
672.178906	-2.983900	3.719400	-11.098000	24.926319	0.000537	20.765559
673.178784	-2.969000	3.720300	-11.044000	24.927712	0.000535	20.764112
674.183650	-2.998300	3.718700	-11.149000	24.919307	0.000534	20.758521
675.178208	-2.978200	3.718700	-11.074000	24.863883	0.000537	20.775914
676.182281	-3.006200	3.719200	-11.179000	24.892449	0.000535	20.761436
677.179789	-3.016700	3.717700	-11.214000	24.931808	0.000535	20.746412
678.179287	-3.002400	3.718800	-11.165000	24.929644	0.000536	20.770793
679.174933	-2.998100	3.718300	-11.146000	24.945879	0.000534	20.759587
680.178329	-3.006400	3.718000	-11.176000	24.949483	0.000536	20.755617
681.177754	-2.986500	3.718200	-11.103000	24.935209	0.000537	20.764051
682.178959	-3.001300	3.718200	-11.158000	24.940082	0.000532	20.758510
683.189707	-3.017200	3.716200	-11.212000	24.951172	0.000536	20.788134
684.181167	-3.005000	3.717500	-11.170000	24.928717	0.000532	20.748999
685.182366	-3.029400	3.715300	-11.255000	24.901416	0.000533	20.761901
686.180754	-2.991900	3.716900	-11.120000	24.916833	0.000535	20.762201
687.182548	-3.020000	3.715000	-11.218000	24.934359	0.000535	20.763671
688.178370	-3.009400	3.716400	-11.183000	24.979806	0.000533	20.753811
689.178287	-2.987500	3.716800	-11.103000	24.950097	0.000534	20.763820
690.183893	-3.014500	3.715400	-11.198000	24.914738	0.000534	20.768634
691.179369	-2.998900	3.715000	-11.140000	24.904864	0.000534	20.767259
692.178396	-3.018100	3.715400	-11.213000	24.909166	0.000531	20.754980
693.182410	-3.002000	3.713600	-11.147000	24.906925	0.000532	20.744670
694.181363	-2.990100	3.714000	-11.104000	24.935245	0.000534	20.766457
695.180769	-3.007800	3.715500	-11.174000	24.897897	0.000533	20.769749
696.189513	-3.002300	3.713700	-11.149000	24.894813	0.000531	20.774240
697.182690	-3.002000	3.714300	-11.149000	24.916468	0.000533	20.779854
698.182892	-2.988800	3.713400	-11.097000	24.919028	0.000532	20.768672
699.182620	-3.013900	3.713200	-11.189000	24.944689	0.000531	20.779729
700.188740	-3.003400	3.713000	-11.151000	24.899906	0.000533	20.766550
701.183022	-2.999100	3.712600	-11.133000	24.916738	0.000529	20.775383
702.195182	-2.974000	3.712900	-11.041000	24.950902	0.000532	20.778379
703.181982	-3.003300	3.712700	-11.149000	24.961218	0.000531	20.764552
704.185263	-3.015600	3.711800	-11.192000	24.965094	0.000532	20.778399
705.184183	-2.979600	3.713800	-11.065000	24.973646	0.000531	20.769440
706.184811	-3.014800	3.710900	-11.188000	25.002484	0.000531	20.769463
707.185775	-3.019200	3.712000	-11.207000	25.056262	0.000530	20.777925
708.188938	-3.013000	3.710200	-11.178000	25.016581	0.000532	20.763224
709.181560	-3.020500	3.709900	-11.205000	25.018743	0.000531	20.794792
710.181755	-2.992200	3.711200	-11.104000	25.009943	0.000529	20.785959
711.185701	-2.995800	3.709900	-11.113000	25.025356	0.000529	20.794792
712.184169	-2.977200	3.711400	-11.049000	25.026251	0.000532	20.775302
713.185758	-2.982600	3.710100	-11.064000	25.049622	0.000530	20.785485
714.187746	-2.997200	3.710700	-11.121000	25.044622	0.000529	20.779043
715.186809	-3.018800	3.709200	-11.197000	25.047654	0.000528	20.773552
716.187880	-2.992100	3.710300	-11.100000	25.073633	0.000529	20.778293
717.187503	-2.991000	3.710600	-11.098000	25.045168	0.000529	20.788126
718.187887	-2.998200	3.709000	-11.119000	25.019312	0.000529	20.793466
719.185845	-3.020800	3.709200	-11.204000	25.019461	0.000526	20.787451
720.187442	-2.990300	3.709400	-11.091000	25.020653	0.000529	20.784855
721.188015	-2.997300	3.709400	-11.117000	25.003823	0.000528	20.786453
722.184400	-3.004900	3.708700	-11.143000	25.012548	0.000527	20.786203
723.187774	-2.977800	3.708000	-11.041000	25.006657	0.000527	20.777444
724.188818	-2.986700	3.707600	-11.073000	25.011529	0.000527	20.790870
725.186679	-2.979600	3.708000	-11.048000	25.029155	0.000526	20.786277
726.190929	-3.013200	3.705600	-11.165000	24.994002	0.000528	20.789872
727.185262	-3.001200	3.706200	-11.123000	24.991217	0.000528	20.777593
728.186516	-2.990100	3.706600	-11.082000	24.985499	0.000527	20.785130
729.186914	-2.987700	3.707000	-11.074000	24.988830	0.000526	20.792267
730.187121	-2.986700	3.707700	-11.073000	25.018365	0.000526	20.785403
731.188606	-3.006100	3.705600	-11.138000	25.040170	0.000526	20.805395
732.191953	-2.999500	3.705900	-11.115000	25.040841	0.000527	20.798481
733.189460	-3.006700	3.704500	-11.138000	25.043576	0.000525	20.816874
734.190634	-3.002500	3.704900	-11.123000	25.050511	0.000524	20.789222
735.193449	-2.997300	3.703600	-11.100000	25.060754	0.000525	20.789072
736.195654	-2.998000	3.703800	-11.103000	25.063912	0.000526	20.813105
737.195543	-2.989300	3.705100	-11.075000	25.102941	0.000525	20.793489
738.191311	-2.992600	3.703500	-11.082000	25.113928	0.000524	20.811631
739.188389	-2.986600	3.703600	-11.060000	25.115422	0.000526	20.824510
740.195446	-3.016800	3.703200	-11.171000	25.099884	0.000525	20.793740
741.191244	-2.994400	3.702500	-11.086000	25.089567	0.000526	20.794762
742.188973	-3.013500	3.703300	-11.159000	25.102570	0.000524	20.803548
743.196948	-3.000300	3.703800	-11.111000	25.133417	0.000526	20.789470
744.192714	-2.997900	3.703100	-11.100000	25.153655	0.000523	20.799355
745.193498	-2.997900	3.702400	-11.099000	25.155670	0.000525	20.815128
746.194893	-3.002400	3.702100	-11.114000	25.162678	0.000525	20.804620
747.192739	-2.997500	3.702000	-11.096000	25.155841	0.000523	20.795860
748.190392	-2.991500	3.701900	-11.074000	25.185497	0.000525	20.804295
749.195037	-3.015600	3.701200	-11.160000	25.183037	0.000526	20.817946
750.193876	-3.007600	3.700500	-11.129000	25.191637	0.000525	20.795286
751.192996	-3.010000	3.700500	-11.138000	25.216322	0.000522	20.812482
752.194844	-3.006900	3.702500	-11.132000	25.196684	0.000522	20.780438
753.191119	-3.000400	3.700100	-11.101000	25.169090	0.000523	20.805842
754.194616	-2.991900	3.701700	-11.075000	25.146446	0.000522	20.790696
755.194417	-2.988900	3.701900	-11.063000	25.110896	0.000521	20.805742
756.195177	-3.018200	3.700200	-11.167000	25.094365	0.000520	20.799104
757.196891	-2.996500	3.699200	-11.084000	25.122309	0.000522	20.786853
758.196212	-2.994100	3.699200	-11.074000	25.075275	0.000521	20.805072
759.194847	-3.001900	3.698900	-11.103000	25.138543	0.000521	20.820220
760.194814	-3.006800	3.699900	-11.124000	25.118755	0.000522	20.806519
761.197706	-2.994100	3.699500	-11.076000	25.120246	0.000520	20.800430
762.194735	-2.989400	3.699400	-11.058000	25.117041	0.000521	20.810488
763.197753	-2.994900	3.697400	-11.072000	25.164149	0.000518	20.814157
764.197997	-3.015900	3.698600	-11.154000	25.139465	0.000521	20.831102
765.198050	-2.991200	3.698700	-11.063000	25.134569	0.000521	20.819075
766.204756	-3.013400	3.697000	-11.140000	25.088629	0.000520	20.818002
767.200944	-3.023200	3.697600	-11.178000	25.130768	0.000518	20.817630
768.197899	-3.018200	3.697200	-11.158000	25.155674	0.000521	20.808969
769.206249	-2.969900	3.697300	-10.980000	25.127684	0.000518	20.817379
770.197723	-2.992700	3.696600	-11.062000	25.114385	0.000520	20.825839
771.203209	-2.990300	3.696800	-11.054000	25.113067	0.000517	20.814085
772.203715	-2.991000	3.695900	-11.054000	25.098647	0.000519	20.808145
773.199251	-2.988600	3.696400	-11.045000	25.148864	0.000518	20.814934
774.204628	-3.006500	3.695200	-11.108000	25.186300	0.000518	20.817429
775.203639	-2.991600	3.696100	-11.057000	25.200172	0.000519	20.823295
776.202813	-2.977400	3.695800	-11.003000	25.145160	0.000520	20.831129
777.200078	-3.000000	3.695100	-11.085000	25.131339	0.000517	20.815833
778.205369	-2.999900	3.694900	-11.083000	25.107948	0.000517	20.844033
779.206834	-2.986100	3.696200	-11.037000	25.130916	0.000517	20.821572
780.203993	-2.997600	3.694000	-11.072000	25.153439	0.000516	20.843708
781.210821	-3.011800	3.694500	-11.126000	25.162761	0.000518	20.821299
782.211480	-3.026600	3.692200	-11.174000	25.167833	0.000516	20.811692
783.206061	-2.993200	3.694100	-11.056000	25.177326	0.000514	20.843981
784.203748	-3.002700	3.693700	-11.090000	25.113541	0.000516	20.834001
785.206423	-3.000000	3.694200	-11.081000	25.108843	0.000517	20.836871
786.206429	-2.992900	3.692900	-11.052000	25.144215	0.000516	20.839664
787.207368	-2.998700	3.693000	-11.074000	25.164302	0.000515	20.848449
788.217285	-3.018300	3.690700	-11.138000	25.169673	0.000515	20.833453
789.209393	-2.969200	3.693500	-10.965000	25.188760	0.000515	20.838865
790.209822	-3.007100	3.690800	-11.098000	25.197563	0.000515	20.838219
791.208776	-3.021300	3.692000	-11.153000	25.208525	0.000516	20.808447
792.209325	-2.997700	3.692100	-11.067000	25.210760	0.000516	20.811640
793.208263	-3.000100	3.691800	-11.075000	25.231617	0.000514	20.848225
794.211870	-3.011500	3.690300	-11.112000	25.248120	0.000514	20.833974
795.211373	-2.988800	3.691300	-11.031000	25.268380	0.000515	20.842935
796.209564	-3.003900	3.691000	-11.085000	25.301861	0.000515	20.848575
797.209603	-2.988900	3.690300	-11.030000	25.263956	0.000512	20.827115
798.213238	-3.007000	3.691000	-11.098000	25.274346	0.000514	20.838969
799.209177	-2.998800	3.690000	-11.065000	25.295299	0.000514	20.855737
800.211255	-3.006500	3.688800	-11.090000	25.296866	0.000513	20.860155
801.210117	-3.011800	3.689500	-11.112000	25.263160	0.000510	20.834376
802.210218	-3.004700	3.689700	-11.085000	25.235593	0.000514	20.842734
803.210668	-3.000500	3.688700	-11.067000	25.230799	0.000511	20.849300
804.211964	-2.994800	3.688700	-11.046000	25.234973	0.000513	20.851594
805.216238	-3.008200	3.688100	-11.094000	25.245587	0.000513	20.843760
806.213206	-2.988300	3.687800	-11.020000	25.229456	0.000513	20.837521
807.217227	-3.003800	3.688500	-11.079000	25.207135	0.000510	20.849725
808.218408	-2.987400	3.688600	-11.019000	25.190553	0.000509	20.839242
809.216324	-3.015400	3.687900	-11.120000	25.195451	0.000512	20.839418
810.217534	-2.992200	3.688000	-11.035000	25.204796	0.000509	20.841213
811.219224	-3.017300	3.685300	-11.119000	25.210713	0.000510	20.864696
812.217292	-2.992500	3.687500	-11.034000	25.200970	0.000510	20.838321
813.218283	-2.978900	3.686800	-10.982000	25.202313	0.000510	20.846306
814.218574	-2.997100	3.687000	-11.050000	25.198035	0.000510	20.865719
815.218012	-2.990100	3.686800	-11.024000	25.239374	0.000509	20.847004
816.219612	-3.013900	3.684800	-11.104000	25.256178	0.000509	20.859607
817.222678	-2.984100	3.685400	-10.997000	25.239922	0.000508	20.859408
818.228129	-2.995500	3.685600	-11.039000	25.235373	0.000509	20.856737
819.224143	-2.972100	3.685600	-10.953000	25.250933	0.000509	20.884212
820.224257	-3.000300	3.685100	-11.056000	25.231199	0.000508	20.869141
821.228243	-3.025300	3.684200	-11.145000	25.207607	0.000509	20.874379
822.222858	-3.007300	3.683400	-11.076000	25.226350	0.000508	20.861429
823.223934	-3.005800	3.683500	-11.071000	25.274546	0.000508	20.854816
824.222278	-3.003500	3.684700	-11.066000	25.259409	0.000508	20.835352
825.224673	-2.989100	3.683900	-11.011000	25.255384	0.000507	20.861180
826.224549	-2.987400	3.683900	-11.004000	25.244868	0.000506	20.861054
827.231660	-2.991500	3.683300	-11.018000	25.258217	0.000507	20.858810
828.224320	-2.999100	3.682300	-11.042000	25.304251	0.000507	20.859510
829.234971	-3.003300	3.683400	-11.062000	25.270370	0.000505	20.868166
830.229206	-3.022600	3.681800	-11.128000	25.218324	0.000507	20.857638
831.225183	-3.003800	3.682600	-11.061000	25.256526	0.000508	20.862802
832.224099	-3.000600	3.682900	-11.050000	25.269950	0.000505	20.849727
833.235186	-3.000100	3.681000	-11.042000	25.288118	0.000504	20.874131
834.229617	-2.981100	3.681400	-10.974000	25.294905	0.000505	20.852497
835.225881	-2.993200	3.681900	-11.019000	25.291646	0.000505	20.881940
836.230441	-2.996200	3.681000	-11.028000	25.305243	0.000505	20.869514
837.229911	-3.013900	3.681000	-11.093000	25.304098	0.000504	20.846555
838.230134	-3.001600	3.680600	-11.047000	25.295276	0.000503	20.884162
839.226827	-2.995600	3.680300	-11.024000	25.293333	0.000504	20.882211
840.230453	-3.005700	3.679700	-11.060000	25.297981	0.000504	20.863172
841.228705	-3.016200	3.679000	-11.095000	25.274344	0.000502	20.865992
842.229027	-3.008700	3.679000	-11.068000	25.299947	0.000502	20.878895
843.229604	-2.995600	3.680200	-11.024000	25.321519	0.000504	20.885855
844.231022	-3.013100	3.677800	-11.081000	25.336557	0.000503	20.883410
845.230466	-2.992100	3.679900	-11.009000	25.316199	0.000503	20.892840
846.233218	-3.014700	3.678400	-11.087000	25.308569	0.000501	20.892766
847.230402	-2.982100	3.679500	-10.972000	25.341897	0.000500	20.899677
848.234426	-2.999000	3.676800	-11.025000	25.345030	0.000503	20.890495
849.230259	-2.995200	3.678200	-11.016000	25.355095	0.000500	20.890170
850.230999	-3.005300	3.678300	-11.053000	25.324078	0.000504	20.897907
851.231662	-3.013800	3.677400	-11.082000	25.268823	0.000502	20.885577
852.238910	-3.015500	3.676000	-11.084000	25.283117	0.000501	20.888549
853.232215	-3.006100	3.676800	-11.052000	25.310406	0.000501	20.893188
854.231009	-3.009800	3.676000	-11.063000	25.296587	0.000500	20.885478
855.240402	-3.007600	3.676300	-11.055000	25.293056	0.000499	20.880511
856.238016	-2.984100	3.677100	-10.972000	25.317292	0.000500	20.880188
857.236831	-2.992500	3.675700	-10.998000	25.302974	0.000503	20.893786
858.233631	-2.985600	3.674500	-10.969000	25.335434	0.000498	20.881809
859.238909	-2.991900	3.676300	-10.997000	25.301955	0.000499	20.900349
860.233412	-2.998100	3.674800	-11.016000	25.303794	0.000498	20.896033
861.231423	-2.989000	3.675900	-10.987000	25.320820	0.000499	20.911703
862.240536	-2.995400	3.674600	-11.006000	25.355439	0.000499	20.903316
863.236559	-2.993100	3.674800	-10.998000	25.358895	0.000496	20.893037
864.236734	-3.004000	3.673600	-11.034000	25.400648	0.000497	20.894184
865.240004	-3.001600	3.674400	-11.028000	25.396623	0.000496	20.881134
866.240624	-3.011200	3.672900	-11.059000	25.404252	0.000498	20.912500
867.235304	-3.013800	3.673100	-11.069000	25.387999	0.000496	20.881010
868.235516	-3.004100	3.673100	-11.033000	25.380019	0.000497	20.905711
869.242667	-3.010000	3.671900	-11.051000	25.353822	0.000495	20.906434
870.235483	-2.997400	3.672500	-11.007000	25.337296	0.000497	20.898376
871.236744	-3.014700	3.672600	-11.071000	25.361081	0.000496	20.904239
872.237257	-3.018000	3.671400	-11.080000	25.368510	0.000496	20.898424
873.235996	-3.002800	3.671900	-11.026000	25.395478	0.000499	20.918862
874.238318	-2.996900	3.671500	-11.002000	25.428480	0.000495	20.883726
875.238792	-3.005900	3.670600	-11.032000	25.414265	0.000495	20.901693
876.240945	-3.004800	3.671600	-11.031000	25.436980	0.000493	20.896053
877.237508	-2.998200	3.670500	-11.004000	25.435586	0.000496	20.887542
878.238703	-3.001000	3.672000	-11.019000	25.435089	0.000492	20.923549
879.239931	-2.992900	3.670300	-10.983000	25.409692	0.000493	20.889515
880.234834	-2.999800	3.669400	-11.006000	25.399227	0.000494	20.863836
881.241902	-2.988300	3.669600	-10.965000	25.443935	0.000492	20.895450
882.239702	-3.021700	3.669800	-11.087000	25.424226	0.000493	20.899367
883.241553	-2.996200	3.669200	-10.993000	25.425445	0.000491	20.908651
884.241148	-2.973800	3.669700	-10.912000	25.411652	0.000492	20.896225
885.243521	-2.998300	3.667600	-10.996000	25.399150	0.000492	20.870871
886.236113	-3.030200	3.666900	-11.110000	25.405885	0.000491	20.891382
887.245482	-2.986500	3.668800	-10.956000	25.408992	0.000491	20.871744
888.240725	-2.980800	3.667900	-10.932000	25.434365	0.000491	20.882523
889.239746	-3.002800	3.665800	-11.006000	25.369226	0.000491	20.864057
890.236725	-3.002900	3.666900	-11.010000	25.341315	0.000490	20.875860
891.236724	-3.001800	3.668600	-11.012000	25.369376	0.000490	20.881751
892.237117	-3.001600	3.665400	-11.001000	25.403074	0.000490	20.859638
893.238550	-2.999000	3.666900	-10.995000	25.419255	0.000491	20.870670
894.239942	-2.995600	3.666300	-10.982000	25.405786	0.000491	20.857620
895.241465	-3.010700	3.666500	-11.038000	25.380583	0.000492	20.885891
896.241905	-3.003900	3.666200	-11.012000	25.391046	0.000490	20.874587
897.240521	-2.985700	3.667000	-10.948000	25.379068	0.000490	20.868724
898.244410	-2.998700	3.665100	-10.990000	25.408864	0.000491	20.864030
899.241687	-2.998100	3.666300	-10.990000	25.399123	0.000486	20.880326
900.240434	-3.027000	3.664300	-11.091000	25.415079	0.000487	20.883546
901.243715	-2.995100	3.665200	-10.976000	25.446640	0.000488	20.859289
902.239032	-3.006100	3.665100	-11.017000	25.414558	0.000486	20.834187
903.242874	-3.001400	3.664100	-10.997000	25.409361	0.000487	20.841296
904.242668	-2.959200	3.665500	-10.846000	25.422758	0.000488	20.846214
905.244311	-3.001800	3.663300	-10.995000	25.469430	0.000486	20.848510
906.245586	-3.004700	3.664200	-11.009000	25.446543	0.000486	20.881001
907.248194	-3.005100	3.663200	-11.007000	25.425020	0.000482	20.840899
908.247148	-3.008200	3.663600	-11.020000	25.427035	0.000483	20.850982
909.246789	-3.002900	3.661800	-10.994000	25.401561	0.000486	20.849110
910.243964	-3.003700	3.662000	-10.998000	25.430464	0.000486	20.844943
911.245060	-2.988400	3.662500	-10.944000	25.415228	0.000483	20.850032
912.245624	-3.016000	3.661700	-11.043000	25.416748	0.000483	20.838756
913.247943	-2.975700	3.663000	-10.899000	25.442963	0.000485	20.847063
914.254350	-3.021900	3.659600	-11.058000	25.464686	0.000485	20.858444
915.252712	-3.007100	3.660800	-11.006000	25.458347	0.000484	20.841174
916.250021	-3.008300	3.661300	-11.014000	25.453324	0.000483	20.861734
917.247689	-3.010700	3.660800	-11.020000	25.441571	0.000485	20.861786
918.250578	-2.992100	3.660900	-10.953000	25.449124	0.000484	20.853249
919.255112	-3.005100	3.658900	-10.995000	25.483993	0.000483	20.848435
920.253167	-3.008000	3.660400	-11.010000	25.514558	0.000482	20.844516
921.253893	-3.010300	3.659100	-11.014000	25.550888	0.000481	20.849232
922.252222	-3.012300	3.659800	-11.023000	25.556702	0.000481	20.843692
923.251667	-2.999000	3.659500	-10.974000	25.528596	0.000479	20.851976
924.253438	-3.004200	3.657200	-10.985000	25.486923	0.000481	20.827671
925.254975	-2.974600	3.658700	-10.882000	25.485803	0.000480	20.844089
926.256356	-2.994800	3.658700	-10.956000	25.485580	0.000481	20.831064
927.255409	-3.000000	3.657500	-10.971000	25.503819	0.000481	20.831362
928.257409	-3.011300	3.657900	-11.013000	25.505108	0.000483	20.844035
929.256674	-3.000300	3.658800	-10.976000	25.518306	0.000477	20.849702
930.257336	-2.996700	3.657400	-10.959000	25.495343	0.000477	20.833755
931.257349	-2.983000	3.658900	-10.914000	25.491543	0.000478	20.841319
932.257385	-2.999200	3.656600	-10.966000	25.513906	0.000480	20.826318
933.257945	-2.995900	3.656600	-10.954000	25.514553	0.000478	20.862054
934.260676	-2.983100	3.656700	-10.908000	25.474143	0.000479	20.853716
935.258060	-2.991100	3.656300	-10.935000	25.397052	0.000478	20.817558
936.256348	-3.006700	3.656700	-10.994000	25.430950	0.000478	20.831206
937.257349	-3.022300	3.654900	-11.045000	25.455328	0.000479	20.834823
938.257990	-3.008000	3.654800	-10.993000	25.482590	0.000477	20.813837
939.256880	-3.010300	3.655700	-11.003000	25.496283	0.000475	20.829010
940.256103	-2.993100	3.656300	-10.943000	25.503739	0.000477	20.804729
941.260433	-2.989700	3.654400	-10.925000	25.553687	0.000478	20.819802
942.267121	-2.999200	3.654600	-10.960000	25.554778	0.000476	20.834173
943.256733	-3.008900	3.653400	-10.990000	25.546826	0.000476	20.805325
944.260574	-3.016800	3.654000	-11.023000	25.558031	0.000475	20.828906
945.264113	-3.023200	3.652500	-11.041000	25.548067	0.000477	20.815580
946.266667	-3.024500	3.652500	-11.045000	25.569911	0.000474	20.816655
947.264280	-3.020300	3.650900	-11.026000	25.556615	0.000474	20.823216
948.259878	-2.985500	3.652800	-10.904000	25.507062	0.000473	20.836040
949.259165	-2.996600	3.652300	-10.944000	25.460418	0.000475	20.820495
950.260417	-2.999900	3.652100	-10.955000	25.456117	0.000473	20.819021
951.264507	-2.996500	3.652700	-10.945000	25.447618	0.000474	20.837513
952.260274	-2.992800	3.651800	-10.929000	25.467573	0.000473	20.829576
953.262974	-2.999000	3.652800	-10.954000	25.434122	0.000473	20.823013
954.266222	-2.967900	3.652100	-10.838000	25.423660	0.000472	20.815826
955.264371	-2.979200	3.652000	-10.880000	25.479850	0.000470	20.819145
956.263241	-2.988400	3.650700	-10.908000	25.454051	0.000471	20.824058
957.262713	-3.004000	3.649000	-10.960000	25.449675	0.000472	20.832467
958.261958	-3.005600	3.650800	-10.972000	25.473208	0.000471	20.840924
959.264148	-3.006800	3.650000	-10.974000	25.527558	0.000472	20.831493
960.267567	-2.997000	3.650000	-10.938000	25.504744	0.000471	20.819489
961.269586	-2.996500	3.648500	-10.933000	25.498878	0.000470	20.825452
962.266887	-3.005000	3.649900	-10.967000	25.419826	0.000470	20.820037
963.267210	-3.001200	3.649400	-10.952000	25.395171	0.000471	20.826574
964.268873	-3.015200	3.648300	-11.000000	25.421639	0.000470	20.825176
965.268130	-2.987900	3.648400	-10.900000	25.482597	0.000469	20.818112
966.266196	-2.999800	3.647200	-10.940000	25.480560	0.000468	20.840247
967.270951	-2.997000	3.647300	-10.930000	25.523900	0.000468	20.829243
968.266290	-2.981500	3.648600	-10.878000	25.551109	0.000467	20.820058
969.264105	-2.998500	3.646400	-10.933000	25.556426	0.000466	20.811647
970.267526	-3.019500	3.646100	-11.008000	25.507546	0.000467	20.840794
971.264465	-3.014600	3.646200	-10.991000	25.520220	0.000466	20.816064
972.269742	-2.996800	3.646400	-10.927000	25.529312	0.000468	20.816660
973.265333	-3.004700	3.646900	-10.957000	25.507071	0.000464	20.818507
974.267613	-3.019200	3.644500	-11.002000	25.511743	0.000467	20.816086
975.265059	-3.012300	3.645900	-10.982000	25.526578	0.000466	20.819130
976.268923	-3.019800	3.645800	-11.009000	25.546159	0.000465	20.816983
977.270389	-3.000300	3.645200	-10.936000	25.522801	0.000465	20.833354
978.270162	-3.011700	3.644200	-10.975000	25.545437	0.000465	20.826215
979.269341	-2.990900	3.645200	-10.901000	25.583133	0.000462	20.831356
980.265332	-2.995400	3.644100	-10.914000	25.603284	0.000465	20.808446
981.272865	-2.984100	3.645500	-10.877000	25.595037	0.000463	20.826242
982.268612	-3.002200	3.642300	-10.934000	25.544344	0.000464	20.804730
983.270779	-3.004200	3.643100	-10.943000	25.591481	0.000462	20.790902
984.267852	-3.007000	3.642200	-10.951000	25.587333	0.000461	20.825617
985.268960	-3.011100	3.641900	-10.965000	25.549288	0.000462	20.816333
986.269503	-2.994800	3.641900	-10.905000	25.509826	0.000463	20.803255
987.272603	-2.997500	3.642100	-10.916000	25.454085	0.000462	20.801808
988.269187	-3.011700	3.642500	-10.970000	25.488977	0.000461	20.816457
989.270505	-3.009100	3.640000	-10.952000	25.473741	0.000461	20.813011
990.271242	-3.029800	3.640000	-11.027000	25.454011	0.000463	20.820699
991.272998	-2.996400	3.641200	-10.910000	25.436192	0.000460	20.810866
992.274991	-2.963900	3.642100	-10.794000	25.436639	0.000460	20.798988
993.280088	-3.002000	3.641600	-10.931000	25.439623	0.000458	20.823321
994.273545	-2.992300	3.640100	-10.891000	25.491735	0.000456	20.833451
995.276647	-2.997600	3.640000	-10.910000	25.517479	0.000457	20.811889
996.279990	-3.018900	3.638700	-10.984000	25.534749	0.000457	20.818801
997.276390	-2.997800	3.638900	-10.907000	25.471875	0.000459	20.807819
998.278746	-3.016300	3.638300	-10.973000	25.477296	0.000455	20.823219
999.285868	-2.987400	3.639700	-10.873000	25.497473	0.000456	20.792747
1000.281158	-3.009200	3.637700	-10.946000	25.502964	0.000457	20.803003
1001.277212	-2.982900	3.638100	-10.851000	25.516384	0.000457	20.803203
1002.278479	-3.011000	3.637200	-10.951000	25.561834	0.000457	20.804276
1003.277653	-3.004400	3.636700	-10.925000	25.607681	0.000455	20.812862
1004.281754	-3.000500	3.637300	-10.912000	25.618488	0.000455	20.807595
1005.281762	-3.000200	3.636600	-10.910000	25.593889	0.000457	20.805649
1006.282436	-2.994100	3.637900	-10.890000	25.561636	0.000454	20.799336
1007.282788	-3.000400	3.637600	-10.913000	25.552067	0.000455	20.790200
1008.284402	-2.996200	3.636000	-10.894000	25.565462	0.000455	20.796066
1009.291159	-3.007600	3.635600	-10.934000	25.571825	0.000457	20.790128
1010.280948	-3.021400	3.635600	-10.984000	25.546229	0.000455	20.800932
1011.281167	-3.019800	3.636400	-10.979000	25.565364	0.000456	20.778897
1012.285966	-3.003500	3.635000	-10.917000	25.533505	0.000453	20.805224
1013.280581	-3.000200	3.633800	-10.901000	25.524683	0.000454	20.797313
1014.284818	-2.992600	3.634800	-10.877000	25.529256	0.000452	20.803802
1015.284386	-3.003800	3.634300	-10.915000	25.556317	0.000452	20.796364
1016.285906	-3.025700	3.632500	-10.990000	25.548191	0.000450	20.786308
1017.284956	-3.007800	3.633500	-10.928000	25.534301	0.000451	20.811713
1018.283352	-2.998300	3.634100	-10.895000	25.513824	0.000450	20.789252
1019.284853	-2.998400	3.632100	-10.889000	25.529106	0.000450	20.789426
1020.282779	-3.005800	3.633100	-10.919000	25.562926	0.000452	20.770286
1021.283920	-3.014900	3.632700	-10.952000	25.609491	0.000451	20.791447
1022.291034	-2.989800	3.631600	-10.857000	25.564368	0.000448	20.806346
1023.288015	-3.016400	3.631200	-10.951000	25.558603	0.000451	20.798661
1024.294887	-3.006100	3.630600	-10.913000	25.597590	0.000449	20.803675
1025.293591	-3.008600	3.631600	-10.925000	25.613293	0.000448	20.788627
1026.285817	-2.998200	3.630400	-10.884000	25.576369	0.000448	20.783786
1027.286717	-3.009000	3.629800	-10.920000	25.543967	0.000446	20.791074
1028.287073	-2.999100	3.629800	-10.885000	25.582185	0.000447	20.785359
1029.286413	-2.994800	3.630700	-10.873000	25.555647	0.000446	20.808968
1030.286548	-2.999200	3.630200	-10.886000	25.578830	0.000445	20.778672
1031.290281	-2.991600	3.630500	-10.860000	25.588770	0.000448	20.803827
1032.286682	-3.004800	3.630300	-10.907000	25.626737	0.000448	20.770834
1033.287749	-2.984100	3.628800	-10.828000	25.612823	0.000446	20.803328
1034.290547	-2.992100	3.628800	-10.857000	25.611605	0.000447	20.784086
1035.292903	-3.000800	3.628200	-10.886000	25.624549	0.000444	20.777647
1036.290043	-2.992500	3.627900	-10.855000	25.602709	0.000444	20.778945
1037.290517	-3.005400	3.627400	-10.901000	25.608549	0.000445	20.781966
1038.291215	-2.992900	3.626900	-10.854000	25.588669	0.000445	20.776224
1039.290991	-2.970600	3.628400	-10.778000	25.607951	0.000445	20.789900
1040.292226	-2.987500	3.626700	-10.834000	25.613169	0.000444	20.785183
1041.290311	-2.987900	3.628400	-10.840000	25.608745	0.000443	20.783111
1042.288489	-2.989700	3.625900	-10.839000	25.631678	0.000445	20.778168
1043.296169	-2.999200	3.624000	-10.868000	25.644825	0.000444	20.774777
1044.292717	-2.984500	3.626900	-10.823000	25.660152	0.000442	20.783533
1045.294870	-2.991500	3.625900	-10.846000	25.664451	0.000441	20.775522
1046.293107	-3.021500	3.623700	-10.949000	25.645542	0.000440	20.776920
1047.293685	-3.002100	3.625100	-10.882000	25.626159	0.000442	20.774522
1048.293394	-2.999800	3.624800	-10.873000	25.659258	0.000441	20.781212
1049.295398	-3.003000	3.624100	-10.882000	25.651578	0.000441	20.756429
1050.295687	-2.972800	3.624900	-10.775000	25.614060	0.000440	20.771379
1051.293610	-2.965300	3.623500	-10.744000	25.621935	0.000440	20.772650
1052.302234	-2.973800	3.623300	-10.774000	25.558122	0.000441	20.777789
1053.299584	-2.999700	3.623100	-10.866000	25.537398	0.000440	20.772623
1054.297959	-2.974900	3.622400	-10.776000	25.560355	0.000440	20.774342
1055.298997	-3.006500	3.623000	-10.892000	25.600931	0.000439	20.769573
1056.296520	-2.989300	3.622400	-10.827000	25.580731	0.000437	20.782003
1057.303267	-3.002000	3.621800	-10.871000	25.561796	0.000438	20.767728
1058.306981	-2.995500	3.622200	-10.850000	25.570589	0.000437	20.779404
1059.296318	-3.003600	3.621400	-10.875000	25.581720	0.000436	20.773039
1060.301418	-2.995300	3.621800	-10.847000	25.570365	0.000439	20.781549
1061.298213	-3.010100	3.619900	-10.896000	25.578838	0.000439	20.772989
1062.300341	-2.983700	3.621000	-10.803000	25.583906	0.000438	20.763854
1063.296648	-2.981500	3.619500	-10.791000	25.610691	0.000435	20.757089
1064.304694	-2.970600	3.620400	-10.754000	25.603261	0.000436	20.772387
1065.302976	-3.004200	3.618900	-10.871000	25.584522	0.000436	20.767318
1066.302697	-3.006600	3.619000	-10.879000	25.578358	0.000436	20.768239
1067.302929	-2.982100	3.618500	-10.788000	25.583850	0.000433	20.744831
1068.307019	-2.997600	3.618800	-10.847000	25.610882	0.000434	20.771507
1069.302314	-2.992300	3.618600	-10.827000	25.573162	0.000433	20.759702
1070.305130	-2.996500	3.617800	-10.839000	25.574005	0.000435	20.758652
1071.306477	-2.992000	3.618700	-10.827000	25.611625	0.000433	20.775097
1072.299789	-3.000200	3.617900	-10.854000	25.664151	0.000432	20.760522
1073.302055	-3.001300	3.616600	-10.854000	25.694760	0.000432	20.758075
1074.300933	-3.002000	3.616900	-10.857000	25.670111	0.000433	20.785001
1075.305133	-3.024800	3.615400	-10.935000	25.662108	0.000432	20.785972
1076.303740	-2.996200	3.615500	-10.831000	25.644715	0.000432	20.750958
1077.304449	-2.992300	3.615400	-10.818000	25.638029	0.000431	20.782650
1078.304642	-2.995900	3.616000	-10.832000	25.609406	0.000430	20.750109
1079.301593	-2.989800	3.616100	-10.811000	25.642899	0.000430	20.759566
1080.304750	-2.993800	3.615500	-10.823000	25.667967	0.000429	20.785218
1081.304407	-2.993200	3.615500	-10.820000	25.647418	0.000428	20.775010
1082.305466	-2.996600	3.614100	-10.829000	25.664586	0.000430	20.752898
1083.303687	-3.018200	3.613300	-10.905000	25.622893	0.000428	20.766026
1084.310050	-2.992600	3.614300	-10.815000	25.588254	0.000431	20.762056
1085.306335	-2.994300	3.613700	-10.819000	25.585147	0.000429	20.752772
1086.306950	-3.028800	3.611300	-10.937000	25.604180	0.000429	20.767146
1087.312446	-3.021300	3.611900	-10.912000	25.611037	0.000429	20.745109
1088.315986	-3.007000	3.612200	-10.861000	25.662968	0.000429	20.775929
1089.306588	-3.022900	3.612300	-10.918000	25.660358	0.000425	20.756712
1090.311297	-2.993100	3.612200	-10.810000	25.636405	0.000426	20.766320
1091.308541	-3.028600	3.611700	-10.937000	25.598760	0.000426	20.783514
1092.309745	-2.994200	3.611500	-10.811000	25.609169	0.000425	20.767889
1093.308142	-2.993800	3.611300	-10.811000	25.571053	0.000426	20.771809
1094.306262	-2.990200	3.612400	-10.800000	25.569759	0.000427	20.736843
1095.310276	-3.006300	3.610300	-10.853000	25.624477	0.000424	20.775677
1096.311962	-2.998500	3.610100	-10.824000	25.680852	0.000424	20.762597
1097.310322	-2.987900	3.610300	-10.786000	25.687832	0.000426	20.758702
1098.311853	-3.009800	3.610500	-10.866000	25.684577	0.000423	20.755433
1099.309094	-2.997100	3.609000	-10.816000	25.651706	0.000425	20.775998
1100.310709	-3.004200	3.607000	-10.835000	25.662315	0.000422	20.779067
1101.309818	-2.985900	3.607900	-10.772000	25.680975	0.000423	20.761299
1102.306977	-3.013200	3.607900	-10.870000	25.693247	0.000422	20.771254
1103.307300	-3.003400	3.607100	-10.831000	25.704353	0.000422	20.753484
1104.310796	-2.993200	3.608400	-10.800000	25.656872	0.000421	20.747995
1105.309544	-2.989900	3.606400	-10.780000	25.661989	0.000421	20.770679
1106.306489	-3.005200	3.606700	-10.839000	25.670264	0.000420	20.772826
1107.310025	-2.997100	3.606700	-10.808000	25.674090	0.000420	20.752961
1108.311803	-3.009100	3.605400	-10.848000	25.699904	0.000422	20.757077
1109.314362	-2.992200	3.607500	-10.793000	25.754142	0.000419	20.784055
1110.313503	-3.001600	3.604900	-10.820000	25.751410	0.000417	20.769457
1111.312567	-3.020200	3.604800	-10.886000	25.722440	0.000421	20.760746
1112.316864	-2.995500	3.606300	-10.802000	25.691330	0.000422	20.780709
1113.308205	-2.982200	3.604900	-10.749000	25.661564	0.000419	20.770726
1114.307892	-2.976600	3.604800	-10.730000	25.650657	0.000419	20.769254
1115.309721	-3.008300	3.604900	-10.843000	25.698410	0.000417	20.767430
1116.312433	-2.998700	3.603800	-10.806000	25.700026	0.000420	20.777588
1117.310979	-2.994800	3.604100	-10.792000	25.694309	0.000418	20.750983
1118.310496	-3.026100	3.602900	-10.901000	25.654607	0.000416	20.755677
1119.312367	-3.025400	3.600900	-10.894000	25.687455	0.000417	20.780609
1120.311038	-3.003100	3.603300	-10.820000	25.682035	0.000417	20.778959
1121.314007	-2.986900	3.602600	-10.760000	25.665836	0.000415	20.760792
1122.313970	-2.969200	3.603300	-10.698000	25.683375	0.000415	20.770348
1123.312617	-2.993400	3.602400	-10.782000	25.630179	0.000416	20.770025
1124.312669	-3.009900	3.600700	-10.837000	25.631272	0.000414	20.776338
1125.314968	-3.010400	3.601600	-10.841000	25.622972	0.000416	20.776537
1126.317007	-3.017300	3.601700	-10.866000	25.618002	0.000414	20.766803
1127.316602	-3.008500	3.600100	-10.830000	25.658802	0.000415	20.790712
1128.316661	-3.026700	3.601100	-10.898000	25.628637	0.000411	20.774640
1129.322074	-2.972300	3.602100	-10.706000	25.618523	0.000413	20.759740
1130.317165	-3.007800	3.600600	-10.829000	25.591813	0.000412	20.787916
1131.316794	-2.988400	3.600100	-10.758000	25.619766	0.000413	20.789912
1132.323000	-2.994900	3.597900	-10.773000	25.665684	0.000413	20.771070
1133.315092	-2.995300	3.597700	-10.776000	25.691722	0.000413	20.786318
1134.320999	-2.995300	3.597100	-10.774000	25.699399	0.000411	20.773166
1135.319179	-2.991600	3.598400	-10.764000	25.655444	0.000410	20.781175
1136.318369	-2.973500	3.597500	-10.696000	25.697536	0.000409	20.769871
1137.320581	-2.995300	3.598100	-10.776000	25.709339	0.000411	20.782676
1138.319243	-3.003100	3.597500	-10.802000	25.664016	0.000412	20.773663
1139.323730	-3.005500	3.597400	-10.811000	25.615765	0.000408	20.769298
1140.321904	-3.000000	3.596700	-10.789000	25.612087	0.000410	20.780777
1141.327188	-2.985000	3.596700	-10.736000	25.648142	0.000409	20.779531
1142.321074	-3.000200	3.596300	-10.789000	25.663422	0.000407	20.766902
1143.323555	-3.002000	3.595500	-10.792000	25.736443	0.000407	20.787614
1144.322003	-2.998100	3.594600	-10.776000	25.752618	0.000408	20.790111
1145.325708	-2.994300	3.596400	-10.769000	25.787723	0.000406	20.765629
1146.325450	-3.013300	3.595100	-10.832000	25.774704	0.000406	20.783372
1147.326439	-3.034500	3.593700	-10.904000	25.779473	0.000407	20.771093
1148.327302	-3.028400	3.593000	-10.880000	25.735150	0.000405	20.805282
1149.326517	-3.006700	3.594500	-10.806000	25.709088	0.000405	20.787165
1150.326624	-2.968900	3.593200	-10.667000	25.744169	0.000405	20.762183
1151.328661	-2.995100	3.593400	-10.762000	25.742780	0.000406	20.792557
1152.326610	-2.982900	3.593500	-10.718000	25.742876	0.000405	20.769894
1153.321882	-3.020100	3.592500	-10.849000	25.731498	0.000407	20.779802
1154.322601	-2.986000	3.594000	-10.730000	25.727746	0.000404	20.785517
1155.327144	-2.995500	3.593300	-10.764000	25.726701	0.000405	20.800588
1156.322527	-2.998000	3.591500	-10.766000	25.713112	0.000404	20.789784
1157.325984	-2.995900	3.590400	-10.754000	25.730898	0.000402	20.773510
1158.325205	-3.004800	3.590900	-10.789000	25.686798	0.000404	20.780897
1159.323285	-2.978100	3.590900	-10.693000	25.666721	0.000401	20.781121
1160.326560	-2.978400	3.590800	-10.693000	25.681256	0.000401	20.796669
1161.327792	-3.010900	3.589700	-10.807000	25.706375	0.000405	20.796294
1162.323506	-3.009600	3.590200	-10.803000	25.718126	0.000404	20.777750
1163.326419	-3.001200	3.589400	-10.771000	25.732784	0.000399	20.774930
1164.341939	-2.993200	3.588300	-10.739000	25.785680	0.000400	20.794397
1165.327851	-2.991000	3.589500	-10.735000	25.738847	0.000399	20.794296
1166.328267	-2.990100	3.590400	-10.735000	25.691764	0.000401	20.778299
1167.325734	-2.994700	3.588100	-10.745000	25.692110	0.000401	20.805200
1168.330645	-2.979900	3.589100	-10.694000	25.665127	0.000400	20.797064
1169.325631	-3.008300	3.586600	-10.789000	25.676282	0.000398	20.795466
1170.331294	-3.006500	3.587300	-10.784000	25.715266	0.000400	20.793371
1171.331225	-3.004800	3.586100	-10.775000	25.740110	0.000398	20.795091
1172.329823	-3.014500	3.587000	-10.812000	25.715887	0.000398	20.782140
1173.327392	-2.991300	3.585600	-10.725000	25.693823	0.000397	20.806446
1174.338092	-3.013900	3.586300	-10.807000	25.707885	0.000396	20.792120
1175.329536	-2.981900	3.586000	-10.692000	25.731238	0.000399	20.794715
1176.326930	-3.021400	3.584800	-10.830000	25.749677	0.000396	20.801856
1177.334785	-3.009900	3.585300	-10.791000	25.771264	0.000396	20.810262
1178.329808	-3.006300	3.584900	-10.777000	25.817848	0.000394	20.803951
1179.332136	-2.986600	3.585300	-10.707000	25.839062	0.000395	20.800605
1180.333753	-3.010600	3.585000	-10.791000	25.853247	0.000395	20.795889
1181.331553	-3.005800	3.583000	-10.769000	25.850564	0.000397	20.801727
1182.328362	-3.003800	3.583100	-10.762000	25.853272	0.000394	20.815828
1183.335002	-3.003000	3.583500	-10.761000	25.893938	0.000394	20.810687
1184.328971	-2.977500	3.584300	-10.671000	25.870885	0.000396	20.792269
1185.335381	-2.988400	3.583700	-10.708000	25.854886	0.000396	20.822665
1186.335890	-3.013000	3.582300	-10.792000	25.831683	0.000395	20.807417
1187.328732	-3.024800	3.582000	-10.833000	25.847210	0.000391	20.806893
1188.335696	-2.977200	3.583100	-10.667000	25.868997	0.000394	20.807442
1189.333124	-2.975000	3.583300	-10.660000	25.865517	0.000393	20.802525
1190.332242	-2.969800	3.582700	-10.639000	25.842812	0.000391	20.803897
1191.328993	-3.007800	3.580600	-10.769000	25.741772	0.000392	20.803873
1192.333910	-2.980300	3.580600	-10.670000	25.737126	0.000391	20.790671
1193.329546	-3.000800	3.579400	-10.739000	25.770144	0.000393	20.802974
1194.328914	-3.001300	3.580000	-10.744000	25.752677	0.000388	20.787325
1195.332734	-2.991600	3.579400	-10.707000	25.732752	0.000389	20.814252
1196.330890	-2.997600	3.580000	-10.730000	25.699682	0.000388	20.820391
1197.332926	-2.995000	3.579200	-10.719000	25.745743	0.000389	20.826352
1198.332369	-2.995100	3.578600	-10.717000	25.745248	0.000388	20.819217
1199.336381	-2.998600	3.579800	-10.734000	25.766515	0.000388	20.805492
1200.333694	-3.009100	3.577500	-10.764000	25.826312	0.000389	20.819565
1201.335189	-3.010100	3.578200	-10.769000	25.820252	0.000387	20.807788
1202.333661	-3.016900	3.577100	-10.792000	25.808353	0.000387	20.813378
1203.335914	-3.015800	3.576000	-10.784000	25.813345	0.000387	20.806065
1204.332057	-3.012600	3.577200	-10.776000	25.779381	0.000387	20.813201
1205.340448	-2.974100	3.577500	-10.639000	25.724574	0.000386	20.819315
1206.335204	-2.985600	3.576800	-10.678000	25.731333	0.000384	20.829423
1207.334153	-2.987500	3.576800	-10.685000	25.736897	0.000385	20.829321
1208.335644	-2.978800	3.577200	-10.655000	25.742984	0.000385	20.839229
1209.332708	-2.978400	3.575400	-10.648000	25.750041	0.000384	20.821186
1210.337409	-3.012800	3.574600	-10.768000	25.794363	0.000383	20.809757
1211.340421	-3.018200	3.575300	-10.790000	25.784030	0.000383	20.820240
1212.337191	-3.001500	3.575700	-10.732000	25.722884	0.000385	20.824255
1213.333876	-3.016400	3.573800	-10.779000	25.731828	0.000384	20.826127
1214.334575	-3.023500	3.574700	-10.807000	25.727804	0.000384	20.844370
1215.336140	-3.032200	3.572500	-10.831000	25.769568	0.000382	20.825628
1216.333832	-3.014900	3.572500	-10.770000	25.754885	0.000382	20.834113
1217.338020	-3.000100	3.572500	-10.717000	25.753071	0.000382	20.835610
1218.333984	-3.002800	3.572100	-10.726000	25.779008	0.000382	20.834162
1219.336411	-3.006100	3.572300	-10.737000	25.808223	0.000383	20.846912
1220.334774	-3.001100	3.572000	-10.719000	25.830882	0.000382	20.816095
1221.344234	-3.002600	3.570900	-10.720000	25.853586	0.000383	20.855022
1222.334879	-2.996800	3.570800	-10.701000	25.836122	0.000381	20.833686
1223.342402	-2.998900	3.569800	-10.705000	25.881634	0.000379	20.834835
1224.341836	-2.985700	3.572200	-10.665000	25.881683	0.000380	20.834885
1225.337162	-3.003000	3.571100	-10.723000	25.836816	0.000379	20.845763
1226.342460	-3.003800	3.569900	-10.722000	25.857411	0.000378	20.846538
1227.345092	-3.010200	3.568900	-10.742000	25.798160	0.000377	20.849132
1228.340916	-3.002800	3.569400	-10.717000	25.812521	0.000376	20.846014
1229.336973	-3.024300	3.569300	-10.794000	25.815726	0.000378	20.839751
1230.339493	-2.998200	3.568300	-10.698000	25.792522	0.000380	20.827823
1231.340772	-2.997900	3.568300	-10.697000	25.783851	0.000378	20.840922
1232.340698	-3.016400	3.567900	-10.761000	25.787427	0.000376	20.845937
1233.338662	-2.985500	3.568900	-10.654000	25.782884	0.000374	20.843744
1234.342371	-2.980000	3.568100	-10.632000	25.772472	0.000376	20.852726
1235.343599	-2.997000	3.566600	-10.688000	25.797838	0.000376	20.836481
1236.342879	-3.009400	3.565700	-10.730000	25.805591	0.000374	20.844268
1237.344957	-3.004500	3.567000	-10.716000	25.820446	0.000375	20.841173
1238.346933	-3.019800	3.566300	-10.769000	25.779180	0.000375	20.838127
1239.344574	-3.012300	3.565700	-10.740000	25.780223	0.000373	20.864778
1240.341537	-2.998800	3.565900	-10.693000	25.814631	0.000373	20.830591
1241.343929	-3.019700	3.565300	-10.765000	25.845762	0.000374	20.861387
1242.340428	-2.997900	3.565600	-10.689000	25.832517	0.000373	20.839548
1243.344588	-3.023200	3.565400	-10.777000	25.861012	0.000373	20.841146
1244.343394	-3.008300	3.563400	-10.719000	25.896587	0.000371	20.844167
1245.342078	-3.035600	3.563400	-10.817000	25.882304	0.000372	20.853999
1246.344525	-3.015400	3.565600	-10.749000	25.921004	0.000371	20.844515
1247.348434	-3.005300	3.563700	-10.710000	25.909207	0.000370	20.849732
1248.343934	-3.002800	3.562800	-10.697000	25.889033	0.000372	20.856018
1249.343963	-3.024400	3.562000	-10.772000	25.847052	0.000370	20.841347
1250.346041	-2.972700	3.564200	-10.594000	25.832892	0.000370	20.864105
1251.344905	-3.008100	3.562000	-10.714000	25.844939	0.000370	20.870043
1252.347355	-2.995700	3.563200	-10.674000	25.841563	0.000370	20.842945
1253.349824	-2.990800	3.563900	-10.659000	25.869014	0.000368	20.855821
1254.344860	-3.010300	3.562300	-10.722000	25.880142	0.000368	20.868422
1255.346761	-2.988600	3.561100	-10.642000	25.874653	0.000369	20.868124
1256.353270	-2.994800	3.561400	-10.665000	25.873185	0.000370	20.847210
1257.344677	-3.011300	3.559800	-10.719000	25.865831	0.000368	20.863056
1258.347018	-3.006100	3.559800	-10.700000	25.863671	0.000369	20.874161
1259.354582	-2.993900	3.560800	-10.660000	25.865782	0.000366	20.871540
1260.348554	-2.994800	3.560500	-10.662000	25.859151	0.000368	20.847337
1261.349790	-2.993700	3.558800	-10.653000	25.879942	0.000367	20.857790
1262.351312	-3.005600	3.559500	-10.698000	25.936233	0.000367	20.858391
1263.347544	-2.990600	3.558900	-10.643000	25.950565	0.000367	20.871840
1264.353843	-2.996000	3.559700	-10.664000	25.879843	0.000366	20.859588
1265.351610	-3.010300	3.557800	-10.709000	25.824418	0.000365	20.866499
1266.353330	-3.009500	3.559300	-10.711000	25.859471	0.000365	20.870416
1267.352381	-3.010400	3.557200	-10.708000	25.882250	0.000364	20.875281
1268.356839	-2.985000	3.558700	-10.622000	25.914694	0.000365	20.855718
1269.352198	-3.006800	3.556900	-10.694000	25.932206	0.000365	20.863828
1270.360573	-2.999600	3.556000	-10.665000	25.952103	0.000364	20.880971
1271.353425	-2.979300	3.557100	-10.597000	25.957468	0.000365	20.878300
1272.358304	-2.991100	3.556100	-10.636000	25.961493	0.000361	20.866223
1273.361300	-3.005800	3.555200	-10.685000	25.929323	0.000364	20.870888
1274.357229	-3.001300	3.555100	-10.669000	25.852364	0.000362	20.875130
1275.357687	-3.007800	3.554700	-10.691000	25.838575	0.000363	20.874555
1276.359537	-2.979800	3.556100	-10.596000	25.827994	0.000359	20.874358
1277.358030	-2.995500	3.554800	-10.647000	25.831321	0.000361	20.891923
1278.356413	-3.003100	3.554300	-10.673000	25.881653	0.000359	20.875155
1279.358126	-2.983700	3.554700	-10.605000	25.897327	0.000359	20.905598
1280.362829	-2.990100	3.553000	-10.623000	25.888432	0.000361	20.887654
1281.357086	-3.012000	3.553200	-10.701000	25.886346	0.000358	20.886981
1282.356845	-3.002800	3.552400	-10.666000	25.884557	0.000359	20.876176
1283.365808	-3.009400	3.551300	-10.685000	25.927483	0.000357	20.879470
1284.360676	-3.011800	3.552600	-10.698000	25.884382	0.000358	20.917722
1285.364799	-2.991200	3.552400	-10.625000	25.836089	0.000357	20.872532
1286.361144	-2.998200	3.551800	-10.648000	25.792714	0.000361	20.871162
1287.361443	-3.004900	3.552100	-10.673000	25.822996	0.000358	20.885932
1288.359782	-3.027500	3.550400	-10.747000	25.824015	0.000356	20.913031
1289.362163	-2.994100	3.551500	-10.633000	25.798078	0.000357	20.887928
1290.362788	-3.023900	3.550000	-10.734000	25.786723	0.000359	20.887427
1291.359630	-2.993800	3.551600	-10.631000	25.833206	0.000356	20.898083
1292.364491	-3.013000	3.548400	-10.690000	25.836734	0.000357	20.884559
1293.361189	-2.997700	3.550200	-10.641000	25.837056	0.000357	20.899106
1294.363276	-3.033500	3.548000	-10.761000	25.900329	0.000356	20.902924
1295.366247	-3.007200	3.548000	-10.668000	25.941836	0.000357	20.911905
1296.363989	-3.016600	3.547100	-10.699000	25.951399	0.000356	20.917244
1297.362352	-3.029100	3.547300	-10.744000	25.971196	0.000354	20.897781
1298.361576	-2.985700	3.547900	-10.592000	25.970401	0.000354	20.905516
1299.360743	-2.999300	3.547700	-10.639000	25.995835	0.000355	20.916369
1300.361416	-3.000700	3.547400	-10.643000	25.965232	0.000353	20.910754
1301.361681	-2.996400	3.547500	-10.629000	25.936739	0.000352	20.893984
1302.367234	-2.977500	3.546400	-10.559000	25.896846	0.000354	20.904166
1303.365549	-3.008000	3.545400	-10.664000	25.929983	0.000353	20.907110
1304.364666	-2.995100	3.546900	-10.623000	25.962001	0.000350	20.925524
1305.369852	-3.016100	3.545200	-10.692000	25.981176	0.000351	20.909228
1306.370584	-3.003600	3.544400	-10.645000	25.959021	0.000351	20.924426
1307.368210	-3.008600	3.544800	-10.664000	25.942327	0.000349	20.899123
1308.370180	-3.025700	3.543900	-10.722000	25.912988	0.000351	20.911847
1309.370331	-3.016600	3.542500	-10.685000	25.871330	0.000350	20.911723
1310.364838	-2.999000	3.544600	-10.629000	25.953778	0.000348	20.884550
1311.371766	-2.985200	3.545400	-10.583000	25.951167	0.000349	20.917011
1312.370711	-2.976600	3.545300	-10.553000	25.942399	0.000349	20.925746
1313.366581	-2.974900	3.543700	-10.540000	25.949627	0.000346	20.918783
1314.370417	-2.996000	3.542000	-10.611000	25.971685	0.000347	20.896376
1315.367909	-2.991600	3.541900	-10.595000	25.977250	0.000350	20.895802
1316.370870	-3.000000	3.542000	-10.625000	25.985048	0.000347	20.919282
1317.368990	-2.995800	3.541900	-10.610000	25.998883	0.000347	20.910423
1318.372528	-3.000500	3.542300	-10.627000	25.935592	0.000346	20.930760
1319.371531	-2.996200	3.542300	-10.613000	25.907125	0.000347	20.905483
1320.369235	-2.995600	3.540400	-10.605000	25.904616	0.000346	20.919557
1321.369450	-3.031200	3.539900	-10.729000	25.916985	0.000348	20.914914
1322.372871	-2.990100	3.540700	-10.587000	25.865365	0.000345	20.908102
1323.372118	-2.993200	3.538700	-10.591000	25.806289	0.000345	20.903761
1324.373365	-2.981500	3.539500	-10.552000	25.852943	0.000344	20.913167
1325.378353	-3.015200	3.538500	-10.668000	25.901880	0.000344	20.917282
1326.374762	-2.997600	3.539000	-10.607000	25.920561	0.000345	20.896223
1327.376004	-3.004800	3.538600	-10.632000	25.894130	0.000342	20.914713
1328.378139	-2.991100	3.538300	-10.582000	25.886531	0.000344	20.920355
1329.374505	-2.989000	3.538300	-10.575000	25.900614	0.000345	20.913641
1330.384622	-3.039800	3.536600	-10.749000	25.949227	0.000343	20.904159
1331.378825	-2.990700	3.536700	-10.576000	25.949302	0.000344	20.916560
1332.372639	-3.009100	3.535700	-10.638000	25.934520	0.000343	20.894126
1333.373610	-2.989100	3.536300	-10.570000	25.949077	0.000343	20.887888
1334.379150	-2.977200	3.536200	-10.527000	25.999452	0.000343	20.895349
1335.381652	-3.009400	3.536000	-10.641000	26.030773	0.000343	20.891256
1336.378253	-3.021800	3.534300	-10.679000	26.016988	0.000342	20.900639
1337.379914	-2.979800	3.534300	-10.531000	25.966640	0.000340	20.897471
1338.388015	-2.969100	3.534800	-10.494000	25.939316	0.000341	20.878082
1339.382058	-3.012300	3.533500	-10.643000	25.969073	0.000341	20.891380
1340.377684	-3.008500	3.534500	-10.633000	25.982363	0.000341	20.882449
1341.375719	-3.008200	3.534600	-10.632000	25.988249	0.000339	20.877931
1342.376958	-2.990000	3.532800	-10.561000	26.005412	0.000339	20.905604
1343.379154	-2.979500	3.532600	-10.524000	26.049203	0.000338	20.894600
1344.382420	-2.994200	3.533300	-10.579000	26.018155	0.000338	20.888536
1345.377082	-2.990700	3.533300	-10.565000	26.005586	0.000339	20.903881
1346.381704	-2.990100	3.532800	-10.563000	25.977048	0.000338	20.874264
1347.380641	-2.996600	3.532100	-10.584000	25.955336	0.000339	20.877581
1348.386494	-3.001200	3.530100	-10.594000	25.984649	0.000337	20.908924
1349.382674	-3.005600	3.531900	-10.615000	25.997117	0.000336	20.910546
1350.387246	-3.012000	3.528500	-10.627000	25.975531	0.000338	20.869422
1351.382683	-3.018400	3.530200	-10.655000	25.984350	0.000336	20.891082
1352.380027	-2.984200	3.530100	-10.534000	25.999205	0.000336	20.888463
1353.380670	-3.005400	3.529500	-10.607000	26.010208	0.000337	20.882923
1354.383467	-2.976400	3.529900	-10.505000	25.977891	0.000334	20.886964
1355.385982	-2.986100	3.529200	-10.537000	25.973794	0.000334	20.861987
1356.379629	-3.011300	3.529500	-10.628000	25.926476	0.000334	20.886045
1357.385269	-2.983600	3.529600	-10.530000	25.912737	0.000336	20.882674
1358.387666	-3.035800	3.527800	-10.708000	25.892095	0.000334	20.863361
1359.382352	-3.020000	3.527700	-10.653000	25.893685	0.000332	20.885819
1360.387914	-2.960700	3.528500	-10.446000	25.858907	0.000332	20.870324
1361.383874	-3.001300	3.528200	-10.587000	25.829618	0.000332	20.875989
1362.384066	-3.007500	3.527500	-10.608000	25.901214	0.000335	20.879633
1363.382181	-3.009100	3.525900	-10.609000	25.901958	0.000332	20.878010
1364.382431	-3.000600	3.525800	-10.579000	25.903524	0.000332	20.853506
1365.385601	-3.012800	3.525700	-10.621000	25.913932	0.000331	20.878185
1366.383039	-3.025100	3.523800	-10.659000	25.934153	0.000331	20.856775
1367.385071	-3.030800	3.524400	-10.681000	25.914206	0.000332	20.853806
1368.386933	-3.019700	3.522900	-10.637000	25.899548	0.000329	20.863262
1369.384352	-3.029200	3.523900	-10.673000	25.901885	0.000330	20.864187
1370.384020	-2.989000	3.524800	-10.535000	25.907100	0.000329	20.860891
1371.391036	-3.003700	3.523700	-10.584000	25.938996	0.000330	20.851210
1372.386538	-3.017600	3.523900	-10.632000	25.961428	0.000329	20.869951
1373.381466	-2.993300	3.522200	-10.542000	25.980059	0.000330	20.842677
1374.384781	-2.977700	3.524300	-10.494000	26.007804	0.000326	20.848268
1375.385067	-3.007000	3.522400	-10.591000	25.920643	0.000329	20.867858
1376.383176	-3.020100	3.522400	-10.637000	25.923947	0.000328	20.859324
1377.387852	-3.004400	3.522800	-10.583000	25.930280	0.000325	20.855729
1378.387069	-2.966000	3.521600	-10.444000	25.921414	0.000326	20.856779
1379.383693	-2.990300	3.521200	-10.529000	25.898089	0.000325	20.864640
1380.388574	-2.983100	3.520600	-10.502000	25.911529	0.000326	20.858228
1381.387820	-3.005400	3.519700	-10.577000	25.923103	0.000324	20.846623
1382.389393	-2.986500	3.519100	-10.509000	25.961458	0.000325	20.850069
1383.386402	-2.992100	3.520100	-10.531000	25.987665	0.000324	20.847474
1384.385537	-2.993500	3.519200	-10.534000	25.972960	0.000325	20.835072
1385.388330	-3.008500	3.520100	-10.589000	26.001502	0.000323	20.853789
1386.389423	-3.006000	3.518100	-10.574000	26.000781	0.000324	20.846427
1387.393774	-3.021400	3.517300	-10.625000	25.939554	0.000323	20.837546
1388.391649	-2.987800	3.519500	-10.515000	25.962777	0.000323	20.850919
1389.388532	-3.016400	3.518800	-10.612000	26.042238	0.000325	20.852518
1390.392162	-2.975200	3.520200	-10.471000	26.077209	0.000323	20.843085
1391.395570	-2.980600	3.517600	-10.483000	26.073086	0.000323	20.857907
1392.391793	-2.975000	3.518600	-10.467000	26.044274	0.000320	20.848400
1393.391434	-2.991700	3.516600	-10.520000	26.015363	0.000321	20.858706
1394.391493	-2.995600	3.517000	-10.535000	26.010098	0.000320	20.847252
1395.389840	-2.998100	3.515400	-10.538000	26.034242	0.000321	20.825993
1396.404450	-3.007000	3.515300	-10.570000	26.014817	0.000321	20.858157
1397.393719	-2.999200	3.515600	-10.543000	26.045443	0.000322	20.834875
1398.391003	-3.006500	3.514700	-10.566000	26.043854	0.000320	20.834701
1399.392282	-2.988000	3.515200	-10.502000	26.004113	0.000320	20.843136
1400.393757	-2.970600	3.513700	-10.437000	26.021896	0.000321	20.824968
1401.391045	-2.999600	3.513600	-10.539000	26.047903	0.000318	20.841614
1402.393545	-2.993700	3.514700	-10.521000	26.085036	0.000320	20.841465
1403.396970	-2.995100	3.513800	-10.524000	26.024505	0.000318	20.840391
1404.392994	-2.986000	3.512900	-10.489000	25.994824	0.000317	20.851822
1405.393286	-3.008400	3.511900	-10.564000	26.033523	0.000317	20.839494
1406.396742	-2.946800	3.513700	-10.353000	26.016160	0.000317	20.854766
1407.399262	-2.982000	3.512300	-10.472000	26.003842	0.000315	20.825796
1408.395569	-3.002200	3.510700	-10.539000	25.983497	0.000313	20.831908
1409.398559	-2.996100	3.511200	-10.519000	25.988316	0.000316	20.821576
1410.403122	-2.998500	3.510300	-10.524000	25.984715	0.000315	20.841192
1411.398491	-2.983900	3.511500	-10.477000	25.991100	0.000314	20.838598
1412.398356	-3.002700	3.510200	-10.539000	26.014322	0.000317	20.838221
1413.395799	-2.968500	3.510500	-10.419000	26.051530	0.000314	20.823448
1414.396354	-3.010500	3.508700	-10.561000	26.093954	0.000316	20.828616
1415.399250	-2.997700	3.509900	-10.520000	26.103838	0.000314	20.822425
1416.402637	-3.010100	3.509600	-10.563000	26.124576	0.000315	20.817185
1417.396523	-2.990100	3.508600	-10.490000	26.135380	0.000312	20.828989
1418.396545	-2.996500	3.508900	-10.514000	26.101478	0.000313	20.821951
1419.402762	-2.988800	3.508100	-10.484000	26.072768	0.000312	20.819183
1420.399690	-3.034500	3.507700	-10.643000	26.123358	0.000312	20.847254
1421.399585	-3.001900	3.507500	-10.529000	26.084988	0.000311	20.841418
1422.399339	-3.017000	3.506800	-10.579000	26.002252	0.000311	20.832732
1423.400094	-3.000600	3.506900	-10.522000	25.959925	0.000310	20.830036
1424.398681	-3.012100	3.506900	-10.562000	25.960572	0.000312	20.819781
1425.400537	-2.985600	3.506600	-10.468000	25.949393	0.000310	20.841267
1426.400365	-2.991600	3.506700	-10.489000	25.880309	0.000309	20.838720
1427.402706	-2.985900	3.505800	-10.466000	25.873355	0.000309	20.842639
1428.404041	-3.018600	3.503600	-10.575000	25.880682	0.000309	20.809224
1429.401228	-2.968500	3.506200	-10.408000	25.929717	0.000310	20.820552
1430.401764	-2.996900	3.505500	-10.504000	25.939156	0.000309	20.821500
1431.400786	-3.025200	3.502500	-10.594000	25.929643	0.000309	20.824744
1432.401877	-3.008100	3.504100	-10.540000	25.947330	0.000307	20.816435
1433.398316	-3.030600	3.502300	-10.612000	25.996364	0.000309	20.814489
1434.401498	-3.007600	3.502900	-10.535000	26.011589	0.000308	20.814613
1435.401890	-3.021100	3.502000	-10.579000	26.033894	0.000308	20.828014
1436.401098	-3.003300	3.502200	-10.517000	26.009228	0.000307	20.832155
1437.402643	-3.007900	3.501700	-10.532000	26.055852	0.000307	20.827316
1438.404312	-2.997300	3.501500	-10.495000	26.004783	0.000305	20.842387
1439.407790	-3.028600	3.501700	-10.604000	26.008284	0.000305	20.812241
1440.398258	-2.979200	3.501000	-10.428000	26.010495	0.000305	20.811143
1441.402593	-3.012800	3.500300	-10.544000	25.946137	0.000306	20.841788
1442.402375	-3.002800	3.499300	-10.507000	25.993755	0.000305	20.810920
1443.401393	-2.969500	3.500900	-10.395000	25.953762	0.000305	20.817682
1444.399725	-3.000400	3.499600	-10.499000	25.916155	0.000304	20.807876
1445.403533	-2.999300	3.498000	-10.490000	25.875511	0.000304	20.818253
1446.406062	-3.008600	3.498800	-10.526000	25.889623	0.000304	20.830533
1447.400395	-3.001100	3.498100	-10.497000	25.855887	0.000304	20.833627
1448.404781	-2.989400	3.498200	-10.457000	25.867141	0.000304	20.814587
1449.407730	-3.017700	3.495800	-10.548000	25.883512	0.000305	20.821075
1450.404209	-2.999000	3.497500	-10.487000	25.917843	0.000302	20.841813
1451.405474	-3.007000	3.497500	-10.517000	25.945440	0.000303	20.815959
1452.411360	-3.022400	3.495600	-10.565000	25.987024	0.000304	20.833554
1453.406627	-3.013000	3.495800	-10.532000	26.001502	0.000301	20.819651
1454.408607	-3.009600	3.496600	-10.523000	26.015338	0.000299	20.820276
1455.404804	-3.026500	3.494500	-10.575000	25.976041	0.000302	20.807822
1456.406034	-2.996800	3.495100	-10.474000	25.965885	0.000302	20.808524
1457.409257	-2.997700	3.494900	-10.476000	26.007266	0.000301	20.817856
1458.405446	-2.984800	3.494200	-10.429000	26.034314	0.000301	20.818005
1459.409066	-3.005300	3.495000	-10.502000	26.074949	0.000302	20.825641
1460.409165	-3.005100	3.493500	-10.497000	26.053737	0.000301	20.813338
1461.406468	-2.996000	3.494600	-10.468000	26.075520	0.000300	20.814361
1462.412791	-2.986200	3.492900	-10.430000	26.071149	0.000298	20.800012
1463.406720	-3.004900	3.493100	-10.495000	26.054681	0.000298	20.818080
1464.406327	-2.996800	3.492700	-10.466000	26.054657	0.000299	20.820900
1465.412806	-2.985800	3.492400	-10.427000	26.002396	0.000298	20.813912
1466.411402	-3.018900	3.492700	-10.543000	26.002149	0.000297	20.819827
1467.407619	-3.007200	3.491500	-10.498000	26.043083	0.000299	20.808797
1468.413887	-3.015200	3.492400	-10.528000	26.011985	0.000295	20.815959
1469.409561	-2.998200	3.490200	-10.463000	25.999117	0.000294	20.814411
1470.413286	-2.999200	3.491300	-10.470000	26.002075	0.000297	20.824020
1471.413613	-3.008600	3.490600	-10.501000	25.986599	0.000298	20.806576
1472.411002	-2.999000	3.490800	-10.468000	25.990377	0.000294	20.817957
1473.409089	-3.015000	3.489700	-10.520000	26.001578	0.000294	20.807874
1474.415593	-3.009900	3.488600	-10.499000	25.999863	0.000295	20.818953
1475.410086	-3.019700	3.490000	-10.538000	25.995766	0.000295	20.816259
1476.412249	-2.995300	3.489700	-10.452000	25.994497	0.000297	20.802182
1477.422458	-3.023400	3.488200	-10.545000	26.058978	0.000294	20.811965
1478.409296	-2.997700	3.487800	-10.455000	26.038708	0.000293	20.820997
1479.416957	-3.014600	3.487100	-10.512000	26.029915	0.000294	20.802205
1480.412533	-3.000000	3.487200	-10.461000	26.047104	0.000291	20.815682
1481.411265	-3.011100	3.487100	-10.500000	26.036126	0.000291	20.799911
1482.417186	-3.019300	3.486000	-10.524000	26.070724	0.000292	20.808121
1483.415762	-3.006200	3.487500	-10.482000	26.056196	0.000290	20.808222
1484.418828	-3.005800	3.485100	-10.475000	26.064839	0.000292	20.802681
1485.415699	-3.018000	3.484500	-10.515000	26.011137	0.000290	20.803727
1486.416093	-2.987200	3.485500	-10.411000	26.022240	0.000289	20.799710
1487.414452	-3.010900	3.485800	-10.494000	26.063671	0.000288	20.810516
1488.419809	-2.972900	3.485100	-10.360000	26.075023	0.000288	20.821922
1489.415098	-3.007200	3.484700	-10.479000	26.049513	0.000291	20.793921
1490.416943	-2.994400	3.484700	-10.434000	26.021844	0.000288	20.784139
1491.420781	-2.986100	3.484600	-10.404000	26.012828	0.000289	20.776503
1492.415301	-2.993600	3.483700	-10.427000	26.009945	0.000287	20.787831
1493.414633	-2.997600	3.483300	-10.441000	25.970924	0.000288	20.809319
1494.419096	-3.025300	3.482200	-10.534000	25.989404	0.000288	20.796118
1495.419248	-3.028400	3.482100	-10.544000	25.993454	0.000286	20.809195
1496.419384	-2.986800	3.481200	-10.396000	26.003216	0.000286	20.796244
1497.415732	-3.007500	3.482000	-10.471000	26.076587	0.000286	20.791726
1498.416963	-3.016100	3.482100	-10.501000	26.130707	0.000286	20.808172
1499.418643	-3.028600	3.481200	-10.542000	26.132868	0.000286	20.794223
1500.416214	-3.005000	3.482600	-10.463000	26.112155	0.000286	20.781470
1501.424862	-3.014600	3.480700	-10.492000	26.104555	0.000284	20.797068
1502.418185	-3.009600	3.480100	-10.473000	26.102294	0.000284	20.791003
1503.423252	-3.007300	3.480000	-10.465000	26.099339	0.000284	20.783292
1504.422361	-3.005400	3.480100	-10.458000	26.051355	0.000282	20.791030
1505.418607	-3.021500	3.478400	-10.509000	26.060445	0.000284	20.776930
1506.421375	-3.018100	3.479400	-10.500000	26.087420	0.000282	20.780325
1507.423031	-2.984800	3.478500	-10.381000	26.117372	0.000285	20.791454
1508.418778	-3.009000	3.477200	-10.461000	26.135502	0.000281	20.788808
1509.420565	-3.014800	3.478200	-10.485000	26.094051	0.000283	20.775134
1510.421102	-2.988900	3.478700	-10.397000	26.081755	0.000282	20.787436
1511.419558	-2.997700	3.476500	-10.420000	26.112703	0.000281	20.774434
1512.421559	-3.000400	3.476500	-10.430000	26.101627	0.000282	20.780849
1513.420495	-2.997300	3.477000	-10.420000	26.140544	0.000281	20.777754
1514.424302	-2.994400	3.476400	-10.409000	26.152440	0.000282	20.767896
1515.423319	-3.016700	3.474900	-10.483000	26.144193	0.000281	20.792800
1516.423413	-2.977000	3.477100	-10.350000	26.127778	0.000279	20.772039
1517.424525	-3.008600	3.474700	-10.454000	26.146305	0.000282	20.770741
1518.425979	-2.994800	3.474800	-10.405000	26.112552	0.000279	20.778551
1519.426366	-2.963800	3.474300	-10.295000	26.041766	0.000278	20.770016
1520.425094	-2.987300	3.475400	-10.381000	26.036427	0.000280	20.800213
1521.426730	-2.979600	3.473800	-10.349000	26.055351	0.000278	20.777975
1522.424675	-3.045800	3.472300	-10.575000	26.031135	0.000278	20.790154
1523.431002	-2.981000	3.474200	-10.355000	26.022343	0.000278	20.755242
1524.426036	-3.020000	3.473600	-10.490000	25.992537	0.000277	20.768444
1525.425913	-3.005600	3.473400	-10.438000	26.018592	0.000276	20.780872
1526.428246	-2.995500	3.473600	-10.404000	26.019635	0.000275	20.781920
1527.432994	-3.036000	3.469900	-10.534000	26.019163	0.000276	20.766272
1528.429008	-3.027200	3.471500	-10.509000	26.078128	0.000278	20.775731
1529.429735	-3.007900	3.471400	-10.442000	26.082005	0.000277	20.764452
1530.435609	-2.997100	3.471000	-10.402000	26.096906	0.000278	20.762829
1531.425279	-3.006300	3.470300	-10.432000	26.083616	0.000275	20.778400
1532.431912	-3.011100	3.470300	-10.449000	26.034737	0.000276	20.760108
1533.432081	-2.985400	3.470300	-10.359000	25.990476	0.000275	20.766374
1534.429753	-2.982300	3.469500	-10.345000	25.980217	0.000276	20.784990
1535.429010	-3.002200	3.469100	-10.413000	26.010396	0.000275	20.751300
1536.430185	-3.014800	3.468100	-10.454000	26.005355	0.000274	20.770892
1537.429524	-3.019300	3.467800	-10.470000	26.036204	0.000273	20.781497
1538.427845	-3.008700	3.467400	-10.431000	26.062310	0.000272	20.748931
1539.429155	-2.982700	3.468800	-10.345000	26.054586	0.000273	20.769620
1540.431828	-3.017900	3.467000	-10.462000	26.081162	0.000274	20.737052
1541.431194	-2.991400	3.467400	-10.371000	26.068097	0.000273	20.773712
1542.426342	-3.025300	3.466700	-10.486000	26.053469	0.000273	20.754273
1543.429577	-3.046700	3.465700	-10.557000	26.069638	0.000272	20.765777
1544.425994	-2.986100	3.465800	-10.348000	26.038417	0.000273	20.763806
1545.432154	-2.999700	3.465500	-10.394000	26.054660	0.000272	20.769221
1546.431814	-3.005700	3.465600	-10.415000	26.119734	0.000271	20.768223
1547.429669	-3.029100	3.465000	-10.495000	26.148545	0.000271	20.761611
1548.433193	-3.005500	3.465100	-10.413000	26.144447	0.000269	20.752751
1549.432794	-3.007000	3.465000	-10.418000	26.114817	0.000272	20.742893
1550.431618	-3.014200	3.463600	-10.439000	26.104707	0.000271	20.741269
1551.429195	-2.995900	3.464800	-10.379000	26.119907	0.000268	20.753697
1552.431539	-3.000600	3.463900	-10.392000	26.156888	0.000269	20.751977
1553.431623	-2.997700	3.463300	-10.381000	26.158999	0.000269	20.747459
1554.433251	-2.996100	3.463800	-10.377000	26.126762	0.000266	20.759164
1555.439176	-3.009500	3.461600	-10.416000	26.145312	0.000269	20.749827
1556.444742	-2.994500	3.462700	-10.368000	26.142433	0.000267	20.757366
1557.434673	-3.000200	3.462400	-10.387000	26.132695	0.000267	20.744262
1558.435430	-3.020300	3.460500	-10.451000	26.142679	0.000268	20.746233
1559.434913	-3.002900	3.461900	-10.395000	26.189219	0.000266	20.749850
1560.433517	-3.016900	3.459900	-10.437000	26.210578	0.000268	20.755667
1561.431238	-3.002800	3.460200	-10.388000	26.160285	0.000264	20.771985
1562.434561	-2.981300	3.459800	-10.314000	26.164010	0.000267	20.758185
1563.438215	-3.016800	3.459100	-10.434000	26.167661	0.000266	20.744784
1564.439154	-3.017600	3.460700	-10.442000	26.161577	0.000263	20.746256
1565.438377	-3.011100	3.458900	-10.414000	26.105421	0.000263	20.751470
1566.437331	-3.002200	3.458400	-10.382000	26.105769	0.000265	20.756087
1567.431385	-2.993900	3.459900	-10.358000	26.133709	0.000264	20.750971
1568.434720	-2.980200	3.458600	-10.306000	26.171509	0.000264	20.751969
1569.437497	-3.003800	3.458200	-10.387000	26.197908	0.000266	20.737245
1570.437471	-2.983300	3.457400	-10.314000	26.149603	0.000264	20.731853
1571.433261	-2.984400	3.457000	-10.315000	26.140338	0.000262	20.742459
1572.438461	-2.986800	3.457300	-10.325000	26.137382	0.000261	20.747548
1573.436031	-2.992700	3.456200	-10.343000	26.156630	0.000262	20.737491
1574.436044	-3.004500	3.456400	-10.384000	26.146397	0.000262	20.749495
1575.438735	-3.015100	3.456300	-10.420000	26.123398	0.000259	20.723065
1576.434385	-3.001700	3.455800	-10.373000	26.126625	0.000258	20.730575
1577.436793	-3.005800	3.455900	-10.387000	26.113586	0.000261	20.726956
1578.441405	-3.013000	3.455300	-10.410000	26.102361	0.000260	20.746973
1579.435524	-2.995800	3.454000	-10.345000	26.084501	0.000260	20.752736
1580.434549	-3.005900	3.454000	-10.381000	26.069550	0.000261	20.750042
1581.437706	-2.974300	3.454600	-10.274000	26.124911	0.000259	20.754458
1582.438023	-3.013600	3.452300	-10.402000	26.156702	0.000258	20.730925
1583.437622	-3.004700	3.452600	-10.373000	26.174258	0.000259	20.753783
1584.449519	-3.006700	3.452300	-10.379000	26.162115	0.000257	20.743952
1585.441196	-2.988700	3.453300	-10.320000	26.173390	0.000257	20.736790
1586.434960	-3.014300	3.451800	-10.404000	26.175997	0.000258	20.743202
1587.436050	-3.007600	3.451900	-10.380000	26.177662	0.000257	20.737763
1588.442933	-2.986400	3.451900	-10.308000	26.166014	0.000256	20.732222
1589.439032	-2.984300	3.452600	-10.303000	26.150988	0.000256	20.743677
1590.439930	-2.966900	3.451200	-10.238000	26.138820	0.000256	20.736665
1591.441822	-2.997800	3.450400	-10.343000	26.116965	0.000254	20.748845
1592.441968	-3.003300	3.450100	-10.361000	26.107875	0.000257	20.732598
1593.438896	-2.983900	3.450000	-10.294000	26.093022	0.000254	20.763194
1594.439940	-2.981600	3.449900	-10.285000	26.086143	0.000254	20.752963
1595.443620	-2.974000	3.449000	-10.256000	26.042950	0.000254	20.740858
1596.436478	-2.999800	3.449100	-10.345000	26.119102	0.000256	20.747673
1597.440791	-3.002600	3.450200	-10.358000	26.122727	0.000252	20.751789
1598.441722	-3.039100	3.447300	-10.476000	26.091829	0.000252	20.759150
1599.439571	-2.995300	3.449600	-10.331000	26.046997	0.000256	20.734493
1600.438083	-2.984900	3.448700	-10.293000	26.028021	0.000253	20.735342
1601.440738	-3.026900	3.447700	-10.435000	26.061379	0.000253	20.764118
1602.441314	-3.009100	3.447100	-10.372000	26.101491	0.000251	20.745151
1603.439970	-3.015100	3.447100	-10.392000	26.105862	0.000253	20.738162
1604.439992	-3.019400	3.446400	-10.404000	26.089643	0.000252	20.756953
1605.439089	-2.984200	3.445900	-10.283000	26.135342	0.000251	20.758301
1606.441885	-3.005200	3.446000	-10.355000	26.161369	0.000251	20.743202
1607.440822	-3.006900	3.444100	-10.356000	26.195889	0.000251	20.748493
1608.444774	-3.022800	3.445400	-10.414000	26.236419	0.000249	20.729476
1609.441902	-3.011900	3.444300	-10.373000	26.264082	0.000249	20.751586
1610.447770	-2.987300	3.445000	-10.290000	26.245134	0.000249	20.769530
1611.446074	-2.986200	3.445000	-10.287000	26.242924	0.000248	20.762567
1612.443041	-3.015200	3.442900	-10.380000	26.249680	0.000250	20.736638
1613.444464	-3.010000	3.443100	-10.363000	26.249702	0.000247	20.765112
1614.438663	-2.990500	3.443200	-10.296000	26.223057	0.000250	20.749240
1615.442609	-2.999100	3.443200	-10.325000	26.225241	0.000248	20.765186
1616.445042	-2.992900	3.443000	-10.303000	26.245829	0.000248	20.742252
1617.444910	-3.013600	3.442500	-10.374000	26.194150	0.000248	20.732520
1618.445474	-3.022400	3.441000	-10.399000	26.163601	0.000247	20.747342
1619.446273	-3.005600	3.440000	-10.339000	26.169290	0.000246	20.755430
1620.444446	-3.018400	3.441300	-10.385000	26.189107	0.000246	20.748789
1621.446675	-2.988000	3.442100	-10.283000	26.201276	0.000249	20.745845
1622.444679	-3.027900	3.438700	-10.410000	26.216002	0.000248	20.754953
1623.448258	-3.006000	3.442100	-10.346000	26.247640	0.000248	20.738382
1624.450280	-3.005500	3.440500	-10.340000	26.243692	0.000245	20.763339
1625.444335	-3.032900	3.438000	-10.426000	26.239992	0.000246	20.773846
1626.450113	-2.988900	3.439600	-10.280000	26.164518	0.000245	20.742573
1627.453851	-2.972700	3.439700	-10.224000	26.144947	0.000246	20.755625
1628.446226	-3.013300	3.437300	-10.357000	26.170702	0.000245	20.746417
1629.446046	-2.994800	3.437800	-10.295000	26.169385	0.000245	20.751258
1630.449305	-2.976300	3.438600	-10.233000	26.179888	0.000243	20.755648
1631.448104	-2.980100	3.439200	-10.247000	26.221362	0.000243	20.752279
1632.447073	-2.984200	3.437600	-10.257000	26.253696	0.000245	20.758219
1633.447309	-3.013700	3.437000	-10.358000	26.279123	0.000243	20.770496
1634.445736	-3.015200	3.435700	-10.358000	26.280812	0.000244	20.757969
1635.451613	-2.975100	3.436000	-10.222000	26.239687	0.000243	20.766901
1636.451877	-2.992700	3.436600	-10.284000	26.274529	0.000242	20.762559
1637.449453	-2.978300	3.436700	-10.234000	26.278103	0.000242	20.769471
1638.451763	-2.976300	3.437000	-10.228000	26.289575	0.000241	20.774362
1639.453283	-2.987700	3.434900	-10.261000	26.297771	0.000242	20.777383
1640.447358	-2.982700	3.434600	-10.243000	26.285902	0.000240	20.779205
1641.451434	-2.976600	3.436800	-10.229000	26.270851	0.000241	20.761234
1642.453262	-2.978300	3.435700	-10.232000	26.269807	0.000239	20.768246
1643.448581	-3.011400	3.434000	-10.340000	26.280957	0.000239	20.768546
1644.451873	-2.985200	3.433700	-10.249000	26.235861	0.000239	20.773014
1645.453506	-2.998000	3.433500	-10.292000	26.212193	0.000237	20.777679
1646.451665	-2.985700	3.432100	-10.246000	26.220635	0.000237	20.748703
1647.451616	-2.997200	3.432600	-10.288000	26.195924	0.000237	20.776029
1648.456285	-2.994300	3.432500	-10.277000	26.213434	0.000235	20.768494
1649.453685	-2.991400	3.432400	-10.266000	26.207224	0.000237	20.773159
1650.452945	-3.001000	3.432500	-10.300000	26.162148	0.000236	20.759632
1651.452450	-3.010100	3.430400	-10.325000	26.135747	0.000237	20.761554
1652.449971	-3.001700	3.430800	-10.298000	26.177373	0.000235	20.772561
1653.450265	-3.022200	3.430800	-10.368000	26.185094	0.000235	20.776526
1654.451325	-3.007200	3.429600	-10.313000	26.162047	0.000236	20.785610
1655.454039	-3.023700	3.430400	-10.372000	26.189436	0.000234	20.803175
1656.455048	-2.999300	3.429900	-10.286000	26.204962	0.000235	20.791275
1657.456278	-3.006600	3.429500	-10.311000	26.190981	0.000235	20.776278
1658.454994	-3.003700	3.429400	-10.301000	26.153131	0.000236	20.783289
1659.455684	-2.987300	3.428900	-10.242000	26.195498	0.000237	20.788878
1660.458202	-2.974600	3.428500	-10.198000	26.196192	0.000234	20.765867
1661.459194	-3.003300	3.427400	-10.293000	26.233567	0.000232	20.773553
1662.455141	-2.992900	3.427700	-10.258000	26.252317	0.000235	20.788128
1663.454627	-2.994300	3.428200	-10.264000	26.246704	0.000234	20.795764
1664.458756	-2.977000	3.427200	-10.202000	26.275684	0.000234	20.752814
1665.457599	-3.009600	3.426100	-10.309000	26.309255	0.000232	20.811683
1666.457410	-2.958100	3.427000	-10.136000	26.359166	0.000233	20.783134
1667.458055	-2.987000	3.426200	-10.233000	26.359834	0.000232	20.764839
1668.453103	-2.998900	3.424500	-10.269000	26.280994	0.000230	20.793713
1669.463127	-3.006700	3.425500	-10.299000	26.248660	0.000230	20.789669
1670.454954	-2.992700	3.424100	-10.247000	26.283452	0.000230	20.780536
1671.454906	-2.995500	3.424700	-10.258000	26.266613	0.000229	20.795382
1672.455835	-3.004100	3.423500	-10.284000	26.256059	0.000230	20.784777
1673.456962	-2.991700	3.424300	-10.244000	26.188065	0.000230	20.796107
1674.456643	-2.997100	3.424900	-10.264000	26.195489	0.000230	20.784601
1675.457198	-3.000300	3.423200	-10.270000	26.224643	0.000230	20.802043
1676.458844	-3.000200	3.424200	-10.272000	26.245626	0.000228	20.789465
1677.458338	-3.011100	3.422800	-10.304000	26.261967	0.000226	20.792610
1678.460521	-2.984700	3.421800	-10.213000	26.234327	0.000230	20.785697
1679.461182	-3.004400	3.421900	-10.279000	26.238151	0.000229	20.788117
1680.458622	-3.035600	3.421300	-10.384000	26.217662	0.000226	20.784597
1681.460176	-3.023900	3.420800	-10.344000	26.229382	0.000227	20.790211
1682.460451	-2.979300	3.422600	-10.195000	26.193299	0.000227	20.780504
1683.458121	-2.998600	3.420200	-10.254000	26.217835	0.000226	20.785720
1684.460044	-3.016900	3.419900	-10.316000	26.263801	0.000227	20.810574
1685.461102	-3.002900	3.420800	-10.271000	26.263925	0.000226	20.810699
1686.462731	-2.983400	3.421300	-10.206000	26.234076	0.000226	20.809626
1687.460481	-2.984100	3.420800	-10.206000	26.263700	0.000226	20.801464
1688.463625	-3.000200	3.419700	-10.258000	26.228263	0.000224	20.797621
1689.465222	-2.981200	3.420500	-10.196000	26.195360	0.000224	20.812446
1690.465127	-3.009500	3.418600	-10.287000	26.171044	0.000224	20.806978
1691.465690	-2.991700	3.418400	-10.226000	26.158528	0.000224	20.804833
1692.463963	-2.984800	3.419500	-10.205000	26.171888	0.000225	20.802137
1693.466519	-2.998500	3.417100	-10.246000	26.173626	0.000224	20.820478
1694.467592	-3.011500	3.417100	-10.290000	26.200446	0.000224	20.802858
1695.464541	-2.987800	3.417800	-10.211000	26.213732	0.000222	20.811942
1696.468786	-3.007000	3.417100	-10.275000	26.279094	0.000224	20.810770
1697.472857	-2.985600	3.417300	-10.201000	26.304819	0.000224	20.806751
1698.468066	-3.002100	3.415200	-10.251000	26.304619	0.000221	20.801335
1699.470335	-3.027600	3.414500	-10.337000	26.327563	0.000221	20.803530
1700.471047	-2.979500	3.415700	-10.176000	26.350582	0.000221	20.819551
1701.465859	-3.024800	3.414500	-10.328000	26.357386	0.000220	20.811217
1702.469550	-3.013000	3.415500	-10.290000	26.351103	0.000221	20.813911
1703.474240	-2.987300	3.415100	-10.200000	26.315743	0.000220	20.824367
1704.466508	-3.027000	3.413400	-10.331000	26.273676	0.000219	20.822868
1705.466745	-3.015500	3.413200	-10.291000	26.275911	0.000219	20.796666
1706.472077	-2.989400	3.414200	-10.204000	26.288997	0.000218	20.816928
1707.467297	-3.008800	3.412800	-10.268000	26.331086	0.000218	20.835519
1708.469348	-2.974800	3.413300	-10.152000	26.242210	0.000219	20.823016
1709.477590	-3.019900	3.411600	-10.302000	26.226318	0.000219	20.820322
1710.471503	-3.017900	3.412100	-10.296000	26.244495	0.000219	20.836691
1711.471377	-2.973400	3.412300	-10.145000	26.256192	0.000219	20.818100
1712.472052	-2.998300	3.412500	-10.231000	26.244891	0.000219	20.813382
1713.470195	-3.011800	3.411400	-10.273000	26.225545	0.000219	20.820020
1714.469154	-3.009500	3.410500	-10.263000	26.204561	0.000217	20.820745
1715.470934	-3.044400	3.411500	-10.385000	26.215736	0.000217	20.808740
1716.474383	-3.008900	3.409900	-10.259000	26.249484	0.000216	20.826058
1717.471596	-3.000800	3.410900	-10.235000	26.252537	0.000215	20.849988
1718.473144	-3.025200	3.410000	-10.315000	26.270316	0.000216	20.831346
1719.471135	-3.028900	3.409800	-10.327000	26.264160	0.000216	20.835590
1720.473462	-3.021500	3.408000	-10.296000	26.265176	0.000216	20.837085
1721.472756	-3.003900	3.408100	-10.237000	26.262295	0.000213	20.831820
1722.468765	-3.002000	3.409100	-10.233000	26.240614	0.000216	20.819516
1723.477396	-3.005500	3.407700	-10.241000	26.236143	0.000215	20.834463
1724.470420	-2.988600	3.407900	-10.184000	26.246425	0.000212	20.835786
1725.468250	-2.997100	3.408200	-10.215000	26.319507	0.000214	20.858020
1726.474783	-2.991400	3.407300	-10.192000	26.332915	0.000213	20.831193
1727.477551	-2.985700	3.407100	-10.171000	26.268601	0.000212	20.832941
1728.474343	-3.001900	3.406100	-10.224000	26.269318	0.000214	20.841722
1729.476870	-3.012000	3.405300	-10.256000	26.251314	0.000212	20.842596
1730.476176	-2.998400	3.404800	-10.208000	26.202043	0.000210	20.827697
1731.474126	-2.990100	3.406200	-10.183000	26.262737	0.000211	20.849807
1732.477774	-2.997600	3.405100	-10.206000	26.300083	0.000211	20.842768
1733.478969	-2.996700	3.404400	-10.202000	26.339093	0.000208	20.827919
1734.478314	-3.002000	3.404300	-10.219000	26.333829	0.000210	20.847758
1735.475302	-3.043800	3.402400	-10.355000	26.308947	0.000212	20.834607
1736.480891	-2.991900	3.403500	-10.182000	26.248282	0.000207	20.853773
1737.476939	-2.999400	3.404700	-10.211000	26.240036	0.000211	20.831263
1738.482870	-3.005800	3.403200	-10.228000	26.267949	0.000209	20.850777
1739.476918	-2.973400	3.405200	-10.124000	26.276392	0.000208	20.831762
1740.475947	-3.004900	3.403400	-10.226000	26.218901	0.000208	20.849378
1741.482455	-3.015900	3.403400	-10.264000	26.281257	0.000210	20.846133
1742.482613	-2.997200	3.401900	-10.195000	26.299583	0.000206	20.848429
1743.475020	-3.013800	3.401800	-10.252000	26.359850	0.000206	20.853046
1744.478769	-2.978000	3.401100	-10.128000	26.404668	0.000207	20.835503
1745.481013	-2.969700	3.401200	-10.100000	26.418770	0.000205	20.848728
1746.476369	-3.011200	3.400400	-10.238000	26.411347	0.000207	20.873508
1747.479548	-2.992100	3.400900	-10.175000	26.433693	0.000206	20.849976
1748.480172	-2.998500	3.400400	-10.194000	26.423337	0.000204	20.871335
1749.478397	-2.989600	3.399400	-10.162000	26.399996	0.000205	20.867316
1750.479050	-2.988100	3.400200	-10.159000	26.357340	0.000204	20.859533
1751.483466	-3.019100	3.398800	-10.260000	26.287166	0.000205	20.862502
1752.479740	-3.005500	3.398500	-10.213000	26.298712	0.000205	20.856088
1753.476569	-2.990900	3.398500	-10.164000	26.334221	0.000204	20.854790
1754.477980	-3.014000	3.398200	-10.241000	26.328908	0.000204	20.864148
1755.477714	-2.988600	3.398200	-10.154000	26.327915	0.000202	20.843237
1756.479690	-3.004400	3.396300	-10.202000	26.360371	0.000203	20.866846
1757.479664	-2.994700	3.397600	-10.173000	26.372162	0.000206	20.865420
1758.480418	-2.974100	3.396600	-10.101000	26.448986	0.000205	20.860606
1759.480278	-2.996200	3.397400	-10.178000	26.412934	0.000202	20.876051
1760.485017	-3.009700	3.394700	-10.216000	26.392722	0.000204	20.849101
1761.482354	-3.024500	3.395700	-10.270000	26.395204	0.000203	20.869138
1762.483497	-3.012800	3.394900	-10.228000	26.401115	0.000200	20.870811
1763.482020	-3.000800	3.395300	-10.188000	26.419885	0.000200	20.857908
1764.485110	-3.004700	3.395100	-10.200000	26.372312	0.000200	20.865097
1765.479924	-3.012600	3.393600	-10.222000	26.350857	0.000199	20.875302
1766.481530	-3.012200	3.394800	-10.225000	26.386315	0.000203	20.858782
1767.481791	-3.001200	3.393300	-10.183000	26.347581	0.000199	20.857312
1768.483097	-2.995000	3.395000	-10.167000	26.365928	0.000199	20.887128
1769.481919	-2.974400	3.393200	-10.092000	26.393441	0.000201	20.872107
1770.484377	-2.984600	3.392800	-10.125000	26.413404	0.000198	20.873679
1771.486653	-3.013600	3.392300	-10.222000	26.392273	0.000197	20.860503
1772.484842	-3.003800	3.392600	-10.190000	26.362502	0.000199	20.884633
1773.485744	-2.986900	3.393300	-10.135000	26.345716	0.000198	20.857333
1774.482322	-2.991100	3.391900	-10.144000	26.345740	0.000199	20.865418
1775.483613	-2.987300	3.392300	-10.133000	26.357286	0.000197	20.878443
1776.488084	-2.961100	3.391600	-10.042000	26.335707	0.000198	20.874301
1777.483881	-2.972700	3.390000	-10.076000	26.336925	0.000197	20.867464
1778.487726	-3.007300	3.389300	-10.192000	26.404834	0.000194	20.895410
1779.495472	-3.002800	3.390400	-10.179000	26.446522	0.000196	20.868085
1780.487817	-2.984500	3.389300	-10.115000	26.448658	0.000195	20.871181
1781.488782	-3.002100	3.389300	-10.173000	26.450071	0.000195	20.883506
1782.496545	-3.000700	3.388200	-10.166000	26.471423	0.000196	20.891690
1783.485815	-2.987400	3.389400	-10.125000	26.442598	0.000197	20.867935
1784.488106	-2.994400	3.388700	-10.146000	26.435620	0.000193	20.897429
1785.495399	-2.984800	3.387800	-10.111000	26.462261	0.000195	20.910454
1786.486668	-3.002100	3.388100	-10.171000	26.469411	0.000195	20.882082
1787.488523	-2.997000	3.388500	-10.155000	26.485278	0.000194	20.898978
1788.496473	-2.977600	3.387000	-10.085000	26.518373	0.000190	20.889570
1789.492998	-2.998400	3.388000	-10.157000	26.555587	0.000191	20.901846
1790.492032	-2.983900	3.386800	-10.106000	26.564300	0.000193	20.870303
1791.493381	-2.996200	3.385500	-10.143000	26.554345	0.000194	20.879736
1792.488127	-3.001400	3.385900	-10.162000	26.555959	0.000193	20.895583
1793.490573	-3.004600	3.386000	-10.173000	26.543868	0.000190	20.896231
1794.492998	-3.000000	3.386000	-10.156000	26.489522	0.000192	20.900872
1795.492054	-2.998200	3.385700	-10.150000	26.495059	0.000191	20.881309
1796.494333	-2.993300	3.385400	-10.133000	26.478399	0.000189	20.893486
1797.495560	-3.012300	3.385000	-10.196000	26.490142	0.000189	20.900548
1798.493543	-2.999200	3.384600	-10.150000	26.461266	0.000190	20.875792
1799.490209	-3.001300	3.383200	-10.154000	26.448603	0.000190	20.907633
1800.497258	-2.997700	3.382500	-10.139000	26.418288	0.000189	20.913672
1801.493109	-2.997200	3.383600	-10.140000	26.426083	0.000189	20.911076
1802.491653	-3.025400	3.381000	-10.228000	26.424643	0.000188	20.908680
1803.493013	-2.963800	3.383000	-10.025000	26.490911	0.000189	20.910802
1804.493522	-2.995800	3.382800	-10.133000	26.460047	0.000187	20.913919
1805.489717	-2.998700	3.381200	-10.137000	26.479586	0.000188	20.913643
1806.492146	-3.000000	3.380600	-10.141000	26.415056	0.000186	20.888615
1807.491657	-2.992800	3.381500	-10.119000	26.392039	0.000185	20.918583
1808.491271	-2.985700	3.380800	-10.093000	26.392957	0.000185	20.902913
1809.498047	-2.987600	3.380900	-10.100000	26.420666	0.000186	20.909424
1810.495656	-2.988200	3.379600	-10.099000	26.362515	0.000186	20.900292
1811.492933	-2.999500	3.379800	-10.137000	26.384761	0.000184	20.920277
1812.494301	-2.981000	3.379300	-10.073000	26.443656	0.000184	20.916410
1813.495753	-2.996700	3.380300	-10.129000	26.472855	0.000185	20.911145
1814.496668	-3.013200	3.380000	-10.183000	26.484622	0.000186	20.911119
1815.498708	-3.013500	3.379000	-10.182000	26.451651	0.000184	20.911170
1816.498104	-2.980700	3.377300	-10.066000	26.436033	0.000184	20.904007
1817.495752	-2.981200	3.378900	-10.072000	26.483305	0.000182	20.915959
1818.502123	-2.972200	3.379200	-10.042000	26.528242	0.000182	20.908972
1819.498763	-3.000000	3.376500	-10.128000	26.504955	0.000184	20.932977
1820.495579	-2.995100	3.377200	-10.114000	26.466272	0.000183	20.921123
1821.498987	-3.008500	3.376900	-10.158000	26.423666	0.000182	20.905328
1822.496354	-2.980500	3.378400	-10.068000	26.409637	0.000181	20.899763
1823.495511	-2.990700	3.376000	-10.095000	26.378278	0.000183	20.917555
1824.501484	-3.010200	3.376200	-10.162000	26.412940	0.000180	20.897867
1825.499004	-2.999200	3.375000	-10.121000	26.375272	0.000181	20.911216
1826.498696	-2.993100	3.375800	-10.103000	26.436626	0.000183	20.885165
1827.500937	-3.000100	3.376000	-10.128000	26.449563	0.000178	20.898641
1828.496999	-2.989100	3.375100	-10.087000	26.450680	0.000178	20.874161
1829.496542	-2.990300	3.373900	-10.087000	26.497754	0.000179	20.886389
1830.500954	-2.980000	3.373500	-10.053000	26.501429	0.000178	20.882496
1831.497338	-2.989300	3.375000	-10.088000	26.498349	0.000179	20.887461
1832.496029	-3.004100	3.373100	-10.132000	26.487501	0.000178	20.880351
1833.503310	-2.984600	3.374700	-10.071000	26.499045	0.000178	20.899539
1834.498194	-3.015900	3.371600	-10.168000	26.519752	0.000178	20.885266
1835.501258	-2.996600	3.371000	-10.101000	26.496065	0.000177	20.880898
1836.500222	-2.995500	3.371900	-10.099000	26.492217	0.000175	20.883668
1837.498373	-2.998300	3.372200	-10.110000	26.429674	0.000178	20.870118
1838.499787	-3.011400	3.371300	-10.152000	26.410879	0.000175	20.893426
1839.504542	-3.021500	3.370500	-10.182000	26.481217	0.000175	20.874983
1840.504246	-3.003700	3.371300	-10.126000	26.514238	0.000176	20.876880
1841.499303	-2.988000	3.370800	-10.071000	26.504531	0.000178	20.876132
1842.505365	-3.013700	3.369500	-10.154000	26.485215	0.000174	20.862881
1843.504074	-2.993800	3.370700	-10.091000	26.525161	0.000175	20.876480
1844.504598	-3.047400	3.369200	-10.266000	26.497454	0.000174	20.866174
1845.506170	-3.011300	3.369500	-10.146000	26.479604	0.000175	20.871939
1846.498946	-3.000200	3.369100	-10.106000	26.480844	0.000173	20.885513
1847.500681	-2.974700	3.369200	-10.022000	26.476797	0.000172	20.879074
1848.502490	-2.988400	3.367000	-10.061000	26.448816	0.000172	20.886037
1849.503236	-3.011700	3.366400	-10.137000	26.433821	0.000172	20.860536
1850.500504	-2.999200	3.367700	-10.100000	26.439605	0.000168	20.888633
1851.505584	-3.027500	3.366900	-10.192000	26.418871	0.000172	20.866373
1852.503108	-2.988400	3.366400	-10.059000	26.473917	0.000171	20.861482
1853.506016	-3.007800	3.367200	-10.127000	26.455395	0.000171	20.867047
1854.509944	-3.005100	3.366100	-10.115000	26.503213	0.000171	20.867696
1855.506011	-2.999800	3.365000	-10.093000	26.518706	0.000170	20.864302
1856.504679	-3.018000	3.365100	-10.154000	26.474885	0.000169	20.861033
1857.508523	-2.988700	3.366400	-10.059000	26.455148	0.000169	20.866325
1858.507363	-2.999000	3.363400	-10.086000	26.483032	0.000168	20.851204
1859.502521	-3.003100	3.364600	-10.104000	26.544851	0.000169	20.849806
1860.504769	-3.035000	3.363200	-10.207000	26.592391	0.000171	20.870567
1861.502707	-2.989900	3.365200	-10.061000	26.616348	0.000169	20.860985
1862.506633	-3.006600	3.363100	-10.110000	26.633056	0.000168	20.842694
1863.509487	-2.994600	3.362200	-10.068000	26.640849	0.000167	20.828245
1864.508476	-3.005200	3.362800	-10.105000	26.655299	0.000166	20.854150
1865.507794	-3.011100	3.362000	-10.122000	26.703852	0.000167	20.843218
1866.509937	-2.992200	3.362600	-10.060000	26.728352	0.000167	20.847935
1867.508814	-2.983200	3.362600	-10.031000	26.735650	0.000167	20.845789
1868.507405	-3.001400	3.360500	-10.085000	26.673644	0.000166	20.824704
1869.514095	-2.978400	3.361600	-10.012000	26.597581	0.000167	20.840224
1870.512395	-3.019500	3.360100	-10.145000	26.572508	0.000167	20.833512
1871.516950	-3.004400	3.361100	-10.097000	26.552995	0.000165	20.850881
1872.512586	-3.018300	3.359600	-10.138000	26.536783	0.000165	20.864929
1873.511825	-3.029300	3.358700	-10.173000	26.516773	0.000166	20.833911
1874.511209	-3.004000	3.359800	-10.092000	26.553094	0.000166	20.836756
1875.510710	-3.047800	3.358300	-10.234000	26.573326	0.000163	20.856618
1876.509646	-2.992400	3.360200	-10.054000	26.582413	0.000165	20.841572
1877.511163	-3.007700	3.358700	-10.101000	26.617565	0.000165	20.847984
1878.512286	-3.015600	3.356900	-10.122000	26.622652	0.000167	20.819435
1879.513720	-3.007900	3.357700	-10.099000	26.594303	0.000160	20.843092
1880.515429	-3.012200	3.357800	-10.112000	26.597878	0.000163	20.829617
1881.512404	-3.010700	3.357400	-10.108000	26.534472	0.000161	20.828943
1882.518950	-2.995300	3.356800	-10.053000	26.570296	0.000163	20.841245
1883.516012	-2.993200	3.356400	-10.046000	26.599491	0.000163	20.842618
1884.512283	-3.010900	3.355600	-10.103000	26.670836	0.000162	20.841320
1885.516454	-3.021300	3.355400	-10.137000	26.684563	0.000161	20.827620
1886.513195	-3.017900	3.355300	-10.125000	26.684413	0.000164	20.830788
1887.516382	-3.000000	3.355100	-10.065000	26.707051	0.000159	20.844064
1888.515849	-2.987600	3.355400	-10.024000	26.664927	0.000159	20.834432
1889.518266	-3.004300	3.355500	-10.080000	26.673192	0.000161	20.858387
1890.518397	-2.968900	3.355200	-9.959000	26.615998	0.000160	20.855892
1891.518406	-3.009300	3.353200	-10.089000	26.549937	0.000159	20.842117
1892.518250	-2.998300	3.354300	-10.056000	26.542835	0.000161	20.830712
1893.514994	-2.980000	3.354400	-9.995500	26.586505	0.000160	20.818659
1894.519495	-3.006800	3.352700	-10.080000	26.606985	0.000160	20.843039
1895.519437	-2.984200	3.353800	-10.008000	26.612869	0.000157	20.841368
1896.519382	-3.000900	3.352200	-10.059000	26.683420	0.000158	20.806557
1897.521418	-3.000000	3.351900	-10.055000	26.701961	0.000158	20.819032
1898.522846	-3.005200	3.351600	-10.071000	26.678082	0.000157	20.807828
1899.522935	-3.004300	3.350600	-10.065000	26.687863	0.000157	20.836153
1900.521214	-3.015500	3.350600	-10.102000	26.658370	0.000155	20.822625
1901.524232	-2.979900	3.351400	-9.985200	26.636725	0.000156	20.805133
1902.521597	-3.002700	3.350200	-10.059000	26.671055	0.000156	20.839644
1903.522017	-2.985100	3.351200	-10.002000	26.648243	0.000156	20.817659
1904.522951	-2.999500	3.349900	-10.047000	26.626521	0.000154	20.837548
1905.521621	-2.998300	3.350200	-10.044000	26.642978	0.000156	20.834652
1906.522709	-2.991800	3.350900	-10.024000	26.651519	0.000154	20.857462
1907.526673	-2.989200	3.348400	-10.008000	26.610782	0.000152	20.836424
1908.526127	-2.981800	3.348500	-9.983700	26.672420	0.000153	20.823948
1909.524253	-2.992300	3.347400	-10.015000	26.653056	0.000154	20.831033
1910.521317	-2.984300	3.349000	-9.993600	26.646752	0.000153	20.821376
1911.523606	-2.986500	3.347700	-9.996800	26.643501	0.000151	20.801513
1912.521085	-2.950100	3.349200	-9.879300	26.661274	0.000154	20.812742
1913.524675	-3.016700	3.347300	-10.096000	26.630618	0.000152	20.817011
1914.525417	-2.975600	3.348100	-9.962200	26.653480	0.000152	20.791157
1915.527653	-2.987000	3.346600	-9.995700	26.643998	0.000150	20.819082
1916.522114	-2.985600	3.346100	-9.988500	26.632181	0.000149	20.815738
1917.529686	-3.013000	3.345800	-10.080000	26.622400	0.000149	20.809698
1918.524967	-2.996000	3.345500	-10.022000	26.695259	0.000150	20.822726
1919.527132	-2.994400	3.345600	-10.018000	26.727105	0.000150	20.805431
1920.526978	-3.001300	3.344900	-10.038000	26.686321	0.000148	20.812318
1921.524382	-3.003200	3.345000	-10.045000	26.657155	0.000150	20.797695
1922.523495	-2.995400	3.345000	-10.019000	26.681331	0.000146	20.825793
1923.531276	-2.979700	3.344700	-9.965700	26.642657	0.000146	20.819631
1924.528521	-2.984400	3.343400	-9.977500	26.645116	0.000147	20.833956
1925.529063	-3.020000	3.343000	-10.095000	26.681680	0.000147	20.817610
1926.532668	-3.000000	3.343700	-10.030000	26.715639	0.000146	20.811922
1927.525305	-2.993800	3.343500	-10.009000	26.726063	0.000145	20.795848
1928.531874	-3.010200	3.342100	-10.060000	26.718420	0.000146	20.801915
1929.532822	-3.012400	3.341100	-10.064000	26.723457	0.000147	20.802712
1930.529069	-3.023200	3.341000	-10.099000	26.715836	0.000144	20.787937
1931.528574	-2.998900	3.342100	-10.022000	26.713552	0.000147	20.802236
1932.535122	-3.017700	3.341100	-10.082000	26.711766	0.000146	20.819407
1933.532187	-3.011600	3.341200	-10.062000	26.694762	0.000145	20.807528
1934.533475	-3.017400	3.340100	-10.077000	26.615005	0.000144	20.812222
1935.541191	-2.998700	3.340700	-10.017000	26.620762	0.000143	20.809000
1936.532785	-3.019700	3.339100	-10.082000	26.644593	0.000141	20.789809
1937.534033	-3.020900	3.338200	-10.084000	26.693123	0.000142	20.798294
1938.534510	-3.025800	3.337800	-10.099000	26.701215	0.000141	20.809748
1939.542957	-2.961200	3.339800	-9.888800	26.677783	0.000142	20.805632
1940.532020	-2.997300	3.339100	-10.007000	26.661324	0.000141	20.798567
1941.539445	-2.998000	3.337300	-10.004000	26.661074	0.000141	20.802110
1942.535550	-2.993600	3.338400	-9.992800	26.690589	0.000141	20.783892
1943.537773	-2.992200	3.337800	-9.986100	26.710770	0.000140	20.800862
1944.538665	-2.971700	3.338000	-9.918300	26.715585	0.000138	20.805229
1945.534706	-2.980100	3.338200	-9.947100	26.723627	0.000138	20.791503
1946.534579	-2.983000	3.337100	-9.953400	26.696345	0.000139	20.797266
1947.538366	-3.017000	3.335200	-10.061000	26.707689	0.000135	20.788756
1948.535861	-3.012400	3.335300	-10.046000	26.777066	0.000137	20.803979
1949.535008	-3.018900	3.334900	-10.067000	26.801366	0.000137	20.803281
1950.539666	-3.001000	3.335000	-10.008000	26.832539	0.000137	20.809019
1951.535024	-3.008600	3.334000	-10.030000	26.812261	0.000136	20.774879
1952.538653	-3.011600	3.334100	-10.040000	26.846910	0.000136	20.807822
1953.542874	-3.009700	3.333700	-10.033000	26.776644	0.000135	20.801658
1954.537779	-3.014500	3.332700	-10.046000	26.784188	0.000137	20.781741
1955.542706	-2.967800	3.335200	-9.897300	26.792553	0.000132	20.789678
1956.542180	-3.012900	3.333400	-10.042000	26.795706	0.000139	20.794270
1957.540612	-3.003400	3.332000	-10.007000	26.807520	0.000135	20.810890
1958.544702	-2.984400	3.333900	-9.948600	26.826233	0.000132	20.815481
1959.547976	-2.998300	3.332200	-9.989500	26.879273	0.000130	20.798163
1960.540355	-2.990200	3.333000	-9.965300	26.901259	0.000132	20.791822
1961.542465	-2.999900	3.332300	-9.995800	26.935782	0.000135	20.787655
1962.545005	-2.995400	3.331900	-9.979300	26.919626	0.000131	20.788005
1963.542622	-2.993300	3.332100	-9.973000	26.933250	0.000131	20.812135
1964.543801	-3.011500	3.331100	-10.031000	26.950274	0.000132	20.803650
1965.545619	-2.983500	3.330600	-9.935500	26.930620	0.000130	20.797637
1966.541206	-2.992600	3.330400	-9.965100	26.924910	0.000131	20.795689
1967.542097	-2.992700	3.330000	-9.964300	26.877309	0.000132	20.782438
1968.560739	-2.996700	3.329800	-9.976600	26.868895	0.000129	20.788676
1969.543067	-3.013100	3.328500	-10.028000	26.909152	0.000131	20.803077
1970.542455	-3.002300	3.329800	-9.996200	26.903195	0.000129	20.811786
1971.546113	-2.999600	3.329000	-9.985000	26.939478	0.000129	20.780941
1972.544774	-3.023800	3.328300	-10.062000	26.891380	0.000129	20.807018
1973.548533	-3.003800	3.329100	-9.999300	26.871426	0.000128	20.778893
1974.545301	-2.984900	3.329100	-9.936100	26.867878	0.000128	20.778170
1975.542003	-2.995200	3.327000	-9.963500	26.816998	0.000128	20.801928
1976.543094	-3.027000	3.327000	-10.070000	26.827422	0.000127	20.778270
1977.545988	-3.001500	3.326900	-9.984200	26.837896	0.000126	20.796387
1978.543969	-2.999300	3.326300	-9.975600	26.804066	0.000128	20.790822
1979.542737	-2.982900	3.326500	-9.922000	26.761869	0.000127	20.783010
1980.544995	-3.002300	3.324900	-9.981700	26.790464	0.000128	20.783310
1981.543899	-2.994500	3.325000	-9.955100	26.837424	0.000126	20.774102
1982.557109	-2.988400	3.325900	-9.937500	26.898229	0.000125	20.774075
1983.545635	-3.008200	3.325800	-10.004000	26.892968	0.000125	20.774001
1984.543381	-2.991000	3.323200	-9.938500	26.887062	0.000126	20.789399
1985.544482	-2.997700	3.323500	-9.961600	26.854572	0.000124	20.786128
1986.547341	-2.983000	3.323700	-9.913800	26.822606	0.000123	20.789074
1987.546871	-2.995400	3.323200	-9.953800	26.795378	0.000123	20.779716
1988.544964	-3.000200	3.322300	-9.967100	26.824492	0.000123	20.776746
1989.548348	-3.015800	3.321300	-10.015000	26.897982	0.000120	20.776197
1990.547050	-2.990300	3.322800	-9.934900	26.925877	0.000124	20.773427
1991.556560	-3.002000	3.322000	-9.971800	26.893264	0.000123	20.779515
1992.551666	-2.968400	3.322600	-9.862200	26.916570	0.000123	20.756956
1993.547991	-2.989600	3.322200	-9.931400	26.866238	0.000120	20.794539
1994.547758	-3.014500	3.320700	-10.009000	26.854152	0.000121	20.773852
1995.549459	-3.014300	3.319900	-10.006000	26.897187	0.000121	20.765441
1996.550457	-2.992900	3.320200	-9.936500	26.949997	0.000120	20.757378
1997.549345	-3.008500	3.318900	-9.983600	26.993302	0.000120	20.772477
1998.551095	-3.004100	3.320300	-9.973400	27.021369	0.000122	20.772253
1999.552283	-3.003700	3.320000	-9.970900	26.971985	0.000119	20.778542
2000.553429	-3.010000	3.318100	-9.986800	26.943074	0.000120	20.774125
2001.553018	-3.007600	3.317900	-9.977000	26.945556	0.000119	20.759076
2002.551050	-2.996600	3.318000	-9.942200	26.911803	0.000119	20.765913
2003.553261	-2.997100	3.318000	-9.943600	26.945158	0.000117	20.778117
2004.560289	-2.985500	3.318600	-9.906500	26.919049	0.000116	20.755182
2005.552505	-3.005800	3.317900	-9.972000	26.872813	0.000116	20.760847
2006.552153	-3.005500	3.316800	-9.966900	26.858246	0.000117	20.765640
2007.554061	-2.985600	3.316000	-9.899600	26.887631	0.000115	20.751564
2008.550811	-3.031600	3.316000	-10.051000	26.975062	0.000115	20.749392
2009.555103	-3.002400	3.315700	-9.954000	26.998911	0.000115	20.766737
2010.557213	-2.987200	3.315300	-9.902400	27.007075	0.000114	20.756929
2011.552515	-2.983000	3.315300	-9.888700	26.991218	0.000115	20.771330
2012.552377	-2.993800	3.314300	-9.921300	26.939450	0.000114	20.773800
2013.557082	-2.986300	3.315100	-9.898700	26.978064	0.000116	20.765214
2014.552443	-2.979600	3.314800	-9.875700	26.944711	0.000113	20.763917
2015.553660	-3.005000	3.313400	-9.955800	26.911752	0.000111	20.763491
2016.569251	-2.985300	3.314100	-9.892100	26.864053	0.000111	20.766737
2017.556134	-3.016300	3.312300	-9.989900	26.804931	0.000111	20.764665
2018.554698	-3.009400	3.312600	-9.967400	26.830098	0.000112	20.766262
2019.556855	-2.989600	3.313300	-9.904900	26.880829	0.000110	20.738087
2020.555306	-2.980400	3.312900	-9.873100	26.871125	0.000112	20.754882
2021.558220	-2.983800	3.311900	-9.880500	26.883957	0.000110	20.763992
2022.559089	-3.004000	3.311700	-9.947100	26.897754	0.000111	20.747993
2023.559412	-2.995500	3.312400	-9.921900	26.926096	0.000112	20.748043
2024.561667	-3.015400	3.310600	-9.982100	26.952526	0.000108	20.776992
2025.562035	-2.997700	3.311300	-9.926200	26.982283	0.000109	20.751438
2026.557789	-2.996300	3.310700	-9.919000	26.993200	0.000109	20.762891
2027.559462	-3.003500	3.310400	-9.942100	26.991711	0.000111	20.746221
2028.564450	-2.993500	3.308900	-9.904400	26.938653	0.000106	20.759721
2029.563618	-2.997900	3.310200	-9.923000	26.935922	0.000105	20.777365
2030.562829	-2.981300	3.309500	-9.864800	26.927483	0.000107	20.751334
2031.563318	-2.982400	3.307900	-9.865500	26.920335	0.000107	20.744147
2032.561929	-3.007100	3.307200	-9.944100	26.955303	0.000107	20.753230
2033.562205	-2.995400	3.309400	-9.912600	27.047667	0.000108	20.763612
2034.561942	-3.005300	3.308200	-9.941000	27.032802	0.000106	20.769052
2035.559290	-2.982900	3.308300	-9.867100	27.022430	0.000105	20.752456
2036.561781	-3.020400	3.306700	-9.986900	27.012502	0.000105	20.754326
2037.561111	-2.980500	3.306700	-9.854700	26.987440	0.000104	20.738606
2038.564011	-3.021700	3.306300	-9.989600	27.000790	0.000105	20.744445
2039.560063	-2.997400	3.306200	-9.909300	27.036747	0.000102	20.754527
2040.569726	-2.996100	3.305700	-9.903400	27.107863	0.000103	20.756347
2041.563415	-3.020700	3.304600	-9.981000	27.112131	0.000102	20.742147
2042.568371	-3.021900	3.305500	-9.988500	27.081808	0.000102	20.749109
2043.564759	-3.007000	3.304100	-9.934600	27.070346	0.000101	20.746590
2044.567514	-3.008900	3.302800	-9.936800	27.062278	0.000102	20.744167
2045.567770	-3.028900	3.302800	-10.003000	27.094288	9.971681E-5	20.762135
2046.566442	-3.008800	3.303000	-9.937400	27.022626	0.000102	20.750283
2047.565236	-3.011700	3.303100	-9.946900	26.983317	9.849572E-5	20.753426
2048.566879	-2.987100	3.304100	-9.868200	27.027215	0.000100	20.733086
2049.569844	-2.992400	3.301600	-9.878500	27.050666	9.928778E-5	20.768525
2050.565614	-2.998100	3.301500	-9.897500	27.091707	9.780267E-5	20.728718
2051.567654	-2.979500	3.302500	-9.839400	27.070740	0.000100	20.748883
2052.564426	-3.004000	3.301600	-9.917400	27.114462	9.955180E-5	20.752078
2053.568594	-2.984300	3.301200	-9.851200	27.113817	9.846272E-5	20.726299
2054.569711	-2.999500	3.301200	-9.900800	27.106447	9.519548E-5	20.735482
2055.571511	-3.041600	3.298800	-10.032000	27.139300	9.697761E-5	20.755248
2056.571078	-3.013600	3.299600	-9.943100	27.166619	9.720863E-5	20.741472
2057.569022	-3.016900	3.299300	-9.952000	27.212618	9.750565E-5	20.737953
2058.581120	-2.995500	3.299100	-9.881800	27.226364	9.727463E-5	20.729968
2059.565254	-2.996600	3.299300	-9.885900	27.223783	9.681260E-5	20.749184
2060.572877	-3.004200	3.299000	-9.909700	27.154907	9.638357E-5	20.748660
2061.569734	-2.991200	3.297900	-9.863100	27.113099	9.361137E-5	20.757820
2062.570451	-2.998800	3.297000	-9.886300	27.076350	9.559151E-5	20.747413
2063.573704	-3.016500	3.296400	-9.942700	27.096995	9.582253E-5	20.760116
2064.575056	-3.030300	3.297500	-9.990700	27.082182	9.671359E-5	20.767978
2065.572153	-2.994300	3.296200	-9.868300	27.119973	9.377638E-5	20.757621
2066.570086	-3.007500	3.295500	-9.910700	27.115954	9.308333E-5	20.747414
2067.568260	-3.002200	3.296800	-9.896600	27.119302	9.295132E-5	20.769748
2068.570871	-3.026400	3.295400	-9.971300	27.102381	9.133420E-5	20.763161
2069.571146	-2.996300	3.296600	-9.876900	27.169424	9.298432E-5	20.759942
2070.571273	-2.987000	3.295700	-9.844000	27.210660	9.219226E-5	20.729344
2071.568446	-3.006700	3.297100	-9.912400	27.174212	8.958507E-5	20.731092
2072.568855	-3.000500	3.295100	-9.886000	27.130020	8.938706E-5	20.752552
2073.569075	-3.039100	3.293500	-10.007000	27.130245	9.044313E-5	20.739028
2074.573668	-3.008600	3.293300	-9.907000	27.133570	8.961807E-5	20.760865
2075.567311	-3.009000	3.293800	-9.908800	27.171483	8.842999E-5	20.751107
2076.575530	-3.015500	3.292400	-9.927500	27.128111	8.965108E-5	20.751107
2077.572727	-2.979900	3.294000	-9.814900	27.127516	8.763793E-5	20.749086
2078.570157	-3.002500	3.292100	-9.883800	27.138657	9.008011E-5	20.753653
2079.579698	-2.977000	3.292900	-9.802000	27.153595	8.895803E-5	20.776738
2080.569367	-3.007300	3.290600	-9.895200	27.191332	8.948606E-5	20.765856
2081.574395	-2.981900	3.291000	-9.812400	27.209173	8.833098E-5	20.744919
2082.572195	-2.980200	3.291000	-9.806600	27.188182	8.793495E-5	20.757946
2083.572212	-3.007000	3.290300	-9.893100	27.161932	8.661485E-5	20.749561
2084.571858	-3.002600	3.290200	-9.878100	27.137863	8.625183E-5	20.760441
2085.573169	-2.990200	3.290600	-9.839200	27.133100	8.783594E-5	20.758022
2086.570306	-3.022300	3.289000	-9.939800	27.164835	8.569079E-5	20.767654
2087.575389	-3.019700	3.289500	-9.933000	27.207436	8.565778E-5	20.732266
2088.570847	-3.006000	3.288900	-9.885000	27.239839	8.526176E-5	20.756798
2089.575540	-2.992200	3.288500	-9.838400	27.262887	8.417268E-5	20.779509
2090.576578	-2.987300	3.288800	-9.823900	27.268844	8.384265E-5	20.757524
2091.575886	-2.989100	3.288900	-9.830800	27.290870	8.569079E-5	20.751231
2092.577696	-2.989200	3.287700	-9.826800	27.346518	8.239055E-5	20.770700
2093.572984	-2.999300	3.286900	-9.857700	27.379412	8.248955E-5	20.752106
2094.579052	-2.979100	3.285900	-9.787600	27.328755	8.328161E-5	20.771798
2095.583010	-2.979700	3.285800	-9.789800	27.307246	8.199452E-5	20.762488
2096.580046	-3.003900	3.286400	-9.870700	27.261176	8.110345E-5	20.757873
2097.577789	-3.003600	3.284900	-9.865800	27.301614	8.067442E-5	20.762513
2098.576107	-3.005600	3.286400	-9.877200	27.231452	8.285258E-5	20.789141
2099.577046	-2.984900	3.285800	-9.806800	27.197734	8.031139E-5	20.752854
2100.578686	-2.990400	3.284400	-9.820200	27.205896	8.054241E-5	20.753478
2101.579834	-2.980400	3.283700	-9.786400	27.220909	8.179650E-5	20.778061
2102.579419	-2.995000	3.283800	-9.834000	27.240531	7.988236E-5	20.756072
2103.575533	-3.002400	3.282500	-9.854300	27.208725	7.889229E-5	20.758219
2104.579258	-2.996500	3.281800	-9.832500	27.213861	7.852926E-5	20.757221
2105.577696	-2.979900	3.282200	-9.780100	27.213984	8.041040E-5	20.762561
2106.578767	-2.982700	3.283200	-9.792000	27.244203	7.711016E-5	20.770198
2107.581467	-3.000800	3.281300	-9.844400	27.254226	7.780321E-5	20.773641
2108.576238	-3.001700	3.281400	-9.848700	27.256830	7.730817E-5	20.762036
2109.589222	-3.023600	3.281500	-9.920600	27.213810	7.770420E-5	20.767601
2110.581433	-2.997800	3.281300	-9.835800	27.172002	7.846326E-5	20.773441
2111.577488	-2.990500	3.281600	-9.812100	27.176270	7.701115E-5	20.760663
2112.575225	-3.026500	3.277500	-9.917900	27.159669	7.612009E-5	20.757717
2113.578469	-3.016600	3.279200	-9.889700	27.200734	7.585607E-5	20.762036
2114.578571	-3.014200	3.277800	-9.879100	27.210607	7.539403E-5	20.765329
2115.579686	-3.002100	3.278000	-9.839700	27.229834	7.479999E-5	20.766650
2116.583574	-2.983000	3.278300	-9.778000	27.275831	7.717616E-5	20.770717
2117.579936	-2.966100	3.279700	-9.725100	27.251444	7.489900E-5	20.787438
2118.583913	-2.978900	3.278300	-9.764900	27.289750	7.565805E-5	20.778554
2119.584101	-2.970100	3.277800	-9.734500	27.332495	7.668113E-5	20.775085
2120.578980	-2.986900	3.276000	-9.783700	27.325746	7.374391E-5	20.772090
2121.577493	-2.996600	3.275700	-9.814800	27.324110	7.281985E-5	20.778978
2122.579480	-2.978300	3.276000	-9.755900	27.281759	7.397493E-5	20.785215
2123.581306	-3.006100	3.275200	-9.844200	27.281214	7.050968E-5	20.782296
2124.583263	-3.015100	3.274800	-9.873100	27.314607	7.176377E-5	20.796920
2125.584662	-3.016800	3.274400	-9.876600	27.369084	7.176377E-5	20.759261
2126.578597	-3.010200	3.275700	-9.859600	27.404732	7.288585E-5	20.779001
2127.579373	-2.993200	3.274900	-9.801000	27.438245	7.196178E-5	20.745385
2128.587334	-3.021200	3.272500	-9.886500	27.477835	7.328188E-5	20.790433
2129.583564	-3.006300	3.273400	-9.840000	27.501200	7.017965E-5	20.785490
2130.584867	-3.018000	3.273400	-9.877800	27.491104	7.153275E-5	20.787661
2131.586098	-3.006800	3.272600	-9.839400	27.452606	6.945360E-5	20.791129
2132.586098	-2.988500	3.273500	-9.782200	27.420608	7.001464E-5	20.781223
2133.581544	-3.008600	3.271400	-9.841100	27.407708	6.945360E-5	20.774409
2134.591390	-2.997100	3.272200	-9.805500	27.328004	6.948660E-5	20.787637
2135.582220	-2.973500	3.271900	-9.728000	27.330038	6.691241E-5	20.774036
2136.587173	-2.999100	3.270800	-9.807700	27.368069	6.777048E-5	20.799491
2137.587986	-3.001500	3.270700	-9.816000	27.439932	6.889256E-5	20.801612
2138.587904	-2.980000	3.269500	-9.742600	27.429985	6.813350E-5	20.792553
2139.588727	-3.005500	3.269200	-9.824800	27.430704	6.803450E-5	20.777629
2140.591958	-3.023000	3.268400	-9.878500	27.418351	6.780348E-5	20.791754
2141.585981	-2.989500	3.269000	-9.771800	27.382331	6.651638E-5	20.777329
2142.582551	-3.000400	3.267800	-9.804100	27.352961	6.463525E-5	20.778129
2143.592393	-2.982700	3.268300	-9.747800	27.312227	6.661539E-5	20.803535
2144.586012	-3.019300	3.267400	-9.862900	27.336686	6.519629E-5	20.793526
2145.590375	-3.018200	3.266900	-9.859400	27.393990	6.476726E-5	20.775782
2146.591157	-3.005400	3.267800	-9.820200	27.449333	6.443723E-5	20.768870
2147.584082	-2.996600	3.266700	-9.787800	27.457296	6.506428E-5	20.801063
2148.588314	-2.994800	3.265100	-9.777300	27.439387	6.790249E-5	20.812443
2149.592689	-3.025900	3.264400	-9.876800	27.456306	6.608735E-5	20.818084
2150.589086	-3.002700	3.265100	-9.803000	27.464267	6.377718E-5	20.811395
2151.591425	-2.986800	3.265600	-9.752900	27.430779	6.232508E-5	20.785766
2152.597894	-2.988500	3.265300	-9.756900	27.426116	6.338115E-5	20.803833
2153.585248	-2.980100	3.265600	-9.731000	27.416169	6.202806E-5	20.814215
2154.590241	-3.014600	3.263200	-9.836000	27.386205	6.275411E-5	20.803986
2155.585022	-2.997800	3.263400	-9.782400	27.413616	6.390919E-5	20.816862
2156.589632	-2.978300	3.263300	-9.717800	27.451691	6.258910E-5	20.803959
2157.593591	-2.991200	3.262300	-9.757000	27.460994	6.004791E-5	20.797197
2158.591244	-2.976800	3.262000	-9.709900	27.461167	6.278711E-5	20.793103
2159.589939	-3.002800	3.260400	-9.788400	27.387271	6.037793E-5	20.805058
2160.590321	-2.993700	3.260600	-9.760300	27.345668	6.074096E-5	20.813467
2161.587972	-2.986800	3.260300	-9.736800	27.400493	5.942086E-5	20.795126
2162.587712	-3.005600	3.260300	-9.798200	27.477043	6.179704E-5	20.812394
2163.591223	-3.001100	3.260400	-9.783400	27.434204	5.839779E-5	20.798694
2164.602695	-3.018100	3.259500	-9.837200	27.428947	5.744072E-5	20.812371
2165.590541	-3.008400	3.258400	-9.801700	27.458886	5.961888E-5	20.812620
2166.586638	-2.999600	3.259300	-9.776100	27.466900	5.885982E-5	20.794130
2167.590092	-3.009400	3.258400	-9.805100	27.502891	5.790275E-5	20.804735
2168.588364	-2.998000	3.258400	-9.768300	27.536202	5.912384E-5	20.803163
2169.589398	-2.993700	3.258300	-9.753300	27.531589	5.958588E-5	20.829341
2170.587912	-2.988500	3.256600	-9.731000	27.583924	5.645065E-5	20.818462
2171.593297	-2.992900	3.256800	-9.746400	27.624127	5.674767E-5	20.806758
2172.593069	-2.996700	3.257300	-9.759300	27.615050	5.522956E-5	20.802366
2173.590184	-2.982100	3.256700	-9.709800	27.638486	5.790275E-5	20.801292
2174.594306	-2.988900	3.256800	-9.733300	27.685187	5.654965E-5	20.819361
2175.594923	-3.009000	3.254500	-9.791700	27.637272	5.777074E-5	20.806234
2176.593169	-3.005500	3.254200	-9.779500	27.580255	5.447050E-5	20.797226
2177.592912	-2.991300	3.254200	-9.733900	27.584173	5.813377E-5	20.797376
2178.592418	-2.983200	3.253700	-9.705000	27.599178	5.315040E-5	20.814845
2179.593215	-3.013400	3.253000	-9.802100	27.587720	5.493254E-5	20.815169
2180.591494	-2.991900	3.254900	-9.737000	27.528939	5.321641E-5	20.820037
2181.591264	-2.995700	3.253400	-9.745600	27.520878	5.470152E-5	20.827573
2182.594766	-3.020800	3.252600	-9.824700	27.513733	5.423948E-5	20.814221
2183.592485	-3.005300	3.252400	-9.773400	27.488358	5.295239E-5	20.812399
2184.593488	-3.015900	3.251300	-9.804300	27.463554	5.199532E-5	20.822532
2185.590886	-2.999500	3.250900	-9.750300	27.481688	5.295239E-5	20.818016
2186.595366	-3.011800	3.250200	-9.787900	27.497489	5.136827E-5	20.813999
2187.597429	-2.999600	3.248900	-9.744400	27.581398	5.341442E-5	20.813076
2188.595849	-2.982400	3.251200	-9.695400	27.656967	5.202832E-5	20.806612
2189.595334	-3.005600	3.249800	-9.766500	27.664928	5.216033E-5	20.827898
2190.596518	-3.002300	3.251600	-9.761500	27.668252	5.077423E-5	20.826975
2191.593609	-2.991000	3.248100	-9.713800	27.660539	5.027919E-5	20.838654
2192.597643	-2.995900	3.247100	-9.727200	27.613714	5.018019E-5	20.824729
2193.596380	-3.001900	3.248100	-9.749400	27.589459	5.133527E-5	20.805065
2194.594339	-3.002300	3.248000	-9.750500	27.520705	4.968515E-5	20.837356
2195.594948	-3.017300	3.246000	-9.792800	27.519888	4.856307E-5	20.833215
2196.596098	-3.009700	3.247000	-9.772100	27.471741	5.047721E-5	20.841673
2197.599262	-3.016200	3.245500	-9.788000	27.491117	4.833205E-5	20.825606
2198.599897	-3.006600	3.246300	-9.759300	27.515026	4.952014E-5	20.845867
2199.597891	-2.997900	3.245700	-9.729500	27.552479	4.773801E-5	20.819065
2200.597110	-2.998200	3.245400	-9.729000	27.557986	4.872808E-5	20.821287
2201.603218	-2.973800	3.245300	-9.649500	27.577579	4.780401E-5	20.835785
2202.600722	-2.972500	3.245800	-9.646300	27.626513	4.625290E-5	20.827650
2203.601708	-2.999700	3.243100	-9.727200	27.614210	4.763900E-5	20.832814
2204.613366	-3.001800	3.242700	-9.733400	27.619889	4.720997E-5	20.846589
2205.609702	-3.006200	3.242000	-9.745200	27.642236	4.859607E-5	20.836358
2206.610970	-3.002900	3.242800	-9.737300	27.623809	4.588987E-5	20.840102
2207.610781	-2.986500	3.242900	-9.683900	27.642335	4.621990E-5	20.845940
2208.605832	-2.987800	3.242300	-9.687100	27.640277	4.740798E-5	20.850034
2209.605028	-3.020500	3.240700	-9.787400	27.651537	4.397573E-5	20.847139
2210.607810	-3.008800	3.241000	-9.750200	27.634670	4.678094E-5	20.835858
2211.614112	-2.990700	3.241700	-9.693900	27.638069	4.460278E-5	20.836433
2212.617433	-2.977900	3.242100	-9.653900	27.670904	4.390973E-5	20.850980
2213.618382	-2.997700	3.240200	-9.712600	27.619865	4.387672E-5	20.824279
2214.606412	-3.014000	3.238000	-9.758800	27.688810	4.549384E-5	20.850980
2215.614101	-3.018600	3.237800	-9.772900	27.646500	4.539484E-5	20.852028
2216.604497	-2.998800	3.238400	-9.709400	27.605604	4.486680E-5	20.835060
2217.614068	-3.002500	3.238000	-9.721000	27.590946	4.328268E-5	20.837855
2218.620371	-3.001800	3.239300	-9.723100	27.620558	4.334869E-5	20.840624
2219.622787	-3.007600	3.237400	-9.735500	27.645037	4.404174E-5	20.864780
2220.617421	-2.986600	3.236700	-9.665600	27.703020	4.334869E-5	20.864330
2221.617707	-2.993400	3.235800	-9.685200	27.741334	4.463578E-5	20.860687
2222.611649	-2.982400	3.236000	-9.650500	27.730819	4.427275E-5	20.843469
2223.613346	-2.994700	3.235400	-9.688900	27.718322	4.321668E-5	20.860289
2224.615546	-3.009500	3.235500	-9.735500	27.746691	4.159956E-5	20.847113
2225.623322	-3.017500	3.234900	-9.760500	27.799609	4.338169E-5	20.842520
2226.618972	-2.985900	3.235700	-9.659900	27.843275	4.278764E-5	20.870343
2227.610404	-3.012000	3.233700	-9.739600	27.889718	4.397573E-5	20.848808
2228.609961	-2.979700	3.233300	-9.632900	27.923958	4.173157E-5	20.865726
2229.619341	-2.983200	3.233000	-9.644100	27.902535	4.225961E-5	20.863604
2230.617466	-3.008100	3.234600	-9.728000	27.858572	4.189658E-5	20.853497
2231.611362	-3.008600	3.231800	-9.722300	27.773943	4.235861E-5	20.866950
2232.625933	-2.999500	3.232600	-9.694900	27.783414	4.179757E-5	20.844240
2233.615182	-2.984000	3.231000	-9.640400	27.788718	4.209459E-5	20.859060
2234.615340	-2.975100	3.230600	-9.610100	27.819891	4.173157E-5	20.855345
2235.617020	-2.987500	3.230800	-9.651400	27.869481	4.318367E-5	20.872537
2236.613458	-2.988100	3.230200	-9.651100	27.871837	3.909137E-5	20.884864
2237.620079	-2.997400	3.230300	-9.681700	27.891474	4.100551E-5	20.851524
2238.621396	-3.024000	3.227500	-9.758700	27.917682	4.110452E-5	20.868419
2239.618281	-3.016200	3.227900	-9.734900	27.874911	3.763927E-5	20.871363
2240.621631	-3.003600	3.227400	-9.693500	27.865116	3.843133E-5	20.881419
2241.618441	-2.984800	3.226900	-9.630500	27.886837	3.912438E-5	20.882417
2242.614917	-3.011700	3.227100	-9.718800	27.901589	3.816731E-5	20.871187
2243.617442	-2.994200	3.226900	-9.660800	27.900524	3.793629E-5	20.862529
2244.618844	-2.987900	3.225500	-9.636300	27.917557	3.833232E-5	20.899110
2245.617265	-3.018000	3.224900	-9.731600	27.887086	3.671520E-5	20.882193
2246.616130	-2.980300	3.225900	-9.613400	27.892712	3.859634E-5	20.866995
2247.618400	-2.993100	3.225400	-9.652900	27.828367	3.849733E-5	20.878098
2248.621950	-2.994700	3.225200	-9.658300	27.734607	3.833232E-5	20.861978
2249.615168	-2.988200	3.226500	-9.640400	27.741973	4.014745E-5	20.859434
2250.621097	-3.013000	3.224100	-9.713200	27.788295	3.714423E-5	20.866221
2251.627579	-3.023200	3.222400	-9.740100	27.773167	3.503208E-5	20.870910
2252.619625	-3.005100	3.223800	-9.687000	27.770638	3.625317E-5	20.885908
2253.620358	-3.020500	3.222700	-9.732900	27.860774	3.631917E-5	20.869463
2254.618071	-3.023200	3.224200	-9.746300	27.924324	3.424002E-5	20.890275
2255.617921	-3.011100	3.221600	-9.699400	27.961317	3.509808E-5	20.890051
2256.619536	-2.991100	3.220500	-9.631800	27.973812	3.536210E-5	20.882240
2257.618882	-2.998800	3.221400	-9.659400	27.971855	3.470205E-5	20.889278
2258.619228	-3.006700	3.220200	-9.681300	28.019108	3.440503E-5	20.884211
2259.622214	-3.000900	3.219500	-9.661200	27.999521	3.394300E-5	20.892470
2260.622010	-2.977400	3.220200	-9.587300	27.950357	3.430602E-5	20.903200
2261.619683	-2.991900	3.218400	-9.628600	27.945943	3.447103E-5	20.870784
2262.621116	-2.981300	3.219300	-9.596700	27.991612	3.354697E-5	20.862699
2263.620653	-3.000000	3.219000	-9.655300	28.033982	3.569212E-5	20.889225
2264.621177	-3.001000	3.217400	-9.654600	28.023074	3.209486E-5	20.904797
2265.622665	-3.009400	3.215500	-9.676100	27.991785	3.301893E-5	20.884683
2266.620818	-2.985500	3.219100	-9.609600	27.949016	3.351396E-5	20.889050
2267.620277	-2.985600	3.218500	-9.608200	27.990991	3.374498E-5	20.895737
2268.621673	-3.002400	3.218700	-9.662100	27.996346	3.572513E-5	20.896385
2269.622723	-3.009700	3.214200	-9.673200	27.997958	3.136881E-5	20.899430
2270.622879	-2.993900	3.214600	-9.622900	27.995206	3.117079E-5	20.884333
2271.624837	-3.013000	3.213600	-9.682200	27.961487	3.140181E-5	20.904445
2272.623345	-3.004700	3.212700	-9.652300	27.958338	3.225987E-5	20.892742
2273.622715	-2.999100	3.213400	-9.636900	27.903467	3.255689E-5	20.911481
2274.622138	-2.989900	3.214100	-9.609100	27.920626	3.123680E-5	20.889398
2275.622657	-2.992800	3.212600	-9.613900	27.958310	2.958668E-5	20.905989
2276.621591	-2.973300	3.213100	-9.553000	27.927814	3.219387E-5	20.900425
2277.624042	-2.983500	3.211800	-9.581600	27.934906	2.905864E-5	20.911829
2278.623253	-2.993000	3.211100	-9.609600	27.924392	3.018072E-5	20.909782
2279.626750	-2.999200	3.210400	-9.627400	27.907581	3.044474E-5	20.917042
2280.624750	-3.007200	3.209400	-9.651000	27.910656	3.031273E-5	20.907811
2281.628600	-3.008700	3.211300	-9.660800	27.913853	2.965268E-5	20.909132
2282.626995	-3.014000	3.211700	-9.679100	27.916728	2.948767E-5	20.915817
2283.626376	-2.987200	3.208600	-9.583700	27.942712	3.097278E-5	20.907832
2284.627239	-3.000400	3.208500	-9.625600	28.008340	2.955367E-5	20.888070
2285.626187	-2.988800	3.208500	-9.588400	28.065731	2.895963E-5	20.924501
2286.626538	-2.995400	3.207500	-9.607300	28.007843	2.645145E-5	20.905586
2287.626728	-2.997700	3.206800	-9.611800	27.980225	2.915764E-5	20.894383
2288.635285	-2.985000	3.206400	-9.570500	27.922107	2.730951E-5	20.895630
2289.630410	-2.981200	3.206500	-9.557600	27.868675	2.948767E-5	20.903965
2290.627875	-2.990800	3.205000	-9.585200	27.876707	2.664946E-5	20.911100
2291.630385	-3.018700	3.205000	-9.674000	27.900931	3.021372E-5	20.900394
2292.625930	-2.998500	3.205500	-9.610100	27.991206	2.763953E-5	20.894057
2293.628068	-2.966900	3.204900	-9.507500	28.050110	2.658346E-5	20.882701
2294.627909	-2.998000	3.204200	-9.605300	28.045696	2.631944E-5	20.885370
2295.627746	-2.998300	3.202600	-9.601300	28.055687	2.783755E-5	20.896374
2296.636147	-3.008300	3.201400	-9.630100	28.080180	2.892663E-5	20.868875
2297.625937	-3.005500	3.202300	-9.623500	28.125817	2.618743E-5	20.886367
2298.635886	-3.022400	3.200900	-9.673400	28.162902	2.572539E-5	20.896673
2299.628500	-2.989300	3.201500	-9.569500	28.123535	2.371224E-5	20.883121
2300.629355	-3.007100	3.200800	-9.624400	28.122990	2.466931E-5	20.894425
2301.629893	-3.024300	3.201500	-9.680500	28.135236	2.674847E-5	20.895373
2302.627856	-3.001400	3.199900	-9.602700	28.185134	2.460331E-5	20.877330
2303.629501	-3.028600	3.199000	-9.687700	28.131194	2.466931E-5	20.885142
2304.631290	-2.991600	3.199100	-9.569800	28.090787	2.480132E-5	20.880974
2305.627878	-3.016000	3.197800	-9.643600	28.044797	2.556038E-5	20.873561
2306.632507	-3.005400	3.197500	-9.608800	28.066242	2.140207E-5	20.873811
2307.628090	-3.009000	3.197000	-9.618700	28.096908	2.354723E-5	20.862956
2308.628564	-3.007100	3.196100	-9.610100	28.097577	2.120406E-5	20.869319
2309.632115	-3.031300	3.195500	-9.686000	28.139669	2.321721E-5	20.875182
2310.632919	-3.014700	3.194900	-9.630800	28.066786	2.265617E-5	20.886685
2311.631693	-3.033000	3.195000	-9.689600	28.097501	2.216113E-5	20.874458
2312.630948	-3.028300	3.193600	-9.670500	28.104715	2.212813E-5	20.876503
2313.631403	-3.004100	3.194100	-9.593800	28.110813	2.100605E-5	20.875056
2314.631207	-3.010500	3.194300	-9.615800	28.145916	2.070902E-5	20.876729
2315.630695	-3.014400	3.191900	-9.620500	28.137239	2.288718E-5	20.896915
2316.629529	-3.009400	3.192600	-9.606900	28.173083	2.193011E-5	20.875156
2317.630081	-2.985500	3.192300	-9.530100	28.223996	2.008198E-5	20.872359
2318.633434	-3.013000	3.191700	-9.616000	28.213065	2.153408E-5	20.874156
2319.631868	-3.009300	3.192000	-9.604600	28.256442	2.064302E-5	20.905498
2320.632818	-2.994700	3.189900	-9.551600	28.287970	2.004897E-5	20.885086
2321.633908	-3.019400	3.189400	-9.629100	28.321455	2.077503E-5	20.857162
2322.632096	-3.011000	3.187800	-9.597900	28.315978	2.021399E-5	20.872510
2323.634019	-2.988400	3.187900	-9.525900	28.318010	1.846486E-5	20.855117
2324.635458	-2.983000	3.187400	-9.507600	28.229474	2.080803E-5	20.871237
2325.634335	-2.997900	3.186000	-9.549900	28.197126	1.800282E-5	20.879446
2326.631850	-2.979500	3.187700	-9.497400	28.168197	1.796982E-5	20.863125
2327.632938	-2.985700	3.185700	-9.511000	28.178633	2.077503E-5	20.853243
2328.632327	-2.998300	3.185600	-9.551100	28.201092	1.859687E-5	20.869214
2329.636075	-2.977600	3.185100	-9.483400	28.201513	1.727677E-5	20.859208
2330.635164	-3.005900	3.183900	-9.568500	28.235870	1.684774E-5	20.857288
2331.635432	-2.997200	3.184100	-9.541600	28.184385	1.661672E-5	20.862827
2332.633998	-3.007400	3.183700	-9.573800	28.177022	1.862987E-5	20.852570
2333.635961	-3.001900	3.181400	-9.548100	28.213164	1.655072E-5	20.838696
2334.635293	-3.011900	3.181300	-9.580400	28.202582	1.734278E-5	20.862654
2335.639196	-3.034700	3.179200	-9.646300	28.158458	1.836585E-5	20.850950
2336.635064	-2.996200	3.179200	-9.525000	28.146858	1.602268E-5	20.838799
2337.635104	-2.957900	3.181400	-9.408600	28.191848	2.094004E-5	20.846159
2338.637296	-3.002300	3.180200	-9.547300	28.237656	1.767280E-5	20.841544
2339.635517	-2.996000	3.179500	-9.525100	28.235995	1.829985E-5	20.857414
2340.638347	-3.003300	3.178600	-9.545200	28.198442	1.912491E-5	20.867969
2341.641469	-3.024500	3.177500	-9.609400	28.162003	1.605568E-5	20.842192
2342.639505	-3.017900	3.177400	-9.588600	28.185007	1.856387E-5	20.848281
2343.640905	-2.997100	3.177000	-9.521000	28.246058	1.688074E-5	20.828192
2344.638500	-3.023600	3.174200	-9.597100	28.286807	1.737578E-5	20.830339
2345.639637	-3.004500	3.174400	-9.537000	28.205160	2.008198E-5	20.864302
2346.639194	-2.996500	3.174400	-9.511300	28.161485	1.882789E-5	20.836928
2347.639874	-3.016100	3.174800	-9.573500	28.154543	1.711176E-5	20.860759
2348.644701	-2.995600	3.172400	-9.502900	28.124052	1.711176E-5	20.825798
2349.645459	-2.997500	3.172900	-9.509700	28.068275	1.562665E-5	20.831289
2350.644460	-2.991800	3.173500	-9.493500	28.111732	1.628670E-5	20.848956
2351.641216	-2.986200	3.171800	-9.471000	28.206945	1.681474E-5	20.847608
2352.641660	-2.988900	3.170900	-9.476400	28.310752	1.562665E-5	20.845912
2353.641403	-2.991100	3.170700	-9.483300	28.370903	1.810183E-5	20.857640
2354.643774	-2.997200	3.169600	-9.498700	28.354447	1.694675E-5	20.839175
2355.644186	-3.004400	3.168300	-9.517200	28.350977	1.625370E-5	20.840896
2356.642862	-3.017900	3.168400	-9.561200	28.342626	1.447156E-5	20.836754
2357.646286	-2.974200	3.167100	-9.418400	28.384262	1.513161E-5	20.842169
2358.647449	-3.032600	3.165100	-9.597300	28.397473	1.556064E-5	20.841721
2359.644866	-3.001100	3.165600	-9.499800	28.354645	1.420755E-5	20.847434
2360.644547	-3.003300	3.165000	-9.503800	28.372467	1.447156E-5	20.854947
2361.645762	-3.012600	3.164200	-9.531800	28.320170	1.493360E-5	20.848283
2362.643933	-2.998800	3.164300	-9.487000	28.325202	1.414154E-5	20.850030
2363.650671	-2.983000	3.163500	-9.436300	28.350433	1.391052E-5	20.824702
2364.646519	-3.029500	3.162700	-9.580100	28.308372	1.414154E-5	20.825499
2365.646020	-2.999800	3.161500	-9.483100	28.354373	1.311847E-5	20.861858
2366.649159	-2.990500	3.162500	-9.456100	28.395044	1.061028E-5	20.840224
2367.645443	-3.019600	3.159700	-9.540200	28.467062	1.235941E-5	20.858216
2368.645157	-3.004900	3.159800	-9.494100	28.425427	1.311847E-5	20.849481
2369.650335	-3.036800	3.158200	-9.590200	28.322798	1.301946E-5	20.834808
2370.649984	-3.004300	3.157900	-9.486900	28.294248	1.166636E-5	20.847313
2371.650342	-2.978500	3.159400	-9.409200	28.330110	1.235941E-5	20.821782
2372.648114	-3.027000	3.156800	-9.554800	28.334994	1.371251E-5	20.839975
2373.647571	-2.989500	3.156300	-9.434700	28.275360	1.113832E-5	20.829244
2374.648872	-3.003500	3.156000	-9.477700	28.268469	1.143534E-5	20.837479
2375.649253	-2.988800	3.156100	-9.431700	28.264008	1.189738E-5	20.831565
2376.646867	-3.007100	3.154100	-9.484200	28.185580	1.090730E-5	20.826099
2377.648592	-3.006700	3.153500	-9.480900	28.207815	8.597133E-6	20.834259
2378.656241	-3.002300	3.152700	-9.465100	28.275929	1.285445E-5	20.835508
2379.649405	-2.983600	3.152400	-9.404700	28.262223	1.034626E-5	20.835932
2380.649794	-2.999200	3.151400	-9.451200	28.310878	9.455196E-6	20.834660
2381.653713	-3.000700	3.150500	-9.453000	28.357795	9.224179E-6	20.829743
2382.650293	-2.987300	3.150100	-9.409200	28.313330	8.366116E-6	20.823379
2383.649700	-2.999900	3.148700	-9.445200	28.216714	1.186437E-5	20.829942
2384.652746	-2.988300	3.148400	-9.407500	28.210021	6.616987E-6	20.844067
2385.649355	-2.987900	3.149000	-9.408400	28.301855	9.224179E-6	20.828894
2386.654685	-3.001300	3.147100	-9.444200	28.308697	9.059167E-6	20.808282
2387.659667	-2.980400	3.146300	-9.375800	28.246110	9.356189E-6	20.829667
2388.650177	-2.988700	3.145900	-9.401300	28.277986	6.848004E-6	20.816716
2389.653428	-2.975800	3.146300	-9.361500	28.313454	6.914009E-6	20.825874
2390.658830	-3.005400	3.143100	-9.445900	28.348698	8.201104E-6	20.826748
2391.651679	-3.017400	3.142000	-9.479500	28.336826	7.442048E-6	20.833286
2392.652287	-3.002400	3.141700	-9.431400	28.371275	6.055946E-6	20.832411
2393.655481	-2.992400	3.141300	-9.398900	28.387112	1.004924E-5	20.813745
2394.655734	-3.001200	3.140400	-9.424300	28.436554	5.659917E-6	20.813271
2395.654120	-3.004000	3.138500	-9.427700	28.467061	7.871079E-6	20.819335
2396.656462	-3.008600	3.137900	-9.439400	28.454570	6.848004E-6	20.826671
2397.651549	-3.000400	3.138800	-9.416900	28.473727	7.343041E-6	20.832212
2398.651957	-2.983900	3.137100	-9.359600	28.454695	6.352968E-6	20.821108
2399.656016	-2.996200	3.136600	-9.397100	28.405626	8.630135E-6	20.813896
2400.654447	-2.980000	3.137400	-9.347900	28.386368	8.531128E-6	20.834332
2401.653890	-2.983100	3.136100	-9.354500	28.355414	6.220958E-6	20.835407
2402.651153	-2.991100	3.135100	-9.376600	28.344384	6.616987E-6	20.830939
2403.651015	-2.994600	3.132200	-9.379100	28.444608	4.933863E-6	20.810950
2404.652393	-2.991700	3.132100	-9.369500	28.410259	4.174807E-6	20.819510
2405.652559	-2.987700	3.133400	-9.360600	28.450308	8.201104E-6	20.818112
2406.652795	-2.981800	3.129900	-9.332200	28.469836	3.910788E-6	20.824027
2407.653516	-2.992100	3.130100	-9.364400	28.466761	3.646768E-6	20.815715
2408.652839	-3.006100	3.128200	-9.402700	28.424311	4.042798E-6	20.811849
2409.652250	-3.020300	3.128400	-9.448100	28.441832	3.151732E-6	20.820483
2410.653997	-3.011800	3.127900	-9.419700	28.415586	3.811781E-6	20.811123
2411.654041	-3.011900	3.125200	-9.411800	28.418065	3.547761E-6	20.825473
2412.652758	-3.004400	3.124400	-9.386000	28.491469	4.933863E-6	20.809302
2413.652330	-3.024900	3.124800	-9.451700	28.444483	4.174807E-6	20.822678
2414.651474	-3.016500	3.124400	-9.423600	28.444531	3.646768E-6	20.798070
2415.653612	-3.002300	3.124100	-9.379000	28.448225	3.811781E-6	20.826446
2416.654073	-2.986600	3.122800	-9.325500	28.432290	3.943790E-6	20.797124
2417.654659	-3.011400	3.121400	-9.398700	28.443168	3.712773E-6	20.826569
2418.654642	-2.999600	3.121200	-9.361300	28.477764	2.755703E-6	20.804509
2419.654336	-3.004000	3.119100	-9.368700	28.538698	8.745644E-7	20.826993
2420.653609	-3.001800	3.118500	-9.358600	28.609416	2.458681E-6	20.831833
2421.655100	-2.995500	3.117400	-9.337000	28.624160	4.933863E-6	20.818233
2422.656470	-2.979200	3.117200	-9.285400	28.554680	1.567615E-6	20.812268
2423.654945	-2.974200	3.117300	-9.271100	28.550690	2.953717E-6	20.818681
2424.656770	-2.987900	3.114500	-9.305100	28.524075	1.798632E-6	20.828862
2425.665880	-3.023800	3.113800	-9.414700	28.509977	1.831635E-6	20.803759
2426.657529	-2.982200	3.113300	-9.283700	28.578689	2.392676E-6	20.813689
2427.656551	-2.978100	3.112700	-9.268100	28.613304	2.722700E-6	20.829111
2428.656010	-2.990700	3.110900	-9.302200	28.675991	1.006574E-6	20.823022
2429.657999	-2.989200	3.110700	-9.296200	28.709539	2.458681E-6	20.808923
2430.655404	-3.004700	3.109200	-9.341500	28.717566	1.270594E-6	20.804206
2431.658386	-3.009400	3.109400	-9.356200	28.736024	-7.755571E-7	20.827539
2432.662097	-2.957500	3.110300	-9.197900	28.583916	1.930642E-6	20.819427
2433.659648	-2.999900	3.107300	-9.321000	28.621231	-1.039577E-6	20.812438
2434.658555	-3.003800	3.105800	-9.328000	28.649403	-1.485109E-7	20.816157
2435.660458	-3.030000	3.104600	-9.406500	28.649824	2.227664E-6	20.820848
2436.659167	-2.990500	3.105000	-9.284700	28.639591	1.138584E-6	20.810541
2437.658193	-3.010700	3.103600	-9.343700	28.685948	1.815134E-7	20.802231
2438.660211	-3.003400	3.101600	-9.314600	28.738075	1.534613E-6	20.801631
2439.663210	-2.980400	3.101900	-9.243300	28.745905	-1.336598E-6	20.806672
2440.660816	-2.989800	3.100400	-9.269000	28.659335	-2.194662E-6	20.810039
2441.664533	-2.999000	3.099000	-9.292900	28.593476	-4.785352E-7	20.801555
2442.663324	-3.023300	3.097100	-9.362400	28.589089	-1.237591E-6	20.811361
2443.662218	-2.996700	3.097000	-9.279400	28.664066	-1.105581E-6	20.794416
2444.663568	-2.987800	3.096500	-9.250600	28.610423	-3.465255E-7	20.816726
2445.667177	-2.994100	3.095200	-9.266100	28.594390	-5.775425E-7	20.799630
2446.665106	-3.033500	3.093900	-9.383800	28.548847	-8.085595E-7	20.791695
2447.662759	-2.969300	3.094400	-9.186600	28.578853	8.745644E-7	20.780190
2448.664027	-2.987100	3.092300	-9.236100	28.579125	-1.270594E-6	20.802275
2449.665948	-2.987900	3.090300	-9.232900	28.653287	-2.095654E-6	20.788774
2450.665445	-2.997000	3.089500	-9.258100	28.678509	-1.831635E-6	20.818445
2451.665267	-2.984300	3.087700	-9.213800	28.625312	-8.415620E-7	20.809437
2452.665058	-3.004400	3.087000	-9.272200	28.590372	-3.448754E-6	20.788471
2453.668650	-3.030900	3.085800	-9.351900	28.558976	-3.448754E-6	20.803319
2454.665249	-3.013900	3.084000	-9.293800	28.568244	-1.897640E-6	20.801273
2455.667907	-3.003400	3.085200	-9.264900	28.551393	-3.580764E-6	20.787621
2456.671055	-3.008600	3.083300	-9.275500	28.512065	-1.336598E-6	20.792111
2457.667311	-3.018200	3.082100	-9.300800	28.570670	-2.326671E-6	20.793759
2458.669154	-3.044600	3.080600	-9.378600	28.641706	-2.062652E-6	20.814095
2459.666076	-2.991400	3.080000	-9.213000	28.681028	-3.910788E-6	20.788266
2460.672036	-2.991400	3.078800	-9.208800	28.660934	-2.161659E-6	20.795528
2461.666287	-3.010100	3.076500	-9.260000	28.719478	-2.788705E-6	20.788114
2462.667754	-2.968800	3.078200	-9.137800	28.693661	-1.930642E-6	20.802888
2463.667237	-2.996300	3.076200	-9.216700	28.693711	-2.194662E-6	20.799144
2464.665078	-2.995100	3.074000	-9.206200	28.666430	-3.811781E-6	20.801538
2465.666225	-2.973300	3.074100	-9.139100	28.678696	-3.712773E-6	20.790659
2466.670691	-3.004200	3.074000	-9.233300	28.730946	-2.887713E-6	20.813416
2467.670124	-3.010300	3.071200	-9.244500	28.791843	-2.326671E-6	20.799367
2468.667733	-2.995100	3.070800	-9.195500	28.863908	-1.930642E-6	20.797520
2469.675225	-2.997200	3.070000	-9.200400	28.873145	-4.405824E-6	20.807300
2470.668025	-3.009100	3.067700	-9.229400	28.873443	-3.514759E-6	20.783418
2471.670529	-3.004500	3.067600	-9.215500	28.786810	-3.514759E-6	20.789082
2472.671492	-3.002500	3.065700	-9.204100	28.745486	-3.613766E-6	20.793449
2473.671515	-2.987000	3.064800	-9.153600	28.735007	-4.273815E-6	20.798540
2474.668511	-3.001500	3.063800	-9.195000	28.642368	-4.504832E-6	20.796269
2475.672206	-2.993400	3.062800	-9.167300	28.599476	-4.339820E-6	20.807597
2476.667307	-2.977500	3.062800	-9.118900	28.690657	-6.848004E-6	20.780421
2477.671366	-2.990700	3.060500	-9.151800	28.779501	-6.121951E-6	20.794996
2478.671870	-2.989100	3.059000	-9.143100	28.819113	-2.359674E-6	20.794120
2479.667736	-3.010600	3.056600	-9.201400	28.853350	-1.864637E-6	20.807272
2480.668762	-3.022000	3.055700	-9.233600	28.826397	-4.702846E-6	20.794346
2481.673687	-3.016800	3.054600	-9.214400	28.771498	-2.293669E-6	20.797839
2482.671048	-2.996600	3.054600	-9.152400	28.803804	-5.428900E-6	20.780121
2483.674655	-2.998600	3.052400	-9.152300	28.818618	-3.283742E-6	20.789828
2484.672904	-2.995400	3.050400	-9.136200	28.836008	-2.557688E-6	20.781743
2485.672477	-2.993900	3.049400	-9.127500	28.836627	-6.286963E-6	20.786633
2486.675834	-3.015700	3.048700	-9.193200	28.770830	-3.382749E-6	20.797166
2487.674268	-2.987700	3.048800	-9.107700	28.776032	-4.999868E-6	20.798613
2488.671738	-3.000900	3.046700	-9.141700	28.777046	-4.471829E-6	20.781143
2489.671518	-3.000200	3.044500	-9.133200	28.831822	-4.603839E-6	20.794595
2490.683106	-2.976100	3.044800	-9.060900	28.897021	-5.791927E-6	20.773506
2491.674840	-2.991500	3.042600	-9.101500	28.938289	-5.395897E-6	20.799434
2492.672550	-2.998700	3.041100	-9.118500	28.964175	-4.735849E-6	20.777150
2493.676057	-2.989800	3.040800	-9.090300	29.001850	-5.461902E-6	20.761528
2494.672586	-2.991900	3.038200	-9.088900	29.010170	-5.989941E-6	20.782239
2495.675873	-2.995700	3.038000	-9.099100	29.014852	-4.504832E-6	20.766094
2496.675006	-3.009100	3.036100	-9.135200	29.018245	-5.824929E-6	20.769513
2497.674652	-3.016700	3.035700	-9.157100	28.976632	-6.715995E-6	20.770260
2498.675013	-3.012600	3.033800	-9.139200	28.991097	-6.848004E-6	20.774876
2499.675010	-2.997900	3.032600	-9.091200	28.919042	-8.432121E-6	20.770560
2500.675814	-2.993700	3.033400	-9.080000	28.898728	-7.508053E-6	20.773803
2501.675223	-3.009700	3.031000	-9.121200	28.867864	-5.428900E-6	20.771159
2502.679002	-2.979300	3.028500	-9.022100	28.915227	-3.811781E-6	20.769088
2503.676955	-2.995800	3.029000	-9.073600	28.957906	-9.125172E-6	20.779369
2504.675335	-2.990100	3.025800	-9.046900	28.997142	-4.999868E-6	20.768639
2505.676790	-3.009500	3.023900	-9.098600	28.891000	-7.508053E-6	20.775501
2506.679023	-2.995800	3.023600	-9.056600	28.785146	-6.484978E-6	20.765593
2507.674556	-3.022100	3.020500	-9.126900	28.759307	-6.286963E-6	20.765645
2508.677343	-3.016100	3.021400	-9.112300	28.706536	-7.211031E-6	20.748525
2509.679657	-3.035400	3.018900	-9.162600	28.694593	-7.277036E-6	20.761152
2510.676117	-2.986600	3.018800	-9.014700	28.784676	-4.834856E-6	20.777923
2511.682316	-3.012800	3.016700	-9.088300	28.862563	-4.174807E-6	20.771035
2512.678554	-2.997900	3.016400	-9.042000	28.918645	-7.673065E-6	20.763997
2513.677788	-2.987200	3.014600	-9.004400	28.973934	-6.121951E-6	20.763274
2514.678793	-3.008400	3.012100	-9.059700	28.983644	-6.187956E-6	20.750771
2515.681349	-2.988000	3.012000	-8.999200	28.961623	-7.739070E-6	20.753716
2516.677637	-3.026600	3.010400	-9.110400	28.929373	-5.890934E-6	20.770537
2517.682357	-3.013000	3.008200	-9.063000	28.869104	-8.828150E-6	20.759132
2518.681535	-3.029900	3.006400	-9.108300	28.868485	-5.296890E-6	20.766569
2519.677497	-2.994700	3.006600	-9.002600	28.859741	-5.428900E-6	20.753967
2520.681529	-2.997300	3.004000	-9.002900	28.859765	-8.399119E-6	20.773432
2521.679304	-2.988700	3.004500	-8.978700	28.865783	-8.597133E-6	20.766218
2522.681272	-3.033200	3.001400	-9.103100	28.840144	-6.517980E-6	20.769313
2523.682803	-3.002200	3.000800	-9.008000	28.919638	-6.748997E-6	20.749823
2524.680257	-2.988600	3.000100	-8.964400	28.979829	-6.484978E-6	20.776326
2525.686851	-2.992200	2.997200	-8.967400	29.000711	-6.055946E-6	20.759906
2526.684475	-3.014800	2.995900	-9.031200	29.010915	-7.013017E-6	20.794369
2527.684328	-2.961200	2.995500	-8.869700	29.002913	-8.564131E-6	20.776350
2528.682327	-2.998100	2.992600	-8.971300	29.035759	-5.956939E-6	20.745432
2529.687766	-3.009500	2.992100	-9.004000	29.065058	-5.461902E-6	20.768790
2530.682255	-3.006600	2.989900	-8.988400	29.036006	-7.508053E-6	20.766070
2531.686129	-3.025900	2.988700	-9.042700	28.983769	-8.630136E-6	20.770812
2532.685582	-2.982900	2.987300	-8.909700	28.930982	-8.003089E-6	20.756037
2533.685962	-3.016900	2.985800	-9.006600	28.878146	-7.178029E-6	20.773457
2534.697050	-3.001700	2.984900	-8.959000	28.902768	-8.102097E-6	20.771235
2535.691875	-2.998700	2.983700	-8.946200	28.892116	-7.277036E-6	20.749597
2536.684999	-3.005700	2.981400	-8.960800	28.854958	-6.616987E-6	20.762425
2537.689431	-2.998300	2.979600	-8.933300	28.861870	-6.286963E-6	20.765121
2538.690281	-3.005300	2.978700	-8.950900	28.881142	-8.135099E-6	20.782166
2539.690405	-3.012200	2.979300	-8.973000	28.862438	-9.422194E-6	20.763796
2540.684570	-3.028300	2.976700	-9.012900	28.883942	-8.729143E-6	20.772658
2541.687652	-3.029200	2.973700	-9.006900	28.961126	-8.531128E-6	20.775975
2542.686378	-3.005100	2.973400	-8.934700	29.037415	-8.465124E-6	20.762748
2543.688459	-3.018500	2.973000	-8.972900	29.020103	-7.607060E-6	20.759530
2544.687675	-3.010100	2.969200	-8.936600	29.016758	-1.044527E-5	20.763746
2545.685534	-3.014900	2.968200	-8.948300	29.064462	-8.234107E-6	20.752542
2546.699937	-2.997100	2.967100	-8.891100	29.024338	-6.682992E-6	20.757633
2547.692461	-3.004200	2.965200	-8.907200	29.049627	-8.729143E-6	20.760354
2548.693750	-2.999400	2.964000	-8.888800	29.021788	-9.125172E-6	20.763599
2549.691520	-3.001700	2.962200	-8.891000	28.995730	-8.498126E-6	20.753940
2550.692334	-3.012100	2.960700	-8.916600	29.006778	-8.300111E-6	20.766968
2551.692967	-3.012100	2.960100	-8.915400	28.997416	-8.729143E-6	20.757535
2552.690634	-2.981400	2.958700	-8.820300	29.017330	-8.696141E-6	20.765271
2553.692412	-2.985900	2.958300	-8.832400	28.984114	-9.257182E-6	20.767841
2554.689293	-2.991000	2.955700	-8.839200	29.032265	-7.541055E-6	20.780793
2555.690590	-3.004000	2.954100	-8.873000	29.058223	-7.970087E-6	20.770912
2556.694225	-2.984600	2.951900	-8.809400	29.080463	-8.234107E-6	20.756811
2557.694094	-2.983700	2.950300	-8.802100	29.160781	-8.399119E-6	20.769938
2558.697614	-2.993800	2.949300	-8.829000	29.215883	-6.881007E-6	20.760980
2559.700345	-2.983700	2.948100	-8.795100	29.179503	-8.003089E-6	20.765571
2560.693937	-2.985000	2.945500	-8.791600	29.159124	-9.521201E-6	20.765423
2561.707740	-2.992700	2.944900	-8.812300	29.164918	-8.696141E-6	20.784539
2562.702394	-2.960900	2.943800	-8.715300	29.117937	-9.455196E-6	20.769441
2563.699878	-3.008600	2.941000	-8.847500	29.109691	-1.047827E-5	20.781520
2564.698078	-2.997000	2.939500	-8.809300	29.027091	-9.059167E-6	20.784115
2565.699629	-3.010100	2.938700	-8.844300	29.025679	-8.069094E-6	20.760407
2566.701282	-3.030000	2.934400	-8.891000	29.074423	-9.719216E-6	20.773484
2567.705907	-2.962500	2.934800	-8.692600	29.107016	-9.191177E-6	20.766970
2568.706530	-3.013500	2.933000	-8.837600	29.115609	-6.980014E-6	20.793648
2569.701173	-2.985000	2.931400	-8.749000	29.137007	-8.465124E-6	20.745507
2570.708047	-3.005300	2.930200	-8.805500	29.097528	-8.102097E-6	20.769738
2571.707720	-2.986200	2.928600	-8.744500	29.102062	-7.772072E-6	20.756288
2572.698756	-2.949700	2.927600	-8.634800	29.165833	-7.574058E-6	20.762701
2573.700317	-2.976800	2.924200	-8.703800	29.144164	-9.092170E-6	20.769315
2574.701601	-2.986300	2.922800	-8.727700	29.201322	-8.795148E-6	20.775704
2575.698056	-2.991800	2.921500	-8.739800	29.229974	-6.583985E-6	20.768068
2576.705728	-3.023800	2.918700	-8.825100	29.245451	-8.036092E-6	20.777501
2577.705876	-2.981400	2.918300	-8.699900	29.210260	-7.508053E-6	20.772858
2578.702990	-2.949700	2.917400	-8.604000	29.169078	-9.092170E-6	20.774032
2579.706555	-2.993700	2.914400	-8.724000	29.105751	-8.861153E-6	20.771860
2580.706026	-2.975600	2.912000	-8.663300	29.058892	-7.343041E-6	20.790078
2581.704934	-3.006400	2.910800	-8.750900	29.110927	-7.673065E-6	20.788455
2582.700694	-2.992300	2.909300	-8.704900	29.193643	-7.673065E-6	20.781716
2583.705328	-2.980600	2.908300	-8.667500	29.242379	-8.102097E-6	20.763025
2584.702754	-2.983600	2.906100	-8.669200	29.293289	-9.521201E-6	20.792047
2585.704927	-3.005100	2.902700	-8.722000	29.275858	-9.785221E-6	20.784437
2586.704670	-3.007800	2.901600	-8.726400	29.290294	-1.014825E-5	20.775751
2587.704628	-2.979000	2.902000	-8.643500	29.224868	-9.257182E-6	20.794217
2588.705807	-3.018700	2.896700	-8.743400	29.191660	-8.003089E-6	20.774977
2589.705979	-2.981500	2.896100	-8.633500	29.181877	-8.597133E-6	20.794516
2590.706365	-3.005800	2.895400	-8.702100	29.121895	-8.597133E-6	20.777696
2591.704506	-3.004900	2.892700	-8.690900	29.081946	-8.597133E-6	20.799557
2592.712447	-2.994100	2.891400	-8.656700	29.063245	-7.904082E-6	20.787826
2593.707258	-3.049400	2.888200	-8.805700	29.036547	-6.682992E-6	20.772305
2594.713397	-2.977900	2.887500	-8.597400	29.084545	-6.187956E-6	20.779890
2595.710680	-2.991500	2.885500	-8.631100	29.191682	-9.026165E-6	20.786853
2596.705244	-3.002300	2.883900	-8.657100	29.236702	-7.277036E-6	20.775797
2597.710473	-3.034600	2.880000	-8.737600	29.182370	-8.201104E-6	20.791694
2598.711834	-3.023900	2.879300	-8.706000	29.195346	-7.178029E-6	20.803348
2599.706619	-2.986100	2.878400	-8.594600	29.139079	-8.366116E-6	20.781736
2600.722346	-3.029800	2.875200	-8.709700	29.136281	-1.120433E-5	20.806891
2601.711308	-3.018100	2.874700	-8.675600	29.216073	-9.059167E-6	20.792940
2602.710601	-2.995000	2.873200	-8.604300	29.244403	-1.001624E-5	20.789247
2603.709165	-3.028300	2.868400	-8.686000	29.243908	-7.673065E-6	20.788274
2604.713273	-2.974600	2.868900	-8.533300	29.206017	-7.739070E-6	20.803196
2605.713014	-3.015700	2.866600	-8.643800	29.189847	-7.772072E-6	20.791642
2606.713575	-3.012200	2.864200	-8.626600	29.164859	-7.739070E-6	20.788747
2607.713680	-2.995900	2.861100	-8.570700	29.219837	-9.653211E-6	20.810009
2608.712365	-2.999900	2.860700	-8.580900	29.273176	-6.616987E-6	20.802597
2609.712724	-3.030900	2.858400	-8.662600	29.255518	-8.498126E-6	20.801871
2610.718395	-3.007300	2.856100	-8.588700	29.258565	-9.191177E-6	20.821537
2611.712746	-2.992600	2.854900	-8.542900	29.306555	-8.333114E-6	20.794510
2612.711798	-3.014000	2.851600	-8.594400	29.300585	-8.168102E-6	20.803667
2613.719364	-2.976100	2.850900	-8.483100	29.229789	-9.752218E-6	20.796805
2614.713575	-2.965600	2.850200	-8.451400	29.196333	-7.277036E-6	20.812402
2615.716826	-3.003500	2.846000	-8.547400	29.183528	-9.554204E-6	20.814672
2616.717626	-2.984300	2.843900	-8.486100	29.218966	-7.673065E-6	20.815295
2617.715483	-3.010700	2.841900	-8.555400	29.291373	-8.432121E-6	20.789641
2618.719436	-3.027600	2.839100	-8.594800	29.327648	-8.168102E-6	20.810078
2619.714929	-3.000900	2.836900	-8.512700	29.278496	-8.168102E-6	20.803691
2620.714358	-3.014900	2.835700	-8.548400	29.255985	-6.848004E-6	20.815618
2621.711602	-3.020100	2.834100	-8.557900	29.371968	-8.465124E-6	20.796900
2622.718746	-2.981900	2.831600	-8.442400	29.289562	-8.894155E-6	20.789239
2623.714681	-2.987200	2.829000	-8.450100	29.255811	-8.960160E-6	20.819709
2624.716989	-2.983300	2.827700	-8.435100	29.255117	-7.277036E-6	20.782500
2625.718929	-2.983500	2.824400	-8.425600	29.286786	-8.663138E-6	20.810623
2626.716035	-2.996400	2.821000	-8.451300	29.396826	-8.927158E-6	20.803937
2627.714497	-3.010100	2.817900	-8.480700	29.483455	-7.937085E-6	20.799268
2628.714312	-2.993000	2.817100	-8.430600	29.532746	-8.564131E-6	20.791107
2629.717257	-3.028200	2.813900	-8.519900	29.513855	-8.927158E-6	20.828489
2630.714185	-3.008200	2.811700	-8.457100	29.451366	-9.092170E-6	20.801537
2631.720317	-2.985500	2.809700	-8.387600	29.489221	-7.277036E-6	20.822149
2632.719803	-3.014500	2.805600	-8.456500	29.554380	-6.418973E-6	20.812915
2633.716599	-2.983000	2.803300	-8.361300	29.587552	-9.257182E-6	20.824069
2634.730054	-3.019400	2.801600	-8.457500	29.632233	-7.805075E-6	20.839240
2635.718163	-3.024000	2.799600	-8.464300	29.569034	-8.432121E-6	20.832902
2636.719839	-3.029600	2.797100	-8.472900	29.543486	-9.224179E-6	20.830857
2637.720953	-3.015600	2.793300	-8.422700	29.519991	-7.838077E-6	20.819501
2638.717757	-3.000100	2.791400	-8.373500	29.492881	-8.168102E-6	20.820149
2639.719793	-2.990200	2.787200	-8.332200	29.462330	-8.036092E-6	20.822545
2640.728020	-3.026700	2.783900	-8.424800	29.446905	-7.904082E-6	20.821696
2641.725267	-3.000400	2.783100	-8.349400	29.463814	-8.399119E-6	20.837316
2642.719383	-3.000900	2.779600	-8.340400	29.485378	-7.772072E-6	20.811164
2643.720828	-3.040500	2.776300	-8.441000	29.554475	-1.097331E-5	20.838140
2644.719182	-3.021400	2.773000	-8.377900	29.633715	-9.092170E-6	20.821295
2645.720633	-2.995400	2.771000	-8.299400	29.645546	-7.838077E-6	20.839386
2646.725783	-2.961800	2.768900	-8.200000	29.590319	-7.904082E-6	20.835868
2647.721017	-3.007800	2.764700	-8.314300	29.526621	-7.838077E-6	20.838038
2648.720091	-2.975100	2.762300	-8.217000	29.495451	-9.059167E-6	20.842180
2649.726897	-2.966000	2.760000	-8.185500	29.514441	-9.488199E-6	20.839036
2650.717863	-3.014900	2.754700	-8.304700	29.570587	-9.092170E-6	20.841580
2651.724177	-3.012200	2.752200	-8.289300	29.539320	-1.120433E-5	20.823813
2652.718485	-3.013500	2.749100	-8.283600	29.563284	-7.904082E-6	20.836115
2653.721169	-2.993300	2.746900	-8.221500	29.487998	-1.021425E-5	20.840356
2654.722577	-2.986800	2.742600	-8.190800	29.479308	-1.094031E-5	20.825434
2655.719629	-3.011700	2.739000	-8.247800	29.524663	-6.319965E-6	20.839383
2656.721598	-3.008400	2.736300	-8.231000	29.495796	-1.037926E-5	20.819768
2657.716275	-2.988500	2.733200	-8.166900	29.466335	-9.950233E-6	20.859771
2658.721471	-2.980500	2.729400	-8.134400	29.487006	-8.729143E-6	20.824185
2659.718044	-2.995300	2.725900	-8.164200	29.595192	-7.706068E-6	20.837460
2660.716586	-3.021400	2.722300	-8.224300	29.621728	-6.418973E-6	20.844772
2661.720922	-2.972500	2.719700	-8.084100	29.648512	-9.851226E-6	20.832419
2662.719385	-2.981400	2.715000	-8.093400	29.676260	-9.356189E-6	20.832418
2663.722246	-3.012900	2.711100	-8.167400	29.731707	-7.475051E-6	20.840904
2664.721330	-3.000100	2.706900	-8.119900	29.736458	-7.607060E-6	20.847116
2665.721958	-3.008300	2.703600	-8.132600	29.738933	-8.762145E-6	20.838706
2666.723594	-3.013900	2.699500	-8.134900	29.816699	-1.018125E-5	20.845518
2667.723475	-3.031000	2.694500	-8.165900	29.779426	-7.079021E-6	20.864833
2668.723919	-3.020700	2.691500	-8.129100	29.773437	-7.244034E-6	20.845519
2669.722780	-3.006600	2.686600	-8.076900	29.820337	-6.947012E-6	20.856772
2670.725275	-2.981600	2.682900	-7.998000	29.817862	-6.517980E-6	20.867552
2671.719801	-2.988600	2.679100	-8.005700	29.901390	-8.267109E-6	20.850783
2672.726326	-3.023100	2.674000	-8.082400	29.971053	-1.028026E-5	20.839005
2673.721782	-3.001800	2.670500	-8.015200	29.897305	-8.993162E-6	20.850457
2674.720670	-2.996700	2.666100	-7.988400	29.877160	-7.904082E-6	20.859066
2675.723554	-2.980500	2.662500	-7.934600	29.795858	-9.686214E-6	20.842047
2676.726962	-2.996300	2.656600	-7.959100	29.784745	-8.333114E-6	20.862610
2677.732734	-3.032600	2.650300	-8.036500	29.755265	-6.550982E-6	20.859440
2678.724686	-2.985000	2.646300	-7.898700	29.725292	-7.871080E-6	20.860514
2679.725486	-2.980400	2.642900	-7.875200	29.762516	-9.092170E-6	20.858689
2680.725937	-2.983200	2.638200	-7.869400	29.751949	-6.649990E-6	20.851829
2681.727630	-3.001100	2.631900	-7.897800	29.760909	-7.937085E-6	20.874612
2682.732518	-3.004600	2.626800	-7.891600	29.788554	-6.154953E-6	20.868821
2683.727782	-2.995700	2.622000	-7.854300	29.901015	-7.310038E-6	20.854672
2684.727047	-3.011100	2.617000	-7.878800	29.899133	-7.640063E-6	20.870317
2685.731604	-2.995800	2.612300	-7.825400	29.861194	-5.065873E-6	20.852925
2686.728898	-3.022800	2.605900	-7.876200	29.925463	-6.319965E-6	20.844239
2687.729873	-3.007900	2.601600	-7.823800	30.036697	-5.989941E-6	20.879125
2688.726245	-3.026200	2.595600	-7.853800	30.024596	-5.428900E-6	20.874508
2689.730393	-2.997200	2.591200	-7.765600	30.005220	-7.376043E-6	20.876304
2690.744766	-2.977300	2.585300	-7.696500	29.973668	-7.871080E-6	20.862029
2691.730238	-2.981800	2.579100	-7.689400	30.041495	-9.455196E-6	20.852197
2692.731197	-3.007400	2.572300	-7.734000	30.094819	-6.947012E-6	20.884164
2693.737967	-3.044800	2.565800	-7.811700	30.118942	-8.498126E-6	20.873881
2694.731532	-3.016500	2.560800	-7.723100	30.078685	-4.735849E-6	20.874056
2695.730827	-3.008300	2.554300	-7.683200	30.033550	-8.168102E-6	20.877848
2696.730818	-3.020400	2.548300	-7.695600	30.054484	-5.956939E-6	20.879519
2697.729379	-2.983800	2.543500	-7.587600	30.052851	-5.527907E-6	20.852744
2698.730844	-3.043400	2.535600	-7.715300	30.074551	-7.178029E-6	20.875103
2699.728771	-3.020700	2.529700	-7.640400	30.055572	-7.079021E-6	20.875402
2700.737956	-3.043700	2.523300	-7.679100	30.077320	-6.914009E-6	20.879318
2701.728231	-3.002800	2.519000	-7.563100	30.175401	-5.890934E-6	20.885781
2702.734911	-2.972700	2.513600	-7.471600	30.231983	-5.890934E-6	20.881688
2703.736411	-3.009600	2.505800	-7.541400	30.254718	-6.649990E-6	20.862898
2704.732603	-3.039200	2.499400	-7.595800	30.209813	-7.145026E-6	20.884930
