LabVIEW Measurement	
Writer_Version	2
Reader_Version	2
Separator	Tab
Decimal_Separator	.
Multi_Headings	No
X_Columns	One
Time_Pref	Absolute
Operator	admin
Description	Clolumns are: time, Current, Voltage, Power, Battery Temp, and Chamber Temp
Date	2024/08/16
Time	13:07:17.8513970375061035156
***End_of_Header***	
	
Channels	6						
Samples	1	1	1	1	1	1	
Date	2024/08/29	2024/08/29	2024/08/29	2024/08/29	2024/08/29	2024/08/29	
Time	22:53:56.4742298126220703125	22:53:56.4802784919738769531	22:53:56.4852209091186523438	22:53:56.4579730033874511719	22:53:56.4579730033874511719	22:53:56.4579730033874511719	
X_Dimension	Time	Time	Time	Time	Time	Time	
X0	0.0000000000000000E+0	0.0000000000000000E+0	0.0000000000000000E+0	0.0000000000000000E+0	0.0000000000000000E+0	0.0000000000000000E+0	
Delta_X	1.000000	1.000000	1.000000	1.000000	1.000000	1.000000	
***End_of_Header***							
X_Value	Untitled	Untitled 1	Untitled 2	Untitled 3	Untitled 4	Untitled 5	Comment
0.000000	0.003506	4.086600	0.014390	20.825610	0.000455	20.822291
0.999213	-3.008200	3.927100	-11.813000	20.834551	0.000453	20.832181
2.000880	-2.995300	3.922600	-11.749000	20.819600	0.000453	20.818652
3.001168	-3.017500	3.918100	-11.821000	20.827618	0.000452	20.839946
4.000058	-3.009200	3.915000	-11.780000	20.856940	0.000451	20.795776
5.000855	-3.000800	3.913200	-11.742000	20.842772	0.000452	20.808634
6.000221	-2.987700	3.910400	-11.682000	20.830118	0.000450	20.819213
6.999122	-2.991200	3.907800	-11.688000	20.837606	0.000449	20.829546
7.999853	-3.000800	3.905700	-11.719000	20.861737	0.000450	20.812427
9.000663	-3.025900	3.903000	-11.809000	20.854151	0.000448	20.812427
9.998108	-3.000700	3.902200	-11.709000	20.860919	0.000449	20.794065
11.001398	-2.972000	3.902500	-11.597000	20.871479	0.000447	20.825014
12.002176	-3.006500	3.900200	-11.724000	20.876319	0.000448	20.792396
13.000968	-3.004400	3.898300	-11.711000	20.893239	0.000447	20.818801
14.001794	-2.988600	3.896900	-11.645000	20.892944	0.000446	20.792427
15.002953	-3.014800	3.894600	-11.740000	20.910658	0.000449	20.814410
16.005126	-3.013800	3.894200	-11.735000	20.893972	0.000446	20.799620
17.002648	-3.020600	3.894000	-11.761000	20.905449	0.000447	20.788813
18.004327	-3.000300	3.893700	-11.681000	20.921316	0.000446	20.804681
19.003238	-2.989200	3.893200	-11.637000	20.930029	0.000445	20.786368
20.003003	-2.996300	3.891000	-11.657000	20.920325	0.000442	20.789940
21.003646	-3.008000	3.890700	-11.703000	20.939117	0.000444	20.810630
22.004736	-3.005200	3.891100	-11.692000	20.940687	0.000444	20.791338
23.004588	-3.002500	3.889000	-11.675000	20.974052	0.000443	20.795310
24.004740	-3.009700	3.888100	-11.702000	20.957237	0.000442	20.805519
25.004088	-2.999400	3.888300	-11.662000	20.969982	0.000442	20.774644
26.008082	-3.027600	3.887000	-11.767000	20.958857	0.000441	20.794337
27.004065	-2.988900	3.888900	-11.622000	20.963499	0.000442	20.787600
28.006161	-2.990400	3.886300	-11.620000	20.996660	0.000442	20.796110
29.005754	-2.993100	3.886600	-11.631000	20.994413	0.000443	20.782483
30.005886	-3.010400	3.884500	-11.692000	20.997060	0.000441	20.808838
31.006086	-3.005100	3.885100	-11.674000	21.010956	0.000442	20.798081
32.006349	-2.987900	3.884300	-11.605000	21.033539	0.000442	20.806443
33.006313	-3.002300	3.883400	-11.657000	21.014601	0.000440	20.797459
34.007816	-3.007800	3.884600	-11.683000	21.052205	0.000440	20.792871
35.008886	-3.021900	3.882600	-11.732000	21.047188	0.000439	20.808715
36.005512	-3.018600	3.881900	-11.717000	21.056711	0.000440	20.790266
37.008785	-2.993400	3.882500	-11.621000	21.054594	0.000440	20.771078
38.010570	-3.004400	3.882700	-11.664000	21.075507	0.000438	20.810489
39.009924	-3.015900	3.880800	-11.703000	21.067898	0.000440	20.781067
40.008662	-2.996200	3.881200	-11.628000	21.088201	0.000441	20.805168
41.011325	-2.999000	3.881300	-11.639000	21.090252	0.000439	20.777821
42.008621	-3.004200	3.881500	-11.660000	21.102324	0.000439	20.795113
43.009359	-3.020100	3.878800	-11.713000	21.107212	0.000437	20.774397
44.010999	-3.001100	3.879700	-11.642000	21.131664	0.000438	20.805969
45.010125	-3.004600	3.879300	-11.655000	21.111478	0.000439	20.791941
46.008874	-3.025200	3.879000	-11.733000	21.111780	0.000438	20.793666
47.010309	-2.984900	3.879200	-11.577000	21.144340	0.000439	20.792095
48.010156	-2.989200	3.880400	-11.598000	21.151948	0.000438	20.786904
49.008562	-2.992900	3.878800	-11.608000	21.153346	0.000438	20.779293
50.009652	-2.956100	3.879100	-11.466000	21.146193	0.000438	20.773086
51.010154	-3.024200	3.876300	-11.721000	21.184581	0.000437	20.786356
52.009421	-3.025100	3.877000	-11.727000	21.175206	0.000437	20.789780
53.012221	-2.992800	3.878200	-11.606000	21.192245	0.000438	20.795446
54.012146	-2.982700	3.878900	-11.568000	21.189327	0.000438	20.783044
55.012505	-2.989400	3.876600	-11.587000	21.195390	0.000437	20.778678
56.013631	-2.971500	3.876200	-11.517000	21.194221	0.000435	20.779879
57.014865	-2.989100	3.875300	-11.583000	21.208065	0.000437	20.788038
58.012518	-2.989100	3.876600	-11.587000	21.218721	0.000438	20.780679
59.014519	-3.003700	3.875700	-11.640000	21.217354	0.000437	20.777890
60.014295	-2.994200	3.876500	-11.605000	21.218376	0.000435	20.774171
61.014391	-2.995900	3.875200	-11.608000	21.253450	0.000439	20.768955
62.016800	-3.001000	3.874200	-11.625000	21.245860	0.000437	20.758517
63.014904	-2.994100	3.875400	-11.603000	21.254374	0.000437	20.791216
64.015599	-2.998200	3.874900	-11.617000	21.265552	0.000437	20.764940
65.017528	-3.004100	3.873700	-11.635000	21.292697	0.000437	20.761750
66.017213	-3.007900	3.874300	-11.652000	21.262333	0.000438	20.761245
67.017075	-2.990500	3.875800	-11.589000	21.302952	0.000437	20.765845
68.018752	-3.004300	3.874400	-11.638000	21.306743	0.000439	20.755414
69.016527	-3.013700	3.873100	-11.672000	21.299886	0.000437	20.763253
70.019506	-3.011100	3.872800	-11.661000	21.318598	0.000436	20.775809
71.017993	-3.020300	3.872400	-11.695000	21.322537	0.000437	20.774060
72.017068	-2.980000	3.874300	-11.545000	21.327382	0.000438	20.774165
73.016864	-2.976100	3.873600	-11.528000	21.344222	0.000437	20.736958
74.019154	-3.005700	3.873100	-11.640000	21.338510	0.000436	20.761117
75.016215	-2.993700	3.872300	-11.592000	21.359184	0.000439	20.745290
76.016701	-2.988300	3.873400	-11.574000	21.371211	0.000438	20.735986
77.017805	-3.003400	3.872200	-11.628000	21.376553	0.000437	20.752237
78.017551	-3.017300	3.872600	-11.683000	21.385582	0.000439	20.740881
79.019406	-3.016200	3.871000	-11.675000	21.389700	0.000440	20.771555
80.022643	-3.010700	3.872000	-11.657000	21.389872	0.000440	20.760821
81.020129	-2.998000	3.871100	-11.605000	21.403240	0.000440	20.748591
82.018506	-2.995200	3.871100	-11.594000	21.401917	0.000440	20.756277
83.021931	-2.974800	3.871800	-11.516000	21.404686	0.000441	20.764738
84.018534	-2.986300	3.870700	-11.558000	21.438339	0.000440	20.763796
85.019045	-2.987200	3.870700	-11.561000	21.421624	0.000442	20.770305
86.021065	-3.021700	3.868300	-11.687000	21.431200	0.000442	20.745746
87.019071	-2.984900	3.871400	-11.555000	21.443361	0.000439	20.756017
88.018182	-2.996100	3.870100	-11.594000	21.445164	0.000440	20.766831
89.021763	-3.008200	3.870300	-11.641000	21.450876	0.000440	20.761640
90.018389	-2.999900	3.871000	-11.611000	21.473523	0.000440	20.753481
91.018767	-2.998600	3.869600	-11.603000	21.474440	0.000439	20.758191
92.021769	-2.971700	3.870600	-11.501000	21.484564	0.000439	20.741768
93.019311	-2.983200	3.870700	-11.545000	21.501648	0.000440	20.745111
94.020623	-3.008300	3.870700	-11.643000	21.513592	0.000441	20.736675
95.021391	-3.007000	3.869200	-11.634000	21.522848	0.000441	20.760162
96.019417	-2.968200	3.870300	-11.487000	21.521697	0.000440	20.753320
97.018661	-2.998100	3.869700	-11.601000	21.538756	0.000441	20.746682
98.022666	-3.001300	3.867900	-11.608000	21.540128	0.000440	20.766073
99.020234	-2.970600	3.869200	-11.493000	21.557408	0.000442	20.752544
100.019817	-3.014500	3.867800	-11.659000	21.559907	0.000443	20.738448
101.021972	-3.015700	3.868500	-11.665000	21.559999	0.000442	20.749921
102.020573	-2.981900	3.869600	-11.538000	21.583838	0.000444	20.744378
103.020451	-2.998000	3.868100	-11.595000	21.595567	0.000442	20.721501
104.022860	-3.012300	3.867200	-11.648000	21.581223	0.000441	20.754090
105.021497	-2.993700	3.868200	-11.579000	21.580202	0.000442	20.743110
106.022849	-3.005500	3.867400	-11.621000	21.612545	0.000445	20.735646
107.026715	-3.001500	3.866500	-11.604000	21.619873	0.000444	20.742032
108.024555	-3.015400	3.867000	-11.659000	21.606564	0.000442	20.745783
109.028966	-3.022100	3.866500	-11.684000	21.630876	0.000443	20.735973
110.027696	-3.010800	3.867200	-11.642000	21.635688	0.000445	20.731779
111.025705	-3.014300	3.866200	-11.653000	21.637780	0.000442	20.738614
112.029053	-2.985900	3.866300	-11.544000	21.667685	0.000444	20.727290
113.030122	-2.974900	3.867100	-11.503000	21.639663	0.000443	20.744293
114.025773	-2.987000	3.866000	-11.546000	21.668060	0.000444	20.734304
115.025892	-2.992700	3.865400	-11.567000	21.660585	0.000447	20.737254
116.030293	-3.003800	3.864900	-11.609000	21.671783	0.000446	20.731866
117.026477	-2.989700	3.865700	-11.557000	21.675992	0.000444	20.750777
118.024493	-2.981100	3.866100	-11.524000	21.699054	0.000444	20.727862
119.029575	-3.001200	3.866400	-11.603000	21.676792	0.000444	20.725498
120.024796	-2.983600	3.865000	-11.530000	21.663618	0.000446	20.739815
121.027066	-2.996400	3.865400	-11.582000	21.684969	0.000443	20.735105
122.026793	-3.003600	3.865700	-11.610000	21.711975	0.000446	20.739372
123.026186	-2.997600	3.863400	-11.580000	21.736587	0.000446	20.733657
124.027393	-2.997400	3.864900	-11.583000	21.711052	0.000446	20.724223
125.031510	-2.972500	3.865700	-11.490000	21.736169	0.000446	20.724229
126.025586	-3.003200	3.865800	-11.609000	21.759604	0.000449	20.712596
127.027464	-3.013200	3.863700	-11.642000	21.751427	0.000447	20.740924
128.031151	-2.996400	3.863100	-11.574000	21.767283	0.000447	20.742094
129.029242	-2.989300	3.864500	-11.550000	21.783285	0.000449	20.714961
130.030459	-3.007700	3.863600	-11.620000	21.776056	0.000447	20.710096
131.031248	-2.977600	3.864600	-11.506000	21.787998	0.000448	20.742913
132.028179	-3.004500	3.862700	-11.605000	21.803884	0.000447	20.730363
133.034788	-3.013000	3.862100	-11.636000	21.805970	0.000449	20.713957
134.035150	-2.995300	3.862400	-11.568000	21.828487	0.000449	20.733651
135.030577	-2.993400	3.863400	-11.563000	21.798765	0.000448	20.720971
136.033129	-3.001400	3.861500	-11.588000	21.813426	0.000449	20.719524
137.038013	-2.989900	3.862500	-11.547000	21.816293	0.000449	20.710065
138.030886	-3.004400	3.861700	-11.601000	21.812799	0.000449	20.720792
139.033924	-3.016900	3.861000	-11.648000	21.849497	0.000447	20.735239
140.036351	-3.006400	3.861600	-11.609000	21.854375	0.000453	20.727320
141.030789	-2.995900	3.861500	-11.568000	21.851853	0.000452	20.712940
142.032384	-3.007800	3.861300	-11.613000	21.874394	0.000452	20.709898
143.037348	-3.010400	3.861400	-11.623000	21.880177	0.000450	20.726119
144.029665	-2.992700	3.861600	-11.555000	21.857857	0.000452	20.727960
145.033793	-3.012400	3.861400	-11.630000	21.893262	0.000452	20.711714
146.038180	-2.999000	3.861100	-11.578000	21.878374	0.000452	20.706769
147.032134	-2.990500	3.860200	-11.543000	21.883874	0.000453	20.722706
148.035013	-3.001800	3.860700	-11.588000	21.905295	0.000452	20.712379
149.034090	-3.016100	3.860900	-11.644000	21.919426	0.000452	20.710402
150.032278	-2.980200	3.860800	-11.504000	21.909398	0.000452	20.701312
151.034936	-3.004000	3.859400	-11.593000	21.920342	0.000452	20.722225
152.035772	-3.003600	3.859300	-11.591000	21.953936	0.000454	20.709385
153.039660	-2.994400	3.860100	-11.558000	21.945989	0.000453	20.702377
154.034776	-2.993000	3.859700	-11.550000	21.974526	0.000455	20.691587
155.035688	-2.997700	3.860300	-11.572000	21.936059	0.000454	20.735588
156.033499	-3.007600	3.857600	-11.601000	21.970010	0.000453	20.721209
157.034228	-3.016400	3.860300	-11.643000	21.968288	0.000455	20.712846
158.033726	-2.991600	3.859000	-11.544000	21.983340	0.000454	20.717483
159.033892	-3.015500	3.857300	-11.631000	21.971615	0.000458	20.703374
160.033842	-2.997500	3.858800	-11.565000	21.995354	0.000456	20.702955
161.035771	-3.010300	3.859000	-11.616000	21.991103	0.000455	20.713873
162.033877	-2.999000	3.857900	-11.569000	22.007650	0.000459	20.712894
163.037389	-3.018600	3.857900	-11.644000	22.005952	0.000456	20.719729
164.038553	-3.007000	3.856700	-11.596000	22.023871	0.000458	20.713959
165.033426	-3.014000	3.857200	-11.625000	22.024117	0.000457	20.693815
166.033345	-3.007300	3.857100	-11.598000	22.049589	0.000458	20.712203
167.038187	-2.995800	3.857700	-11.556000	22.057290	0.000457	20.721810
168.034661	-3.008500	3.858100	-11.606000	22.046470	0.000457	20.703865
169.036761	-2.974300	3.858400	-11.475000	22.051821	0.000456	20.700687
170.037607	-2.986100	3.858200	-11.520000	22.085898	0.000456	20.695921
171.037568	-3.003500	3.857300	-11.584000	22.094269	0.000457	20.700508
172.037105	-3.037600	3.855400	-11.710000	22.074494	0.000459	20.716748
173.041625	-3.002900	3.854600	-11.574000	22.104079	0.000460	20.703692
174.036444	-3.004800	3.854400	-11.580000	22.103458	0.000460	20.708286
175.036538	-3.005100	3.856600	-11.589000	22.127711	0.000459	20.708859
176.041847	-3.011900	3.855100	-11.610000	22.130472	0.000460	20.695027
177.037024	-3.009000	3.856000	-11.602000	22.131223	0.000459	20.716643
178.038820	-3.010200	3.855600	-11.604000	22.140934	0.000459	20.713563
179.039472	-3.023500	3.855900	-11.656000	22.148672	0.000460	20.704240
180.039633	-3.001100	3.853700	-11.565000	22.135829	0.000461	20.732635
181.043935	-2.996900	3.853900	-11.548000	22.154546	0.000461	20.705379
182.044058	-3.005300	3.855100	-11.585000	22.174332	0.000460	20.693419
183.039724	-2.986400	3.855300	-11.512000	22.184203	0.000462	20.700932
184.044317	-3.022000	3.854800	-11.648000	22.187346	0.000462	20.699338
185.045262	-3.016200	3.853700	-11.623000	22.215564	0.000463	20.718582
186.041253	-3.006100	3.854100	-11.585000	22.204524	0.000461	20.711322
187.042299	-3.006100	3.853600	-11.584000	22.191910	0.000465	20.696794
188.046390	-3.022500	3.853800	-11.646000	22.212845	0.000463	20.697367
189.044608	-2.998800	3.852600	-11.552000	22.214592	0.000463	20.698168
190.042080	-3.011300	3.853000	-11.602000	22.221646	0.000464	20.691480
191.046873	-3.015600	3.850800	-11.612000	22.245872	0.000461	20.676853
192.043473	-2.985600	3.853200	-11.503000	22.237772	0.000465	20.703833
193.045152	-2.998200	3.852100	-11.549000	22.239740	0.000465	20.699165
194.046520	-2.990200	3.853000	-11.519000	22.236899	0.000465	20.699165
195.043849	-3.000700	3.852600	-11.560000	22.246198	0.000465	20.712744
196.044274	-2.990300	3.851900	-11.517000	22.243455	0.000465	20.681072
197.052526	-3.003300	3.851400	-11.566000	22.248246	0.000467	20.683024
198.043885	-3.017300	3.850400	-11.616000	22.272268	0.000466	20.699492
199.045157	-2.995300	3.852300	-11.538000	22.297912	0.000469	20.718059
200.049881	-2.998100	3.850900	-11.544000	22.292581	0.000470	20.693278
201.045240	-3.004800	3.850200	-11.568000	22.303872	0.000468	20.708378
202.044329	-3.016000	3.851200	-11.614000	22.314787	0.000469	20.688961
203.049242	-3.003700	3.850300	-11.564000	22.303847	0.000467	20.719734
204.046042	-2.988600	3.851200	-11.508000	22.327597	0.000469	20.702263
205.048478	-2.980700	3.850400	-11.476000	22.307113	0.000471	20.727339
206.048254	-3.005400	3.848500	-11.565000	22.308576	0.000469	20.710244
207.045812	-2.987800	3.849800	-11.502000	22.323876	0.000468	20.715134
208.047666	-2.999500	3.849100	-11.545000	22.331207	0.000470	20.702084
209.048393	-2.998800	3.848700	-11.541000	22.357625	0.000470	20.705305
210.045784	-2.999700	3.850600	-11.550000	22.354711	0.000473	20.700015
211.046482	-3.006800	3.848200	-11.569000	22.376461	0.000472	20.692871
212.047941	-3.005800	3.847600	-11.564000	22.399435	0.000472	20.715404
213.046415	-3.046100	3.846700	-11.717000	22.409802	0.000471	20.707294
214.052593	-2.994300	3.849000	-11.524000	22.415551	0.000471	20.693610
215.054308	-2.991700	3.848600	-11.513000	22.416154	0.000472	20.704646
216.054773	-2.999100	3.848300	-11.541000	22.399256	0.000474	20.683929
217.054911	-2.988500	3.847600	-11.497000	22.436563	0.000475	20.689047
218.053581	-3.012200	3.847900	-11.590000	22.421577	0.000473	20.697748
219.050238	-2.999400	3.847500	-11.539000	22.458902	0.000474	20.710945
220.053971	-2.993000	3.847600	-11.515000	22.445319	0.000475	20.707300
221.055562	-2.998300	3.846700	-11.532000	22.472306	0.000475	20.713464
222.053990	-2.981500	3.847600	-11.471000	22.473474	0.000477	20.703253
223.056972	-3.007500	3.846100	-11.566000	22.479353	0.000475	20.696812
224.058344	-3.013600	3.845500	-11.588000	22.448522	0.000475	20.688221
225.057074	-3.019500	3.845200	-11.610000	22.460457	0.000476	20.703019
226.055316	-3.005000	3.845800	-11.555000	22.483460	0.000478	20.706141
227.058580	-2.985100	3.846500	-11.481000	22.487623	0.000479	20.691017
228.057659	-2.987500	3.846000	-11.490000	22.500104	0.000479	20.704319
229.058419	-3.001100	3.845600	-11.540000	22.511012	0.000476	20.712398
230.058512	-2.986700	3.844700	-11.481000	22.496311	0.000478	20.684870
231.056157	-2.999200	3.844200	-11.528000	22.528007	0.000477	20.720410
232.058041	-2.986700	3.844200	-11.480000	22.505282	0.000479	20.703339
233.062108	-3.009100	3.843500	-11.565000	22.515617	0.000480	20.714640
234.057132	-2.993500	3.842500	-11.502000	22.520253	0.000478	20.709799
235.062238	-3.002000	3.844200	-11.540000	22.516613	0.000479	20.707576
236.060931	-3.008100	3.844000	-11.562000	22.514043	0.000479	20.695518
237.059181	-3.005800	3.843000	-11.550000	22.487432	0.000480	20.714861
238.059237	-3.006700	3.844200	-11.558000	22.510944	0.000481	20.704269
239.060871	-2.978300	3.843300	-11.445000	22.520524	0.000482	20.692999
240.058751	-3.012200	3.843400	-11.576000	22.535969	0.000480	20.712262
241.061742	-3.010200	3.842000	-11.564000	22.562278	0.000481	20.716801
242.063167	-3.002500	3.841700	-11.534000	22.590603	0.000482	20.716247
243.061017	-2.984100	3.843500	-11.468000	22.578435	0.000481	20.719707
244.062634	-3.005000	3.841600	-11.543000	22.562555	0.000482	20.704275
245.066883	-3.025900	3.841000	-11.622000	22.567510	0.000481	20.707816
246.068944	-2.974800	3.841700	-11.427000	22.597648	0.000484	20.718088
247.064640	-2.993200	3.841100	-11.495000	22.604848	0.000481	20.722454
248.066863	-2.998300	3.840700	-11.514000	22.608063	0.000483	20.710975
249.063944	-2.984600	3.841200	-11.464000	22.616609	0.000483	20.732812
250.064233	-2.998000	3.841400	-11.516000	22.618650	0.000485	20.720157
251.065758	-2.987800	3.840100	-11.473000	22.603348	0.000485	20.719529
252.065149	-2.996900	3.841400	-11.511000	22.629366	0.000484	20.700069
253.068629	-3.002000	3.841300	-11.531000	22.638883	0.000483	20.727146
254.068123	-2.982400	3.841000	-11.455000	22.650337	0.000486	20.733877
255.066192	-3.023600	3.840200	-11.610000	22.660179	0.000487	20.719079
256.068065	-2.994300	3.840700	-11.499000	22.662676	0.000485	20.734856
257.067243	-3.009100	3.839400	-11.552000	22.665337	0.000487	20.728988
258.066453	-2.996300	3.840500	-11.507000	22.663136	0.000488	20.725834
259.069354	-2.988800	3.839300	-11.474000	22.673631	0.000487	20.711689
260.074601	-2.990800	3.837700	-11.478000	22.677657	0.000488	20.717145
261.070659	-3.005800	3.838200	-11.535000	22.696623	0.000487	20.732350
262.072350	-2.990800	3.838600	-11.480000	22.723279	0.000490	20.708314
263.074486	-3.001600	3.838300	-11.520000	22.732647	0.000489	20.707741
264.067615	-2.980900	3.838600	-11.442000	22.751975	0.000489	20.736112
265.070537	-3.022500	3.836400	-11.595000	22.714586	0.000489	20.720945
266.073583	-2.999200	3.837900	-11.510000	22.731123	0.000490	20.734191
267.068136	-3.004200	3.837000	-11.526000	22.752399	0.000491	20.725631
268.070736	-2.997600	3.837800	-11.503000	22.772678	0.000490	20.718444
269.072590	-3.006600	3.836500	-11.534000	22.775844	0.000489	20.716874
270.069478	-3.002000	3.836500	-11.516000	22.796892	0.000491	20.733218
271.071486	-3.006400	3.835300	-11.530000	22.782871	0.000492	20.731026
272.072402	-3.022600	3.836200	-11.594000	22.775820	0.000489	20.709263
273.072258	-3.025800	3.835900	-11.606000	22.792134	0.000491	20.714700
274.072117	-2.999100	3.835100	-11.501000	22.788772	0.000492	20.732196
275.074487	-2.996800	3.835800	-11.494000	22.810071	0.000492	20.725083
276.072828	-2.997200	3.835300	-11.494000	22.806783	0.000494	20.733643
277.074437	-2.989400	3.835900	-11.465000	22.828561	0.000493	20.745029
278.077003	-2.984200	3.835900	-11.446000	22.804766	0.000491	20.733994
279.071032	-3.007900	3.834200	-11.533000	22.823951	0.000493	20.726185
280.073211	-2.989300	3.835200	-11.464000	22.807084	0.000492	20.729677
281.080592	-3.019300	3.833000	-11.570000	22.823773	0.000492	20.737861
282.072956	-2.996200	3.833600	-11.486000	22.802277	0.000493	20.732923
283.073821	-3.007400	3.832700	-11.526000	22.839521	0.000493	20.735146
284.075785	-2.997100	3.833200	-11.488000	22.826121	0.000493	20.735472
285.074849	-3.003400	3.832700	-11.510000	22.846221	0.000494	20.731900
286.074720	-2.994700	3.834400	-11.482000	22.867649	0.000495	20.731556
287.077696	-3.010600	3.832800	-11.538000	22.857691	0.000495	20.733908
288.073444	-3.018400	3.832300	-11.567000	22.872548	0.000496	20.730299
289.075975	-2.990800	3.832300	-11.461000	22.877582	0.000496	20.734868
290.077358	-2.992800	3.831500	-11.466000	22.870230	0.000497	20.749315
291.077049	-2.960400	3.832300	-11.344000	22.887791	0.000495	20.739407
292.075445	-2.984000	3.832100	-11.434000	22.886052	0.000498	20.736716
293.077471	-2.995800	3.831300	-11.477000	22.890754	0.000498	20.737633
294.075692	-3.006100	3.831000	-11.515000	22.888713	0.000497	20.730373
295.077490	-3.006000	3.831600	-11.517000	22.900275	0.000498	20.737215
296.076938	-3.020500	3.830700	-11.570000	22.904307	0.000497	20.722287
297.075502	-3.008100	3.829800	-11.518000	22.911357	0.000499	20.748318
298.076887	-3.024500	3.829300	-11.581000	22.904553	0.000500	20.754303
299.082537	-2.986000	3.831100	-11.439000	22.918733	0.000498	20.741957
300.078316	-3.003800	3.830000	-11.504000	22.939974	0.000500	20.765610
301.079288	-2.988600	3.829100	-11.442000	22.940878	0.000500	20.749919
302.081308	-3.004300	3.829300	-11.504000	22.915672	0.000503	20.736045
303.083173	-3.011400	3.829300	-11.530000	22.958431	0.000500	20.766558
304.080890	-2.994900	3.828700	-11.466000	22.940374	0.000499	20.754156
305.083328	-3.010000	3.828200	-11.522000	22.949495	0.000503	20.764243
306.079397	-3.019600	3.827900	-11.558000	22.952199	0.000501	20.750830
307.080430	-2.996500	3.828700	-11.471000	22.966870	0.000502	20.755098
308.082790	-2.975600	3.828400	-11.391000	22.967202	0.000502	20.736463
309.080288	-3.003400	3.828200	-11.497000	22.972549	0.000503	20.763633
310.082477	-2.989800	3.827700	-11.443000	22.973096	0.000500	20.749481
311.082927	-3.010900	3.826600	-11.521000	23.004004	0.000502	20.746310
312.081576	-2.986300	3.827300	-11.429000	22.997533	0.000503	20.741722
313.083642	-3.001100	3.826700	-11.483000	23.015565	0.000504	20.780179
314.082557	-3.007700	3.827600	-11.511000	23.030308	0.000505	20.767451
315.082048	-3.006900	3.826600	-11.506000	23.061418	0.000504	20.759741
316.083409	-2.969700	3.826800	-11.363000	23.060342	0.000505	20.745860
317.084179	-2.997700	3.826200	-11.469000	23.077255	0.000505	20.758540
318.083466	-3.005900	3.824800	-11.496000	23.103410	0.000506	20.752031
319.087223	-3.012000	3.827200	-11.527000	23.091777	0.000505	20.762186
320.086941	-2.986600	3.826300	-11.426000	23.086418	0.000504	20.758712
321.084665	-3.022500	3.825100	-11.561000	23.078152	0.000506	20.755646
322.084793	-3.027800	3.825000	-11.580000	23.091943	0.000506	20.765671
323.086896	-2.996300	3.824700	-11.459000	23.111319	0.000506	20.759008
324.085793	-2.992300	3.825200	-11.446000	23.081612	0.000506	20.770967
325.086241	-2.999100	3.824800	-11.470000	23.109660	0.000506	20.767777
326.092271	-3.003300	3.823400	-11.482000	23.137737	0.000507	20.756083
327.085469	-3.003500	3.824000	-11.485000	23.154108	0.000509	20.754944
328.088388	-3.013000	3.823000	-11.517000	23.154532	0.000509	20.763904
329.088587	-2.982800	3.823800	-11.405000	23.160130	0.000509	20.759082
330.087188	-2.997900	3.822300	-11.458000	23.143397	0.000508	20.758435
331.089102	-2.998000	3.823000	-11.460000	23.134481	0.000510	20.765147
332.089905	-3.011100	3.823600	-11.512000	23.133338	0.000509	20.782969
333.088179	-2.994400	3.823300	-11.447000	23.124316	0.000509	20.786257
334.089278	-3.020100	3.820700	-11.538000	23.157218	0.000510	20.767543
335.090354	-3.018300	3.820900	-11.532000	23.162773	0.000511	20.760781
336.088686	-3.010700	3.821400	-11.503000	23.181669	0.000512	20.774027
337.091151	-3.001400	3.822200	-11.471000	23.216412	0.000512	20.770437
338.092775	-3.004900	3.821200	-11.481000	23.211557	0.000513	20.764624
339.092313	-2.998000	3.821100	-11.455000	23.239399	0.000512	20.767869
340.090528	-3.014200	3.820200	-11.514000	23.217561	0.000511	20.773485
341.095434	-3.007500	3.820300	-11.488000	23.205105	0.000512	20.765271
342.088755	-3.006000	3.820600	-11.484000	23.167154	0.000511	20.780345
343.092311	-2.999400	3.820800	-11.459000	23.144534	0.000513	20.751988
344.093774	-3.003500	3.819800	-11.472000	23.176568	0.000512	20.772709
345.089787	-2.988900	3.820700	-11.418000	23.189817	0.000511	20.767019
346.094003	-2.986700	3.820900	-11.411000	23.206328	0.000513	20.755116
347.094589	-3.005700	3.818200	-11.476000	23.202414	0.000513	20.769686
348.092305	-3.014900	3.818100	-11.509000	23.194745	0.000513	20.777174
349.092564	-3.006900	3.818600	-11.481000	23.211834	0.000512	20.764901
350.095160	-2.988000	3.819500	-11.412000	23.198032	0.000516	20.788529
351.092719	-2.990000	3.817500	-11.413000	23.209394	0.000514	20.803708
352.094853	-2.993800	3.817800	-11.429000	23.227503	0.000513	20.762112
353.098719	-3.020600	3.816500	-11.527000	23.252303	0.000516	20.782224
354.095524	-3.001000	3.818500	-11.458000	23.231810	0.000514	20.791559
355.100071	-3.000800	3.816500	-11.451000	23.249298	0.000513	20.784902
356.096950	-3.005300	3.815900	-11.468000	23.287916	0.000518	20.788991
357.095761	-2.998300	3.816500	-11.442000	23.300248	0.000515	20.790445
358.098482	-2.995500	3.816900	-11.432000	23.302312	0.000516	20.783979
359.099582	-3.006400	3.816700	-11.474000	23.302687	0.000515	20.786725
360.101993	-2.987200	3.815600	-11.397000	23.294798	0.000516	20.783086
361.100576	-3.001300	3.815400	-11.449000	23.293637	0.000517	20.787138
362.102946	-3.011700	3.815200	-11.488000	23.312659	0.000515	20.796720
363.116676	-3.014300	3.815000	-11.498000	23.319934	0.000514	20.804959
364.100141	-2.998500	3.815100	-11.439000	23.322226	0.000516	20.786867
365.100939	-2.997800	3.813400	-11.430000	23.313962	0.000516	20.789016
366.099716	-3.006800	3.813600	-11.465000	23.328567	0.000516	20.804602
367.100930	-3.010200	3.814300	-11.481000	23.377240	0.000516	20.799331
368.104610	-3.005400	3.813200	-11.459000	23.368675	0.000516	20.797385
369.101614	-2.995900	3.814400	-11.427000	23.322638	0.000518	20.800556
370.101725	-3.019200	3.813800	-11.514000	23.333329	0.000519	20.797047
371.105652	-3.017900	3.812800	-11.506000	23.344315	0.000519	20.797626
372.101661	-3.019800	3.812600	-11.512000	23.352228	0.000518	20.793703
373.103121	-3.003000	3.813300	-11.451000	23.377824	0.000520	20.799916
374.104877	-3.003300	3.811400	-11.446000	23.399235	0.000517	20.797669
375.103632	-3.002500	3.811100	-11.442000	23.391150	0.000520	20.797151
376.105485	-2.994500	3.811600	-11.413000	23.401705	0.000519	20.787342
377.109485	-2.991700	3.812800	-11.405000	23.363816	0.000518	20.808636
378.104538	-2.993400	3.812100	-11.409000	23.400439	0.000518	20.796979
379.105841	-2.998100	3.811000	-11.424000	23.448673	0.000521	20.801228
380.107459	-2.995800	3.810500	-11.414000	23.437713	0.000520	20.791191
381.106233	-3.006600	3.809000	-11.451000	23.421537	0.000521	20.791573
382.106937	-2.994900	3.809900	-11.409000	23.417255	0.000520	20.816204
383.108046	-3.010100	3.810500	-11.469000	23.416806	0.000521	20.794892
384.105021	-3.006900	3.808800	-11.452000	23.408568	0.000519	20.786634
385.110099	-3.007900	3.808400	-11.455000	23.417058	0.000521	20.806998
386.110250	-2.999200	3.809400	-11.424000	23.433966	0.000521	20.822522
387.106052	-3.014700	3.808100	-11.479000	23.447911	0.000523	20.818008
388.110900	-2.978400	3.809000	-11.343000	23.463368	0.000522	20.808371
389.109456	-3.003200	3.807500	-11.433000	23.444926	0.000522	20.799843
390.106815	-2.990100	3.808300	-11.386000	23.468080	0.000522	20.823052
391.110153	-2.997800	3.808100	-11.414000	23.462134	0.000522	20.809505
392.111043	-3.010500	3.806500	-11.459000	23.463528	0.000522	20.804264
393.106383	-2.988300	3.807400	-11.377000	23.478795	0.000523	20.820515
394.112712	-2.999400	3.807500	-11.419000	23.487579	0.000524	20.818889
395.111629	-2.981200	3.806600	-11.348000	23.497839	0.000524	20.808784
396.107161	-2.986200	3.806300	-11.365000	23.484293	0.000524	20.812750
397.110500	-3.006000	3.805400	-11.438000	23.471865	0.000523	20.811672
398.110952	-2.999300	3.805000	-11.411000	23.467687	0.000524	20.815546
399.107279	-2.984100	3.806100	-11.357000	23.494871	0.000524	20.831414
400.112028	-3.001000	3.804400	-11.416000	23.527657	0.000525	20.838200
401.111448	-2.990500	3.805600	-11.379000	23.555264	0.000525	20.823199
402.107995	-3.017300	3.804100	-11.476000	23.540502	0.000524	20.814092
403.111505	-3.005300	3.804800	-11.434000	23.547296	0.000527	20.832282
404.110686	-3.001300	3.804100	-11.416000	23.541424	0.000526	20.825447
405.109354	-3.018700	3.804100	-11.483000	23.525237	0.000526	20.831980
406.111679	-3.011600	3.803900	-11.455000	23.553396	0.000525	20.825121
407.113292	-3.011900	3.803300	-11.454000	23.565866	0.000528	20.832405
408.107866	-3.002500	3.804400	-11.422000	23.573698	0.000527	20.846419
409.112801	-3.012200	3.803400	-11.456000	23.591475	0.000526	20.826309
410.111837	-3.022800	3.802000	-11.492000	23.555226	0.000526	20.835490
411.109663	-3.010100	3.803800	-11.450000	23.556271	0.000528	20.822786
412.112532	-3.001500	3.802900	-11.414000	23.575639	0.000528	20.816124
413.113911	-3.002800	3.801700	-11.415000	23.606033	0.000526	20.828100
414.109530	-2.988600	3.803600	-11.367000	23.624202	0.000528	20.818340
415.113599	-2.980200	3.802300	-11.331000	23.637046	0.000528	20.833113
416.113029	-2.974400	3.802500	-11.309000	23.658477	0.000527	20.829941
417.111431	-2.980600	3.801000	-11.329000	23.675055	0.000528	20.820957
418.114922	-2.999700	3.801400	-11.402000	23.680447	0.000528	20.829208
419.114317	-2.986400	3.801900	-11.353000	23.713977	0.000527	20.839590
420.109845	-3.006700	3.799600	-11.424000	23.672708	0.000527	20.829984
421.115146	-2.993600	3.801000	-11.378000	23.664889	0.000525	20.855809
422.115210	-2.998100	3.800400	-11.393000	23.647758	0.000526	20.848593
423.109649	-2.998300	3.800200	-11.394000	23.627291	0.000528	20.850360
424.115493	-3.005100	3.800000	-11.419000	23.636081	0.000527	20.847318
425.115618	-3.010500	3.798400	-11.434000	23.679071	0.000529	20.835889
426.112780	-3.021900	3.799300	-11.480000	23.708486	0.000527	20.851628
427.114110	-3.026300	3.799300	-11.497000	23.703732	0.000529	20.855396
428.112885	-3.005900	3.798500	-11.418000	23.714781	0.000528	20.847509
429.112541	-3.002800	3.798500	-11.405000	23.680656	0.000529	20.862133
430.114816	-2.990100	3.797900	-11.355000	23.689808	0.000530	20.865618
431.112850	-3.003200	3.796600	-11.401000	23.707141	0.000529	20.849805
432.114089	-2.977500	3.797700	-11.307000	23.731702	0.000530	20.854042
433.114744	-2.978600	3.798400	-11.313000	23.724185	0.000529	20.854091
434.112252	-2.997400	3.796000	-11.378000	23.727870	0.000532	20.847354
435.113732	-3.004400	3.796900	-11.407000	23.747106	0.000530	20.836769
436.114996	-3.011600	3.795200	-11.427000	23.730578	0.000528	20.866664
437.116768	-2.990500	3.795500	-11.349000	23.692743	0.000531	20.845803
438.122538	-3.007700	3.796000	-11.416000	23.737119	0.000531	20.858050
439.115803	-3.008600	3.796200	-11.420000	23.762909	0.000528	20.846449
440.118600	-3.021700	3.794900	-11.465000	23.751159	0.000530	20.853635
441.113558	-2.985300	3.793900	-11.325000	23.731855	0.000530	20.846135
442.116104	-2.988300	3.795200	-11.340000	23.764745	0.000531	20.846868
443.112948	-2.980300	3.795500	-11.311000	23.753438	0.000529	20.838376
444.113934	-3.005900	3.793400	-11.402000	23.773104	0.000530	20.835809
445.116440	-3.012900	3.793600	-11.429000	23.771513	0.000528	20.837059
446.116623	-2.991200	3.792900	-11.343000	23.731260	0.000532	20.863554
447.116702	-3.001200	3.794900	-11.388000	23.738679	0.000531	20.844916
448.117598	-2.986700	3.792900	-11.327000	23.743531	0.000531	20.839823
449.121089	-2.997700	3.794400	-11.373000	23.760630	0.000534	20.841794
450.119497	-3.003300	3.792400	-11.389000	23.767871	0.000532	20.843364
451.118411	-3.016700	3.790500	-11.434000	23.797860	0.000531	20.848776
452.119242	-3.010800	3.792500	-11.418000	23.779368	0.000532	20.851572
453.117008	-3.008300	3.792300	-11.407000	23.798032	0.000533	20.821449
454.119889	-2.983700	3.793200	-11.316000	23.824342	0.000534	20.836449
455.119417	-3.008300	3.791100	-11.404000	23.843804	0.000532	20.821824
456.119164	-2.987000	3.792800	-11.328000	23.862344	0.000534	20.836147
457.120145	-2.994600	3.789700	-11.347000	23.893707	0.000533	20.845310
458.119660	-3.004100	3.789900	-11.384000	23.854582	0.000534	20.835002
459.120134	-3.005100	3.789900	-11.388000	23.875837	0.000532	20.841615
460.120034	-3.020800	3.790100	-11.447000	23.906965	0.000532	20.840587
461.119767	-2.997700	3.789000	-11.357000	23.890440	0.000534	20.835870
462.118854	-2.997900	3.788400	-11.356000	23.839923	0.000534	20.842588
463.121521	-2.998000	3.789400	-11.361000	23.856295	0.000535	20.806375
464.121756	-2.980700	3.789300	-11.294000	23.883820	0.000534	20.815956
465.121584	-3.008800	3.789400	-11.400000	23.892387	0.000536	20.825969
466.124551	-3.022800	3.788100	-11.450000	23.899879	0.000536	20.821153
467.124697	-2.976200	3.787800	-11.272000	23.873994	0.000534	20.814164
468.123868	-2.992600	3.787600	-11.334000	23.888377	0.000537	20.812465
469.123472	-3.007400	3.786400	-11.386000	23.863094	0.000537	20.827890
470.124797	-2.980900	3.788800	-11.294000	23.876899	0.000534	20.840310
471.123426	-3.002300	3.785500	-11.364000	23.858752	0.000534	20.820217
472.123868	-2.993200	3.787300	-11.335000	23.880264	0.000535	20.809072
473.123878	-2.977000	3.786500	-11.272000	23.905154	0.000535	20.833081
474.125874	-2.982000	3.786000	-11.289000	23.890317	0.000536	20.808246
475.124848	-2.989900	3.786900	-11.322000	23.878692	0.000536	20.811288
476.125425	-3.002500	3.785300	-11.364000	23.877022	0.000537	20.806769
477.126772	-3.024000	3.784000	-11.442000	23.900836	0.000538	20.805044
478.127099	-2.998400	3.785900	-11.351000	23.889390	0.000534	20.787402
479.125404	-3.009900	3.784300	-11.390000	23.889341	0.000536	20.819121
480.126308	-2.994400	3.784700	-11.332000	23.935225	0.000537	20.805389
481.126342	-2.998800	3.784700	-11.348000	23.967998	0.000537	20.811227
482.125295	-2.986600	3.785100	-11.304000	23.993456	0.000537	20.818739
483.126554	-2.995800	3.783700	-11.334000	23.963098	0.000535	20.808683
484.134468	-3.008800	3.782200	-11.379000	23.935250	0.000535	20.811103
485.125763	-3.006600	3.782900	-11.373000	23.928200	0.000534	20.790284
486.126944	-2.994600	3.782700	-11.327000	23.895776	0.000534	20.801867
487.126830	-3.012700	3.782000	-11.393000	23.902789	0.000535	20.818856
488.126966	-3.000300	3.782300	-11.347000	23.918387	0.000536	20.806048
489.125523	-2.988000	3.781900	-11.299000	23.954544	0.000535	20.801054
490.128705	-2.986000	3.782500	-11.294000	23.959456	0.000534	20.810247
491.128557	-2.992200	3.782000	-11.315000	23.976625	0.000536	20.797593
492.127736	-2.986000	3.782000	-11.292000	23.964258	0.000535	20.799890
493.127649	-3.005200	3.780600	-11.361000	23.975802	0.000535	20.785862
494.127124	-3.007500	3.780200	-11.368000	23.974286	0.000537	20.809471
495.129650	-2.966500	3.782000	-11.218000	24.015770	0.000534	20.784218
496.128629	-3.021200	3.779100	-11.416000	24.016685	0.000536	20.809792
497.129833	-3.010400	3.780100	-11.379000	23.999836	0.000536	20.806171
498.128338	-3.001200	3.780400	-11.345000	24.009041	0.000534	20.813979
499.128552	-3.006300	3.780000	-11.362000	24.043807	0.000538	20.805222
500.128697	-2.992000	3.779000	-11.305000	24.069785	0.000535	20.806620
501.128183	-2.999000	3.778400	-11.330000	24.073789	0.000534	20.813006
502.129354	-2.994200	3.778100	-11.312000	24.065997	0.000534	20.815623
503.128813	-2.984900	3.778100	-11.276000	24.040123	0.000534	20.810537
504.126544	-2.988700	3.778200	-11.291000	24.026461	0.000536	20.793516
505.130168	-2.987100	3.777800	-11.284000	24.011632	0.000536	20.805672
506.129592	-2.985400	3.776600	-11.272000	24.009513	0.000535	20.804496
507.128080	-3.011600	3.777000	-11.374000	23.982563	0.000536	20.792168
508.128859	-3.002100	3.777300	-11.339000	23.959867	0.000535	20.791694
509.130236	-3.004900	3.777700	-11.351000	23.961139	0.000537	20.809090
510.130648	-3.014700	3.776500	-11.384000	23.964227	0.000535	20.781841
511.131590	-2.994600	3.776800	-11.308000	23.975802	0.000536	20.784914
512.132793	-2.998800	3.776100	-11.323000	24.014045	0.000536	20.790074
513.132806	-2.974500	3.775300	-11.229000	24.007978	0.000537	20.795370
514.133596	-2.991000	3.775400	-11.292000	24.021745	0.000538	20.795426
515.135694	-3.003200	3.774300	-11.335000	24.031176	0.000538	20.788289
516.134619	-2.987200	3.774900	-11.275000	24.038127	0.000535	20.798104
517.134597	-2.997400	3.774000	-11.311000	24.037151	0.000536	20.790961
518.134358	-3.007300	3.773400	-11.347000	24.067759	0.000535	20.793683
519.135767	-3.003800	3.774200	-11.337000	24.067010	0.000538	20.762111
520.136176	-2.997300	3.773600	-11.310000	24.065027	0.000537	20.797581
521.135753	-2.979200	3.774300	-11.244000	24.065746	0.000537	20.777438
522.137331	-2.996000	3.773800	-11.306000	24.083613	0.000535	20.799151
523.139849	-3.024800	3.772700	-11.410000	24.108498	0.000536	20.789022
524.137056	-2.996300	3.773100	-11.305000	24.107331	0.000537	20.771256
525.139735	-3.006500	3.771600	-11.338000	24.120526	0.000537	20.796818
526.138908	-3.014800	3.770200	-11.366000	24.089685	0.000536	20.782482
527.139919	-3.001000	3.772700	-11.321000	24.094941	0.000536	20.790598
528.139903	-3.006500	3.771500	-11.338000	24.073666	0.000536	20.785382
529.142648	-2.980900	3.772400	-11.244000	24.087131	0.000537	20.784188
530.142502	-2.982800	3.772900	-11.253000	24.121023	0.000537	20.779298
531.140924	-2.987800	3.771800	-11.268000	24.106374	0.000535	20.781201
532.141383	-2.988400	3.770700	-11.268000	24.074152	0.000537	20.786343
533.141493	-3.001200	3.770400	-11.315000	24.094426	0.000537	20.766847
534.139377	-2.983500	3.770900	-11.249000	24.098779	0.000538	20.781170
535.141935	-2.988000	3.771200	-11.268000	24.108068	0.000539	20.750184
536.146342	-3.003300	3.770800	-11.323000	24.140240	0.000539	20.780081
537.142428	-3.010100	3.769100	-11.345000	24.172037	0.000536	20.777359
538.145120	-2.992700	3.769000	-11.279000	24.163153	0.000538	20.787889
539.146051	-3.004100	3.769300	-11.323000	24.156590	0.000540	20.781306
540.143314	-3.000400	3.768600	-11.307000	24.153060	0.000537	20.775395
541.143937	-3.008400	3.767100	-11.333000	24.203164	0.000537	20.778707
542.145673	-3.012300	3.768000	-11.348000	24.200702	0.000537	20.778609
543.147357	-2.989600	3.768800	-11.266000	24.153999	0.000539	20.767802
544.143258	-2.998100	3.768800	-11.298000	24.165081	0.000540	20.774650
545.144142	-3.012700	3.767100	-11.349000	24.171712	0.000538	20.777981
546.144677	-3.032700	3.765200	-11.418000	24.187717	0.000538	20.755153
547.144608	-3.002200	3.767300	-11.310000	24.176003	0.000539	20.763319
548.146510	-3.007000	3.765500	-11.322000	24.155676	0.000535	20.770905
549.144778	-3.005400	3.766800	-11.320000	24.166346	0.000538	20.776866
550.146208	-2.998800	3.765500	-11.291000	24.170895	0.000537	20.785697
551.148037	-2.974300	3.766900	-11.202000	24.212053	0.000537	20.757278
552.146067	-2.994800	3.765400	-11.275000	24.218850	0.000537	20.769311
553.146522	-3.024900	3.765400	-11.389000	24.209616	0.000536	20.764316
554.149415	-2.988000	3.766200	-11.252000	24.188368	0.000536	20.767660
555.145554	-3.012900	3.764800	-11.341000	24.176298	0.000536	20.779262
556.147187	-3.022600	3.764300	-11.378000	24.198946	0.000536	20.757407
557.146874	-2.993200	3.764600	-11.267000	24.207879	0.000535	20.761151
558.149824	-2.992400	3.763500	-11.261000	24.201881	0.000536	20.766989
559.149302	-3.009600	3.763100	-11.325000	24.220440	0.000537	20.759525
560.147301	-3.022800	3.763300	-11.375000	24.240496	0.000536	20.741236
561.149761	-3.003300	3.763200	-11.302000	24.276243	0.000537	20.766663
562.148242	-3.026800	3.762100	-11.387000	24.262836	0.000535	20.755584
563.149363	-2.982200	3.762700	-11.220000	24.250693	0.000537	20.744352
564.152370	-3.000300	3.762300	-11.287000	24.220268	0.000535	20.750344
565.148170	-2.986900	3.761100	-11.233000	24.232976	0.000537	20.773523
566.149231	-3.007700	3.761300	-11.312000	24.248796	0.000535	20.750984
567.151399	-3.003600	3.760800	-11.295000	24.279773	0.000534	20.753608
568.149970	-3.017000	3.762000	-11.348000	24.288030	0.000537	20.757148
569.149076	-2.996200	3.760900	-11.268000	24.319030	0.000535	20.781134
570.154429	-3.005500	3.760700	-11.301000	24.344474	0.000536	20.744543
571.149822	-3.016000	3.758800	-11.335000	24.345819	0.000536	20.771496
572.149418	-3.019400	3.760300	-11.352000	24.348974	0.000538	20.773239
573.153782	-3.044200	3.758000	-11.439000	24.312124	0.000534	20.745281
574.152092	-3.006600	3.759400	-11.303000	24.296722	0.000536	20.746901
575.152236	-3.012500	3.758500	-11.321000	24.301252	0.000537	20.755713
576.156174	-3.002600	3.758800	-11.285000	24.282572	0.000537	20.741716
577.152534	-3.013600	3.759700	-11.328000	24.284708	0.000537	20.768516
578.153772	-3.001100	3.757800	-11.277000	24.321903	0.000535	20.756040
579.158837	-3.011000	3.756900	-11.311000	24.314334	0.000536	20.752240
580.155708	-2.974300	3.757500	-11.175000	24.337249	0.000537	20.742984
581.154944	-2.971600	3.758900	-11.169000	24.349213	0.000535	20.777272
582.158811	-2.990500	3.757500	-11.236000	24.323615	0.000534	20.754439
583.156679	-2.990700	3.755600	-11.231000	24.315500	0.000532	20.749142
584.163092	-2.976900	3.758100	-11.186000	24.293683	0.000536	20.750491
585.159069	-3.012400	3.757100	-11.317000	24.266697	0.000533	20.749026
586.157212	-3.006000	3.756400	-11.290000	24.277538	0.000534	20.760375
587.157216	-3.010200	3.756100	-11.306000	24.277391	0.000537	20.750744
588.160109	-3.012900	3.756900	-11.319000	24.244719	0.000536	20.734092
589.157098	-2.991100	3.757600	-11.238000	24.252012	0.000535	20.753736
590.156560	-3.013100	3.754800	-11.312000	24.279705	0.000537	20.723192
591.160468	-3.017900	3.754300	-11.330000	24.335223	0.000534	20.733365
592.156837	-2.997100	3.753500	-11.248000	24.370661	0.000536	20.756114
593.157739	-3.015900	3.754200	-11.321000	24.365480	0.000535	20.746648
594.161222	-2.994300	3.754700	-11.242000	24.358193	0.000534	20.724639
595.156722	-3.006900	3.755400	-11.291000	24.342767	0.000534	20.741408
596.156237	-3.011700	3.752800	-11.301000	24.345585	0.000535	20.744235
597.164140	-2.983400	3.753800	-11.198000	24.364191	0.000535	20.728285
598.159373	-3.007300	3.752900	-11.285000	24.384343	0.000533	20.740915
599.158280	-2.998000	3.754000	-11.253000	24.385110	0.000535	20.756384
600.160808	-2.973200	3.754300	-11.161000	24.399909	0.000536	20.731875
601.161832	-2.994800	3.751900	-11.236000	24.389069	0.000534	20.730483
602.158370	-3.004000	3.751900	-11.269000	24.377848	0.000534	20.744832
603.162629	-2.996900	3.751900	-11.243000	24.393918	0.000533	20.744358
604.158476	-2.994900	3.750000	-11.230000	24.398497	0.000533	20.730459
605.157893	-2.990600	3.751600	-11.218000	24.401910	0.000531	20.723925
606.162197	-2.972700	3.752400	-11.154000	24.430219	0.000534	20.730040
607.158009	-2.987900	3.751800	-11.208000	24.367905	0.000534	20.735330
608.161028	-2.988800	3.749400	-11.205000	24.325512	0.000533	20.747806
609.161376	-3.000400	3.751000	-11.254000	24.346659	0.000533	20.709275
610.158902	-2.998500	3.749400	-11.241000	24.371115	0.000534	20.740922
611.158694	-3.002400	3.748300	-11.253000	24.382434	0.000532	20.720507
612.163426	-2.978700	3.750400	-11.171000	24.391887	0.000533	20.735681
613.160700	-2.976400	3.749800	-11.160000	24.392433	0.000534	20.747135
614.160695	-2.983900	3.750000	-11.189000	24.406293	0.000533	20.736383
615.163272	-3.004200	3.748400	-11.259000	24.419281	0.000535	20.727128
616.160589	-2.984100	3.749300	-11.188000	24.427838	0.000530	20.718641
617.160151	-3.003500	3.748500	-11.257000	24.420976	0.000531	20.742578
618.165858	-3.005900	3.747400	-11.263000	24.412763	0.000531	20.703517
619.162781	-2.992900	3.748200	-11.217000	24.383963	0.000533	20.722041
620.161393	-3.000800	3.746800	-11.242000	24.364541	0.000532	20.723421
621.165120	-3.000100	3.747800	-11.242000	24.383287	0.000531	20.711406
622.163389	-3.004300	3.746900	-11.256000	24.416974	0.000533	20.724338
623.163530	-3.010100	3.746200	-11.275000	24.428740	0.000530	20.742782
624.165617	-3.016000	3.746000	-11.297000	24.446430	0.000532	20.723069
625.163360	-3.003900	3.745700	-11.251000	24.398922	0.000531	20.713340
626.163632	-3.034200	3.744400	-11.360000	24.442723	0.000529	20.728834
627.165899	-3.027300	3.744800	-11.335000	24.441802	0.000530	20.723168
628.164606	-3.006100	3.744100	-11.254000	24.426881	0.000530	20.714836
629.166367	-2.996100	3.745300	-11.220000	24.388401	0.000530	20.710371
630.168028	-2.978400	3.744600	-11.152000	24.369335	0.000529	20.732972
631.166562	-3.006200	3.743200	-11.252000	24.417256	0.000529	20.722251
632.165817	-2.999600	3.745200	-11.234000	24.402703	0.000529	20.715710
633.170704	-3.008100	3.744200	-11.261000	24.420939	0.000530	20.708875
634.167873	-3.009300	3.744300	-11.267000	24.405164	0.000528	20.714386
635.168488	-2.998500	3.743200	-11.224000	24.411020	0.000530	20.733539
636.172601	-3.000000	3.742700	-11.227000	24.382490	0.000528	20.698751
637.167583	-2.993800	3.741900	-11.202000	24.363903	0.000531	20.717564
638.166857	-3.002100	3.742600	-11.235000	24.419184	0.000528	20.710433
639.171616	-3.020000	3.742300	-11.301000	24.395380	0.000529	20.708364
640.167366	-3.001900	3.741700	-11.231000	24.384012	0.000528	20.718771
641.169246	-3.001300	3.741200	-11.228000	24.423143	0.000529	20.712509
642.171497	-3.019600	3.741600	-11.298000	24.438421	0.000528	20.721672
643.168290	-2.995800	3.741400	-11.208000	24.450512	0.000529	20.715311
644.168091	-2.986100	3.741600	-11.171000	24.418797	0.000529	20.711942
645.169424	-2.994200	3.741200	-11.201000	24.431509	0.000525	20.695296
646.172752	-3.017600	3.741300	-11.289000	24.442883	0.000527	20.707182
647.169127	-3.009800	3.739400	-11.254000	24.450126	0.000527	20.713501
648.172907	-3.025300	3.739400	-11.312000	24.474278	0.000528	20.723033
649.168580	-3.013700	3.739500	-11.268000	24.446572	0.000528	20.708512
650.171338	-2.996700	3.740300	-11.208000	24.466876	0.000529	20.695217
651.174495	-3.009300	3.740000	-11.255000	24.511006	0.000527	20.707250
652.170516	-3.017800	3.739300	-11.283000	24.525681	0.000528	20.703481
653.170488	-3.000900	3.738700	-11.218000	24.520544	0.000526	20.701172
654.174345	-2.995100	3.738000	-11.195000	24.517813	0.000524	20.698906
655.169664	-2.992400	3.738000	-11.185000	24.482768	0.000528	20.707842
656.171066	-3.007600	3.737400	-11.240000	24.463562	0.000528	20.690469
657.173112	-3.005600	3.738200	-11.234000	24.460131	0.000527	20.697459
658.170706	-3.018000	3.738200	-11.281000	24.458475	0.000527	20.699116
659.171174	-2.992200	3.738100	-11.185000	24.518120	0.000528	20.716285
660.176526	-2.998300	3.736500	-11.202000	24.484953	0.000527	20.696758
661.171885	-3.012400	3.736500	-11.255000	24.480749	0.000527	20.702023
662.174060	-2.990900	3.737800	-11.178000	24.504281	0.000527	20.704295
663.179581	-2.979200	3.738000	-11.135000	24.516120	0.000526	20.713804
664.174133	-2.999600	3.736200	-11.206000	24.473519	0.000527	20.700459
665.174183	-2.991200	3.737300	-11.178000	24.444444	0.000526	20.695945
666.178319	-3.001300	3.736900	-11.214000	24.445365	0.000525	20.711569
667.178311	-3.008600	3.736500	-11.241000	24.468603	0.000526	20.709752
668.176168	-3.000800	3.736100	-11.210000	24.508609	0.000526	20.697257
669.179783	-2.996800	3.736100	-11.195000	24.517809	0.000524	20.705066
670.176958	-3.013600	3.734900	-11.254000	24.551362	0.000526	20.710282
671.178095	-3.021700	3.734500	-11.284000	24.570915	0.000523	20.687700
672.177769	-2.998600	3.733600	-11.195000	24.627947	0.000526	20.711261
673.180870	-3.025100	3.732400	-11.289000	24.610782	0.000525	20.712056
674.179750	-2.990200	3.733800	-11.164000	24.552166	0.000524	20.707296
675.182372	-2.995800	3.735000	-11.188000	24.523363	0.000525	20.706372
676.183042	-2.987200	3.734500	-11.155000	24.526678	0.000525	20.700214
677.182427	-3.007900	3.733400	-11.229000	24.563563	0.000524	20.694548
678.186046	-3.002300	3.732300	-11.205000	24.559230	0.000526	20.699210
679.184225	-3.012600	3.733200	-11.246000	24.593426	0.000524	20.702227
680.184273	-2.985700	3.732700	-11.142000	24.571394	0.000524	20.699561
681.184948	-3.014600	3.732000	-11.251000	24.563434	0.000525	20.691573
682.185341	-2.967200	3.732100	-11.073000	24.628303	0.000523	20.713516
683.183891	-2.995800	3.731300	-11.177000	24.622319	0.000523	20.688543
684.187870	-2.996300	3.731500	-11.180000	24.609241	0.000524	20.695810
685.182932	-2.984600	3.731800	-11.137000	24.577507	0.000524	20.693840
686.187609	-2.990900	3.730200	-11.156000	24.553455	0.000524	20.706218
687.186874	-3.005000	3.731700	-11.213000	24.565367	0.000525	20.716748
688.184986	-2.990200	3.731400	-11.157000	24.601852	0.000522	20.717321
689.187113	-2.970800	3.732500	-11.087000	24.579968	0.000523	20.713854
690.187550	-2.982300	3.730100	-11.123000	24.557806	0.000522	20.695410
691.186047	-2.972500	3.730000	-11.087000	24.545040	0.000522	20.707732
692.188344	-3.009800	3.729100	-11.223000	24.548422	0.000523	20.686468
693.189343	-2.988600	3.730200	-11.146000	24.566312	0.000521	20.706316
694.187225	-2.994300	3.729300	-11.166000	24.550410	0.000523	20.719285
695.186378	-2.991900	3.730100	-11.159000	24.533072	0.000523	20.707104
696.188483	-3.003600	3.727900	-11.197000	24.531777	0.000523	20.702485
697.188068	-3.007600	3.729600	-11.217000	24.555658	0.000522	20.695625
698.188502	-3.009000	3.727300	-11.214000	24.568957	0.000522	20.708970
699.189048	-2.996100	3.728300	-11.169000	24.568582	0.000524	20.693420
700.187289	-3.013300	3.726400	-11.228000	24.623270	0.000520	20.711784
701.189818	-3.000100	3.727500	-11.182000	24.626927	0.000522	20.706445
702.192440	-2.991800	3.727900	-11.152000	24.658654	0.000525	20.736860
703.187525	-3.030700	3.726500	-11.293000	24.651916	0.000523	20.696905
704.189496	-3.026800	3.726300	-11.277000	24.651468	0.000522	20.707836
705.191332	-2.984100	3.726100	-11.118000	24.634874	0.000522	20.708729
706.186353	-3.008500	3.724300	-11.204000	24.653904	0.000519	20.701272
707.190401	-3.015100	3.724600	-11.229000	24.656862	0.000521	20.717517
708.193240	-3.007000	3.724600	-11.199000	24.671535	0.000521	20.699523
709.186965	-2.998000	3.725900	-11.170000	24.677751	0.000520	20.704338
710.190479	-3.014000	3.724300	-11.223000	24.618581	0.000520	20.712295
711.192288	-2.996500	3.725100	-11.162000	24.603508	0.000518	20.727518
712.191052	-2.998100	3.724100	-11.163000	24.593738	0.000517	20.713921
713.189982	-2.996600	3.724300	-11.159000	24.609854	0.000518	20.705434
714.191745	-3.010800	3.723000	-11.208000	24.658151	0.000517	20.718336
715.188416	-2.999200	3.724300	-11.169000	24.684735	0.000518	20.710872
716.190478	-2.994000	3.723700	-11.149000	24.708594	0.000518	20.714426
717.194960	-2.995900	3.723500	-11.153000	24.707379	0.000518	20.713681
718.187980	-2.994000	3.723000	-11.146000	24.757463	0.000518	20.727906
719.191164	-3.005400	3.723600	-11.190000	24.716381	0.000518	20.722715
720.190005	-2.979400	3.722300	-11.089000	24.696536	0.000516	20.713705
721.188367	-3.007900	3.722600	-11.196000	24.698279	0.000518	20.713558
722.194376	-2.984900	3.722300	-11.109000	24.657740	0.000517	20.720295
723.191750	-2.984400	3.722100	-11.107000	24.654334	0.000517	20.720670
724.188893	-3.000500	3.721500	-11.166000	24.613671	0.000516	20.710214
725.190555	-2.989600	3.721900	-11.125000	24.627351	0.000515	20.713508
726.193190	-3.006600	3.721700	-11.189000	24.636961	0.000515	20.722204
727.191803	-3.014700	3.720600	-11.215000	24.639968	0.000516	20.712419
728.194177	-2.999000	3.720100	-11.155000	24.629401	0.000514	20.729317
729.195004	-3.008800	3.721000	-11.195000	24.627192	0.000516	20.737532
730.191521	-3.017700	3.719300	-11.223000	24.671616	0.000514	20.740384
731.193517	-2.988200	3.719800	-11.114000	24.703907	0.000514	20.726793
732.194140	-2.987900	3.720700	-11.117000	24.681772	0.000515	20.734454
733.192234	-2.983300	3.720200	-11.097000	24.651181	0.000516	20.719403
734.192644	-3.023200	3.717600	-11.238000	24.662504	0.000516	20.719385
735.196814	-3.003000	3.719900	-11.170000	24.681859	0.000515	20.733592
736.198316	-2.987800	3.717800	-11.107000	24.631396	0.000513	20.732742
737.195624	-3.005000	3.719100	-11.175000	24.647960	0.000514	20.739879
738.195295	-2.989500	3.719400	-11.119000	24.705417	0.000514	20.746327
739.194590	-3.002800	3.718600	-11.166000	24.731478	0.000514	20.699931
740.197483	-3.003800	3.718200	-11.167000	24.733154	0.000515	20.729590
741.197223	-2.982300	3.718300	-11.088000	24.743978	0.000513	20.754678
742.194345	-2.986800	3.718400	-11.105000	24.702791	0.000513	20.736105
743.198492	-2.999700	3.717400	-11.151000	24.711922	0.000512	20.737208
744.197117	-3.001900	3.716400	-11.155000	24.706657	0.000512	20.729079
745.197610	-3.005300	3.716200	-11.167000	24.707130	0.000513	20.732873
746.198580	-3.009900	3.715700	-11.183000	24.657442	0.000513	20.747024
747.200008	-3.014700	3.715600	-11.201000	24.667893	0.000513	20.755141
748.197113	-3.001100	3.716400	-11.153000	24.680578	0.000513	20.728987
749.198048	-3.024000	3.715200	-11.234000	24.666776	0.000512	20.731260
750.200525	-3.022700	3.715500	-11.230000	24.660763	0.000512	20.738976
751.196970	-3.007000	3.714100	-11.167000	24.621101	0.000510	20.741852
752.198540	-2.996600	3.716800	-11.137000	24.648631	0.000511	20.751933
753.199427	-3.007100	3.714400	-11.168000	24.674270	0.000510	20.729770
754.197750	-2.991400	3.714100	-11.109000	24.710089	0.000511	20.736790
755.199743	-2.995400	3.715700	-11.129000	24.726252	0.000510	20.725983
756.198951	-2.994600	3.713900	-11.121000	24.739863	0.000511	20.741064
757.197484	-2.982700	3.714000	-11.077000	24.768212	0.000508	20.745332
758.200490	-2.984500	3.714400	-11.084000	24.781024	0.000511	20.729740
759.201512	-3.003000	3.713000	-11.149000	24.812452	0.000511	20.726192
760.198593	-2.992800	3.713800	-11.114000	24.792780	0.000510	20.737271
761.200759	-3.017000	3.713600	-11.203000	24.759038	0.000510	20.725694
762.202123	-2.990700	3.712700	-11.103000	24.735316	0.000510	20.731285
763.199261	-3.011700	3.713600	-11.183000	24.757148	0.000509	20.714787
764.201716	-2.999400	3.711000	-11.130000	24.750914	0.000509	20.733663
765.205397	-2.994100	3.712100	-11.114000	24.791768	0.000511	20.732936
766.201244	-2.991600	3.713700	-11.109000	24.755548	0.000511	20.742580
767.202322	-3.001800	3.712500	-11.143000	24.686581	0.000512	20.732166
768.203818	-2.988300	3.712600	-11.093000	24.707592	0.000507	20.752777
769.200445	-2.995800	3.710000	-11.114000	24.724559	0.000506	20.741354
770.203700	-3.010000	3.710300	-11.167000	24.752860	0.000508	20.736089
771.204751	-3.002500	3.710300	-11.139000	24.736991	0.000507	20.742925
772.202359	-3.012300	3.710800	-11.177000	24.682715	0.000508	20.760057
773.202698	-2.990300	3.711500	-11.098000	24.675001	0.000506	20.754687
774.204950	-3.026100	3.708400	-11.221000	24.691018	0.000506	20.746577
775.202004	-3.007500	3.710300	-11.159000	24.718332	0.000507	20.730363
776.203763	-2.998200	3.709600	-11.121000	24.709778	0.000505	20.730788
777.203521	-2.997000	3.710200	-11.118000	24.769539	0.000507	20.747612
778.202724	-2.992100	3.710100	-11.100000	24.789204	0.000505	20.743640
779.203032	-2.981400	3.710000	-11.060000	24.841672	0.000506	20.746984
780.207213	-3.005300	3.708700	-11.145000	24.834322	0.000505	20.754306
781.204137	-3.003100	3.708800	-11.137000	24.782425	0.000504	20.753906
782.206818	-3.007700	3.708600	-11.153000	24.755444	0.000506	20.738209
783.207556	-3.012200	3.707900	-11.168000	24.743884	0.000504	20.734668
784.204201	-2.982200	3.708900	-11.060000	24.751996	0.000506	20.762250
785.203671	-2.987900	3.708500	-11.080000	24.747271	0.000504	20.740438
786.208028	-2.996300	3.708300	-11.111000	24.733097	0.000504	20.757034
787.205445	-2.992300	3.706900	-11.091000	24.731759	0.000505	20.760908
788.205386	-2.989300	3.707300	-11.081000	24.755163	0.000506	20.752626
789.211535	-3.001500	3.706300	-11.124000	24.778149	0.000504	20.748192
790.207972	-2.993000	3.706100	-11.091000	24.792796	0.000503	20.761469
791.206143	-3.015600	3.705900	-11.174000	24.832507	0.000505	20.748217
792.206234	-2.995100	3.707000	-11.102000	24.853455	0.000503	20.763077
793.206463	-2.995200	3.705900	-11.099000	24.837275	0.000501	20.770073
794.207967	-3.027700	3.704800	-11.216000	24.820942	0.000502	20.763638
795.207308	-3.006200	3.704000	-11.134000	24.844810	0.000502	20.751556
796.207799	-3.027100	3.704700	-11.212000	24.843245	0.000503	20.762788
797.208550	-3.011300	3.704500	-11.155000	24.856204	0.000500	20.764888
798.209022	-3.004400	3.703900	-11.127000	24.826894	0.000502	20.754438
799.207929	-3.000300	3.705800	-11.117000	24.834852	0.000503	20.764322
800.211380	-3.003000	3.703500	-11.120000	24.834908	0.000501	20.759162
801.209701	-2.969500	3.706000	-11.004000	24.817053	0.000503	20.751674
802.211634	-2.999200	3.703300	-11.105000	24.761381	0.000501	20.767402
803.212188	-2.982000	3.703300	-11.042000	24.759768	0.000502	20.780007
804.209113	-2.989900	3.703900	-11.073000	24.780557	0.000500	20.782378
805.214074	-2.970200	3.704400	-11.002000	24.787644	0.000501	20.789490
806.209373	-2.991500	3.702800	-11.076000	24.783496	0.000500	20.763516
807.209064	-3.002100	3.702100	-11.113000	24.772003	0.000499	20.769526
808.214112	-3.003200	3.701800	-11.116000	24.770316	0.000499	20.773049
809.211156	-2.997600	3.702800	-11.099000	24.776937	0.000501	20.765943
810.212921	-3.000800	3.701600	-11.107000	24.802027	0.000500	20.760776
811.213665	-3.037600	3.700200	-11.238000	24.815336	0.000499	20.769866
812.211878	-3.034500	3.699800	-11.226000	24.821975	0.000498	20.781744
813.209821	-2.994000	3.701100	-11.080000	24.854298	0.000498	20.773406
814.215158	-3.001200	3.700700	-11.106000	24.841892	0.000499	20.758584
815.211758	-3.009300	3.700500	-11.135000	24.859194	0.000500	20.764095
816.211932	-3.020300	3.700900	-11.176000	24.860838	0.000498	20.790402
817.215493	-3.007400	3.700200	-11.127000	24.865416	0.000498	20.774133
818.211712	-3.009100	3.699800	-11.132000	24.853126	0.000498	20.773653
819.212014	-2.998300	3.699600	-11.092000	24.853346	0.000499	20.774822
820.215704	-3.001200	3.698400	-11.098000	24.892338	0.000497	20.776023
821.214639	-2.991700	3.698700	-11.065000	24.908400	0.000498	20.770808
822.213075	-2.981900	3.700000	-11.032000	24.919136	0.000497	20.785377
823.216670	-2.982100	3.698400	-11.029000	24.867170	0.000498	20.780635
824.213820	-2.992300	3.698900	-11.067000	24.850911	0.000494	20.772378
825.213625	-2.984000	3.699500	-11.038000	24.840167	0.000495	20.765863
826.217433	-2.987300	3.699100	-11.049000	24.850512	0.000495	20.778142
827.214074	-2.987500	3.699400	-11.051000	24.855132	0.000497	20.774717
828.212612	-2.989300	3.698000	-11.053000	24.811114	0.000496	20.783172
829.219925	-3.010900	3.697200	-11.131000	24.815261	0.000494	20.795395
830.215150	-3.007000	3.697700	-11.118000	24.842142	0.000493	20.791078
831.216443	-2.988200	3.697700	-11.048000	24.858383	0.000493	20.799318
832.221577	-3.036300	3.695600	-11.220000	24.922927	0.000495	20.772112
833.219308	-3.013500	3.696300	-11.138000	24.906246	0.000495	20.800888
834.220192	-3.008000	3.695500	-11.115000	24.919897	0.000494	20.784718
835.222742	-3.009600	3.695900	-11.123000	24.947241	0.000491	20.780868
836.220245	-3.019000	3.695700	-11.157000	24.951916	0.000494	20.794096
837.220482	-2.992400	3.697600	-11.063000	24.914393	0.000494	20.810013
838.222646	-3.006900	3.696400	-11.114000	24.921276	0.000495	20.806965
839.219543	-3.003900	3.695000	-11.098000	24.902030	0.000493	20.798553
840.220198	-3.013400	3.695600	-11.135000	24.877464	0.000491	20.802821
841.223430	-3.011400	3.694000	-11.124000	24.878311	0.000491	20.817421
842.220351	-2.988700	3.693700	-11.039000	24.869083	0.000491	20.791090
843.220475	-3.013800	3.693000	-11.129000	24.843074	0.000492	20.802919
844.225085	-2.991900	3.694400	-11.052000	24.857639	0.000491	20.786244
845.222231	-3.004900	3.693200	-11.097000	24.859081	0.000489	20.793855
846.222829	-3.020800	3.692600	-11.153000	24.895127	0.000490	20.799686
847.225884	-3.007200	3.694300	-11.108000	24.940160	0.000490	20.812642
848.221729	-3.001200	3.693200	-11.084000	24.918828	0.000490	20.830111
849.223758	-2.980200	3.694000	-11.008000	24.947589	0.000489	20.795443
850.225002	-2.989600	3.692300	-11.038000	24.935503	0.000489	20.802278
851.221325	-2.973400	3.692100	-10.977000	24.965890	0.000490	20.809544
852.221818	-3.008500	3.692300	-11.107000	24.953730	0.000487	20.832426
853.224555	-3.017200	3.691400	-11.137000	24.957773	0.000488	20.817518
854.223362	-2.992600	3.691500	-11.046000	24.985024	0.000489	20.817844
855.225463	-2.999700	3.691100	-11.071000	24.991981	0.000487	20.803490
856.225130	-3.005700	3.692000	-11.096000	24.962178	0.000488	20.805818
857.223821	-3.040700	3.690300	-11.220000	24.941288	0.000489	20.809507
858.224436	-3.028500	3.689800	-11.174000	24.931312	0.000487	20.803287
859.228004	-2.997700	3.691200	-11.064000	24.891660	0.000487	20.818491
860.224370	-3.013500	3.689000	-11.115000	24.883849	0.000487	20.815868
861.224680	-3.008800	3.690000	-11.102000	24.918385	0.000487	20.838676
862.228754	-3.006800	3.690700	-11.096000	24.906280	0.000487	20.827001
863.224809	-2.998000	3.689200	-11.059000	24.864878	0.000488	20.824328
864.224052	-3.000400	3.689300	-11.068000	24.818904	0.000485	20.810430
865.228049	-2.999800	3.689400	-11.065000	24.857890	0.000486	20.838177
866.225880	-2.990200	3.689700	-11.032000	24.881389	0.000485	20.812450
867.226656	-2.982600	3.688500	-11.001000	24.895764	0.000484	20.824981
868.228380	-3.000000	3.688000	-11.064000	24.914213	0.000482	20.843971
869.226521	-3.025800	3.687900	-11.158000	24.901881	0.000484	20.820689
870.225349	-2.998000	3.688200	-11.055000	24.914808	0.000484	20.825603
871.228825	-3.002400	3.687000	-11.069000	24.937141	0.000486	20.827155
872.224657	-3.006100	3.687100	-11.083000	24.938981	0.000484	20.832795
873.227506	-3.013100	3.686700	-11.108000	24.972902	0.000483	20.826066
874.230468	-2.992000	3.687400	-11.031000	24.994429	0.000484	20.819698
875.226802	-2.962300	3.688100	-10.924000	24.967878	0.000481	20.840462
876.226314	-2.998300	3.686700	-11.053000	24.974467	0.000482	20.822894
877.229690	-2.975700	3.687300	-10.971000	24.997018	0.000481	20.835099
878.227815	-2.993000	3.685100	-11.029000	25.009503	0.000481	20.834354
879.228547	-2.993000	3.685400	-11.030000	25.004380	0.000481	20.827790
880.232079	-3.000900	3.684900	-11.057000	25.015073	0.000483	20.840893
881.227081	-3.022600	3.685300	-11.137000	25.051722	0.000481	20.838800
882.229276	-3.004600	3.685700	-11.073000	25.013583	0.000482	20.848406
883.231377	-3.007400	3.685100	-11.081000	24.979620	0.000482	20.840395
884.230561	-3.018400	3.684700	-11.120000	24.989547	0.000480	20.841349
885.229589	-3.024700	3.684400	-11.144000	25.021969	0.000480	20.828375
886.230012	-3.008100	3.685500	-11.085000	24.993424	0.000481	20.856146
887.228750	-3.015900	3.684400	-11.111000	24.963940	0.000482	20.850260
888.229075	-3.009900	3.682500	-11.083000	24.983731	0.000480	20.833616
889.232421	-2.994400	3.683500	-11.029000	24.981989	0.000480	20.854151
890.228857	-3.004800	3.683300	-11.067000	24.964566	0.000479	20.850414
891.230458	-2.984800	3.683100	-10.992000	24.980652	0.000479	20.857076
892.233948	-2.980000	3.684500	-10.978000	24.991449	0.000478	20.851319
893.230925	-2.986100	3.681900	-10.993000	25.023092	0.000479	20.849890
894.234069	-3.013100	3.681900	-11.093000	24.986198	0.000479	20.839884
895.235648	-3.009800	3.681700	-11.081000	24.967585	0.000478	20.852970
896.232877	-3.016900	3.680900	-11.104000	24.994952	0.000477	20.851990
897.234775	-3.006700	3.681500	-11.069000	24.981173	0.000479	20.850962
898.239048	-3.007500	3.680600	-11.068000	24.988192	0.000478	20.868911
899.236514	-3.000500	3.682000	-11.047000	24.986051	0.000477	20.849219
900.236280	-2.999800	3.681300	-11.043000	24.965216	0.000474	20.868609
901.239746	-3.011400	3.680500	-11.083000	24.954904	0.000476	20.864423
902.237807	-2.993700	3.680100	-11.016000	25.003130	0.000478	20.859724
903.237534	-3.011000	3.679200	-11.077000	24.983989	0.000476	20.844780
904.245067	-2.990500	3.680100	-11.004000	24.997891	0.000476	20.851621
905.238658	-3.010100	3.680100	-11.076000	25.028945	0.000474	20.855291
906.238964	-3.009300	3.679200	-11.071000	25.051766	0.000475	20.835525
907.244187	-2.999500	3.679900	-11.036000	25.078095	0.000476	20.845833
908.238504	-3.009500	3.678700	-11.070000	25.070611	0.000476	20.848752
909.238278	-3.006300	3.679300	-11.061000	25.121224	0.000474	20.841239
910.243623	-2.992900	3.679000	-11.010000	25.069015	0.000474	20.853788
911.242128	-2.992500	3.678500	-11.007000	25.071304	0.000475	20.849447
912.244282	-3.010300	3.677100	-11.068000	25.087559	0.000474	20.849644
913.244706	-2.990300	3.677900	-10.997000	25.045937	0.000476	20.848166
914.242827	-2.981600	3.677900	-10.965000	25.044839	0.000476	20.863658
915.242925	-3.004200	3.676400	-11.044000	25.002620	0.000473	20.829816
916.246562	-3.003100	3.677700	-11.044000	25.044832	0.000473	20.845635
917.243131	-3.000700	3.677100	-11.033000	25.056113	0.000476	20.829933
918.243564	-3.002400	3.677400	-11.040000	25.100367	0.000474	20.823621
919.246338	-2.983100	3.677300	-10.968000	25.109034	0.000476	20.820468
920.242372	-3.004100	3.673800	-11.035000	25.052034	0.000474	20.836743
921.242437	-3.000900	3.675800	-11.030000	25.077608	0.000473	20.844396
922.244936	-2.995600	3.675300	-11.009000	25.066793	0.000474	20.834015
923.243660	-2.983500	3.674800	-10.963000	25.100218	0.000473	20.813515
924.244498	-2.981200	3.675500	-10.957000	25.058474	0.000473	20.844155
925.248664	-3.007200	3.675200	-11.051000	25.067589	0.000473	20.835762
926.246681	-2.992700	3.675400	-10.998000	25.090531	0.000474	20.822757
927.247536	-3.008000	3.673800	-11.050000	25.030211	0.000475	20.835700
928.248456	-2.991200	3.673200	-10.986000	25.009249	0.000470	20.843581
929.246550	-3.000700	3.673100	-11.020000	25.035118	0.000473	20.851056
930.247291	-2.994100	3.671900	-10.993000	25.032652	0.000473	20.818710
931.252694	-3.026800	3.673200	-11.117000	25.000174	0.000472	20.853913
932.248918	-3.004900	3.672200	-11.033000	25.001014	0.000475	20.826308
933.250181	-3.004100	3.672000	-11.030000	25.022357	0.000472	20.827342
934.254745	-2.986600	3.674100	-10.972000	25.012823	0.000471	20.834367
935.248761	-2.991200	3.672100	-10.983000	25.012436	0.000472	20.827815
936.250010	-2.999200	3.671800	-11.011000	25.001331	0.000470	20.823781
937.253294	-3.022500	3.671600	-11.097000	25.049359	0.000473	20.818885
938.250797	-2.984000	3.671600	-10.955000	25.083233	0.000473	20.826810
939.252199	-3.005200	3.671100	-11.031000	25.080613	0.000471	20.830818
940.253889	-3.006000	3.671300	-11.035000	25.112044	0.000471	20.838188
941.253319	-2.992300	3.670500	-10.982000	25.114743	0.000471	20.837104
942.253581	-2.963100	3.671400	-10.878000	25.131311	0.000470	20.836667
943.255590	-2.979400	3.670500	-10.935000	25.120343	0.000470	20.851734
944.251680	-2.973000	3.671200	-10.913000	25.087887	0.000469	20.835274
945.254334	-2.975800	3.671300	-10.924000	25.076016	0.000470	20.822411
946.255742	-2.980900	3.671500	-10.944000	25.038860	0.000470	20.830157
947.255282	-2.989500	3.667700	-10.963000	25.089646	0.000467	20.824239
948.254424	-2.984000	3.669900	-10.950000	25.091646	0.000470	20.851375
949.253745	-2.987300	3.668200	-10.957000	25.113483	0.000469	20.837262
950.252355	-2.992800	3.667900	-10.976000	25.064476	0.000468	20.842120
951.255514	-2.983700	3.668700	-10.945000	25.055017	0.000468	20.824564
952.256168	-2.999400	3.666800	-10.997000	25.048618	0.000466	20.826676
953.254457	-3.005700	3.668100	-11.025000	25.048532	0.000468	20.833702
954.257872	-2.982600	3.667000	-10.936000	25.035195	0.000466	20.842600
955.259493	-2.982800	3.666200	-10.934000	25.073229	0.000467	20.828622
956.254918	-3.013100	3.666800	-11.047000	25.078560	0.000466	20.815955
957.258013	-3.022800	3.666100	-11.081000	25.103207	0.000467	20.822679
958.258376	-2.990600	3.667400	-10.967000	25.058248	0.000466	20.812636
959.256263	-3.014500	3.665800	-11.049000	25.081258	0.000466	20.826250
960.257030	-3.019600	3.664800	-11.066000	25.054052	0.000466	20.825967
961.259123	-3.021100	3.665400	-11.072000	25.021944	0.000464	20.838307
962.257809	-3.023900	3.665000	-11.082000	25.063100	0.000466	20.831256
963.262850	-2.999600	3.664400	-10.991000	25.096471	0.000464	20.820659
964.262712	-3.006500	3.664900	-11.017000	25.101164	0.000466	20.822525
965.261858	-3.004900	3.662800	-11.006000	25.087619	0.000464	20.817463
966.267438	-2.999100	3.663900	-10.988000	25.022520	0.000463	20.842205
967.263803	-3.003600	3.663200	-11.002000	25.035164	0.000464	20.816964
968.260988	-3.009100	3.662600	-11.020000	25.031741	0.000463	20.832020
969.266371	-3.023700	3.662300	-11.073000	25.052684	0.000462	20.835973
970.268366	-2.990700	3.662700	-10.953000	25.105851	0.000463	20.816324
971.261999	-3.021000	3.662400	-11.062000	25.101134	0.000465	20.830081
972.264598	-3.029900	3.661100	-11.092000	25.090184	0.000461	20.834736
973.265184	-3.006200	3.661800	-11.007000	25.137276	0.000460	20.831750
974.262560	-2.995400	3.661900	-10.968000	25.149072	0.000461	20.820358
975.264768	-3.006200	3.661100	-11.004000	25.129266	0.000461	20.848363
976.269556	-3.014700	3.661400	-11.038000	25.128162	0.000458	20.830660
977.264513	-2.997300	3.662500	-10.976000	25.088670	0.000459	20.837009
978.267160	-3.020100	3.659900	-11.053000	25.053527	0.000460	20.828284
979.267621	-3.011300	3.661000	-11.024000	25.047797	0.000458	20.829171
980.265499	-3.006400	3.660600	-11.005000	25.068937	0.000457	20.850391
981.268740	-3.008300	3.660100	-11.010000	25.078071	0.000457	20.839172
982.269411	-3.013400	3.659500	-11.026000	25.072189	0.000457	20.849862
983.265148	-3.002300	3.659300	-10.985000	25.070318	0.000457	20.825700
984.271556	-2.997300	3.657800	-10.963000	25.124368	0.000458	20.843447
985.269402	-3.001000	3.658700	-10.979000	25.131343	0.000456	20.817259
986.266170	-3.000100	3.658100	-10.973000	25.188302	0.000457	20.848836
987.268081	-3.007800	3.658700	-11.004000	25.153867	0.000457	20.844612
988.269629	-3.006900	3.659000	-11.001000	25.160333	0.000458	20.836405
989.269526	-3.006900	3.657500	-10.997000	25.153335	0.000456	20.838862
990.271316	-2.980400	3.657800	-10.900000	25.134510	0.000455	20.836559
991.270660	-3.011200	3.657400	-11.013000	25.134867	0.000456	20.836443
992.268198	-2.995800	3.656600	-10.954000	25.137959	0.000454	20.829590
993.269308	-2.995100	3.656800	-10.951000	25.128151	0.000456	20.844874
994.268396	-3.016700	3.656400	-11.030000	25.140463	0.000454	20.825466
995.269457	-3.007300	3.655800	-10.993000	25.147340	0.000454	20.827628
996.270322	-3.041600	3.653900	-11.112000	25.206587	0.000452	20.834951
997.270700	-2.998900	3.656100	-10.964000	25.217389	0.000453	20.838683
998.269516	-3.024300	3.655400	-11.053000	25.271364	0.000455	20.836448
999.271269	-3.026500	3.655200	-11.062000	25.254001	0.000453	20.830870
1000.270424	-2.979400	3.655200	-10.889000	25.233701	0.000453	20.830404
1001.270099	-3.009500	3.654700	-10.997000	25.236818	0.000452	20.834955
1002.270618	-3.014300	3.654500	-11.014000	25.251550	0.000452	20.851168
1003.270525	-3.001400	3.654100	-10.966000	25.242309	0.000451	20.850899
1004.270837	-3.009300	3.653100	-10.992000	25.231957	0.000449	20.846195
1005.271137	-2.992100	3.654400	-10.933000	25.223425	0.000451	20.842372
1006.275278	-3.003100	3.653600	-10.971000	25.232406	0.000450	20.842379
1007.271109	-2.997000	3.653400	-10.949000	25.207842	0.000449	20.837632
1008.270906	-2.996700	3.652400	-10.944000	25.226648	0.000448	20.859831
1009.271833	-3.011400	3.651500	-10.996000	25.187658	0.000447	20.847240
1010.272096	-2.986200	3.652100	-10.905000	25.167387	0.000448	20.849649
1011.271530	-3.001100	3.652800	-10.962000	25.140134	0.000449	20.842205
1012.274877	-3.007400	3.649900	-10.975000	25.164192	0.000446	20.859717
1013.272904	-3.005600	3.651100	-10.973000	25.159654	0.000446	20.839516
1014.274090	-3.006500	3.650600	-10.974000	25.164003	0.000448	20.844356
1015.273302	-2.997500	3.652200	-10.947000	25.111436	0.000445	20.835681
1016.274925	-2.970800	3.650600	-10.844000	25.138500	0.000445	20.836297
1017.276148	-3.016000	3.649100	-11.005000	25.157412	0.000444	20.844377
1018.275229	-2.998400	3.649100	-10.940000	25.184150	0.000446	20.838503
1019.278571	-2.980500	3.650500	-10.880000	25.187947	0.000445	20.851798
1020.274707	-2.996200	3.649300	-10.933000	25.215457	0.000445	20.841011
1021.274636	-2.982100	3.648900	-10.880000	25.228375	0.000446	20.828376
1022.279180	-2.999800	3.648800	-10.944000	25.253400	0.000445	20.833586
1023.276108	-3.006500	3.649300	-10.969000	25.291091	0.000444	20.843926
1024.275410	-2.993100	3.648200	-10.918000	25.255242	0.000446	20.825004
1025.279770	-2.982400	3.648900	-10.881000	25.249447	0.000445	20.829617
1026.273536	-2.965900	3.648200	-10.819000	25.250626	0.000444	20.819421
1027.279922	-3.006300	3.647700	-10.964000	25.275497	0.000443	20.820685
1028.280241	-3.004700	3.647000	-10.956000	25.247948	0.000441	20.842810
1029.277671	-2.980600	3.648300	-10.873000	25.267753	0.000441	20.832823
1030.276549	-2.998200	3.646800	-10.933000	25.277389	0.000442	20.845342
1031.279438	-3.019800	3.646500	-11.011000	25.283989	0.000443	20.827314
1032.279276	-2.996400	3.645400	-10.921000	25.288431	0.000442	20.837463
1033.278726	-3.010800	3.646300	-10.976000	25.319293	0.000440	20.812974
1034.282489	-2.991300	3.645500	-10.904000	25.339938	0.000441	20.836547
1035.278832	-3.023200	3.643900	-11.016000	25.319945	0.000439	20.833543
1036.278976	-3.020800	3.643900	-11.006000	25.321946	0.000441	20.834604
1037.282920	-3.001400	3.645500	-10.940000	25.310307	0.000440	20.830030
1038.278574	-3.004100	3.644200	-10.947000	25.276146	0.000440	20.840776
1039.278747	-3.009200	3.643000	-10.962000	25.292069	0.000439	20.834004
1040.282522	-2.977800	3.642600	-10.846000	25.272775	0.000439	20.848770
1041.280808	-2.994400	3.643800	-10.910000	25.286086	0.000440	20.845065
1042.278056	-3.000300	3.643100	-10.929000	25.297979	0.000441	20.837567
1043.281539	-2.989700	3.642900	-10.889000	25.301826	0.000440	20.829575
1044.279549	-3.001700	3.643300	-10.935000	25.334877	0.000438	20.816768
1045.280081	-3.007300	3.641200	-10.949000	25.358306	0.000440	20.839817
1046.282679	-3.015900	3.641600	-10.982000	25.333046	0.000438	20.801178
1047.280828	-3.000000	3.641400	-10.924000	25.302590	0.000439	20.824179
1048.281536	-2.993900	3.642600	-10.904000	25.302058	0.000438	20.839765
1049.285151	-3.006500	3.641300	-10.947000	25.314301	0.000437	20.815074
1050.281028	-3.002000	3.641400	-10.930000	25.309022	0.000438	20.832059
1051.280681	-3.010600	3.640700	-10.959000	25.329249	0.000436	20.831031
1052.284357	-2.998400	3.638800	-10.910000	25.316611	0.000437	20.837307
1053.280946	-2.999800	3.638600	-10.914000	25.300328	0.000437	20.828071
1054.281218	-3.014600	3.638800	-10.969000	25.267358	0.000437	20.800659
1055.291979	-2.981000	3.640200	-10.851000	25.268445	0.000437	20.832569
1056.283052	-3.004700	3.639100	-10.932000	25.283551	0.000433	20.809805
1057.284813	-3.003100	3.639500	-10.929000	25.344514	0.000435	20.818384
1058.286541	-3.009900	3.638900	-10.952000	25.338414	0.000435	20.843078
1059.286577	-2.999600	3.636800	-10.908000	25.307531	0.000432	20.829139
1060.283165	-2.982300	3.637500	-10.847000	25.288163	0.000434	20.822021
1061.287498	-2.992000	3.637800	-10.884000	25.282737	0.000434	20.836013
1062.285232	-2.998800	3.637100	-10.905000	25.312483	0.000433	20.814671
1063.285745	-2.978100	3.636300	-10.828000	25.322493	0.000429	20.813816
1064.286359	-2.979700	3.636800	-10.835000	25.266511	0.000430	20.813085
1065.284668	-3.005300	3.636500	-10.928000	25.217704	0.000432	20.821456
1066.284016	-2.996200	3.636500	-10.895000	25.221108	0.000429	20.841468
1067.288008	-3.001900	3.635600	-10.912000	25.245631	0.000429	20.829105
1068.288256	-3.000300	3.635700	-10.907000	25.305278	0.000432	20.816446
1069.284442	-3.001500	3.635400	-10.911000	25.336834	0.000430	20.799292
1070.287204	-3.011700	3.634400	-10.944000	25.359201	0.000429	20.819853
1071.285873	-2.994100	3.634600	-10.881000	25.310482	0.000431	20.804127
1072.284070	-2.983900	3.636000	-10.849000	25.323025	0.000430	20.817196
1073.287856	-3.012400	3.634500	-10.947000	25.348496	0.000429	20.819062
1074.287605	-2.988800	3.633900	-10.859000	25.352244	0.000429	20.817610
1075.286590	-3.016100	3.632200	-10.955000	25.346769	0.000428	20.812586
1076.288184	-3.003300	3.632900	-10.910000	25.297798	0.000428	20.810359
1077.288354	-3.002300	3.633600	-10.908000	25.294369	0.000430	20.821141
1078.288374	-2.998700	3.632500	-10.891000	25.301118	0.000426	20.816063
1079.288831	-2.999600	3.632000	-10.894000	25.288037	0.000427	20.827585
1080.287394	-3.009200	3.632100	-10.929000	25.287541	0.000425	20.817129
1081.288395	-2.991400	3.630900	-10.860000	25.299661	0.000427	20.802272
1082.289021	-3.013600	3.631400	-10.943000	25.285715	0.000425	20.802968
1083.287670	-3.001000	3.631800	-10.898000	25.242758	0.000426	20.825747
1084.288855	-3.008300	3.630700	-10.921000	25.252518	0.000424	20.833175
1085.291695	-2.980100	3.632400	-10.825000	25.281916	0.000425	20.781136
1086.288982	-3.017200	3.630000	-10.951000	25.209403	0.000423	20.799371
1087.291281	-3.008500	3.628200	-10.914000	25.282004	0.000424	20.799717
1088.293259	-3.008500	3.629000	-10.916000	25.325475	0.000423	20.810647
1089.290084	-2.994200	3.629400	-10.866000	25.344354	0.000424	20.814904
1090.291312	-2.985800	3.630200	-10.838000	25.317039	0.000422	20.797435
1091.294221	-2.994600	3.629400	-10.868000	25.298685	0.000423	20.809826
1092.290858	-2.993500	3.628300	-10.860000	25.320993	0.000423	20.793818
1093.290946	-3.014700	3.626600	-10.932000	25.324170	0.000419	20.819294
1094.293671	-2.981500	3.628800	-10.818000	25.331249	0.000420	20.815970
1095.291976	-2.961200	3.627500	-10.741000	25.307804	0.000420	20.797645
1096.290727	-3.001200	3.628100	-10.888000	25.295963	0.000420	20.808516
1097.301501	-3.005000	3.627100	-10.899000	25.307734	0.000419	20.807533
1098.291464	-2.987200	3.627100	-10.834000	25.325901	0.000421	20.793056
1099.291267	-2.994400	3.624700	-10.853000	25.352955	0.000420	20.792720
1100.294354	-3.001000	3.625800	-10.880000	25.394972	0.000421	20.815469
1101.292627	-2.998400	3.625400	-10.869000	25.372026	0.000418	20.804282
1102.290856	-3.000600	3.625900	-10.879000	25.318211	0.000418	20.797663
1103.294206	-3.018000	3.624900	-10.939000	25.329313	0.000416	20.800750
1104.294941	-2.978400	3.626200	-10.799000	25.299031	0.000418	20.797372
1105.293849	-2.999500	3.624500	-10.871000	25.290869	0.000418	20.819523
1106.295488	-2.997400	3.623100	-10.858000	25.265781	0.000415	20.799549
1107.293448	-2.993400	3.623200	-10.845000	25.257944	0.000415	20.789310
1108.293490	-2.996200	3.623900	-10.857000	25.299596	0.000416	20.782292
1109.294704	-3.020100	3.622600	-10.940000	25.350189	0.000415	20.825029
1110.294199	-2.969900	3.623200	-10.760000	25.353307	0.000416	20.800660
1111.293689	-3.005900	3.622500	-10.888000	25.340552	0.000416	20.791646
1112.298800	-2.987200	3.622600	-10.820000	25.308056	0.000415	20.795528
1113.295630	-2.999200	3.621700	-10.861000	25.337797	0.000417	20.777974
1114.295774	-3.015700	3.622100	-10.921000	25.345442	0.000414	20.808409
1115.297053	-2.986200	3.621600	-10.814000	25.351025	0.000413	20.782721
1116.296233	-2.992400	3.621400	-10.836000	25.316719	0.000414	20.817976
1117.296348	-3.007000	3.620700	-10.886000	25.302719	0.000412	20.793962
1118.299384	-2.980300	3.621600	-10.793000	25.337104	0.000412	20.800512
1119.299648	-2.998300	3.620800	-10.855000	25.292561	0.000411	20.812212
1120.297402	-2.990000	3.620300	-10.824000	25.266572	0.000411	20.811723
1121.300048	-3.006900	3.619500	-10.883000	25.323532	0.000411	20.782617
1122.298130	-2.978000	3.619700	-10.778000	25.308307	0.000411	20.792935
1123.297612	-2.981500	3.618600	-10.789000	25.319115	0.000410	20.788613
1124.296830	-3.006900	3.617700	-10.877000	25.292458	0.000411	20.799307
1125.297053	-2.981300	3.618900	-10.787000	25.338231	0.000412	20.793583
1126.296523	-3.005500	3.617100	-10.871000	25.315327	0.000408	20.766319
1127.297183	-2.992400	3.618100	-10.826000	25.355039	0.000411	20.784381
1128.297332	-2.991300	3.618200	-10.822000	25.362265	0.000408	20.780257
1129.298927	-2.986900	3.617100	-10.802000	25.423294	0.000409	20.792699
1130.298585	-3.005700	3.617100	-10.871000	25.419954	0.000409	20.783182
1131.299692	-2.999200	3.616100	-10.845000	25.462043	0.000409	20.793678
1132.298237	-3.002100	3.617000	-10.857000	25.469760	0.000410	20.788625
1133.297888	-3.017300	3.616600	-10.911000	25.451960	0.000408	20.783079
1134.300239	-3.014100	3.614900	-10.894000	25.471035	0.000407	20.782318
1135.300602	-3.031800	3.614200	-10.956000	25.497491	0.000405	20.795136
1136.301581	-3.002600	3.615500	-10.855000	25.502532	0.000407	20.794509
1137.299498	-2.991500	3.615500	-10.814000	25.465443	0.000404	20.779074
1138.300124	-3.001100	3.614400	-10.847000	25.451445	0.000406	20.790622
1139.301446	-2.987100	3.614100	-10.794000	25.448150	0.000406	20.806280
1140.302727	-2.977400	3.615400	-10.763000	25.466659	0.000403	20.790253
1141.300900	-2.996400	3.612800	-10.823000	25.469512	0.000404	20.787428
1142.301405	-3.000800	3.613700	-10.843000	25.438383	0.000404	20.786515
1143.302854	-3.009200	3.612400	-10.869000	25.393943	0.000403	20.799737
1144.302644	-3.006100	3.612900	-10.860000	25.341291	0.000403	20.780534
1145.303075	-3.000500	3.612700	-10.838000	25.335767	0.000401	20.789212
1146.303689	-2.996900	3.612000	-10.824000	25.258835	0.000403	20.798740
1147.306512	-3.015900	3.611000	-10.889000	25.262127	0.000403	20.798252
1148.306913	-3.009300	3.611900	-10.869000	25.271642	0.000399	20.779355
1149.307874	-2.993200	3.611500	-10.809000	25.275110	0.000402	20.803701
1150.307220	-2.997800	3.610900	-10.823000	25.340226	0.000402	20.797483
1151.307057	-2.991600	3.612000	-10.804000	25.396160	0.000401	20.789635
1152.306850	-3.002200	3.611100	-10.841000	25.392973	0.000401	20.771736
1153.307874	-2.980800	3.609500	-10.758000	25.424803	0.000400	20.784257
1154.307265	-2.982800	3.609900	-10.766000	25.410279	0.000399	20.778682
1155.307384	-2.992000	3.608700	-10.796000	25.359025	0.000401	20.795969
1156.307078	-2.989800	3.610300	-10.794000	25.314950	0.000400	20.791070
1157.309267	-2.999600	3.609500	-10.826000	25.307459	0.000400	20.782126
1158.308784	-2.990000	3.609300	-10.791000	25.269674	0.000399	20.798717
1159.308991	-2.972300	3.609800	-10.727000	25.294650	0.000398	20.812887
1160.311470	-3.010600	3.608000	-10.862000	25.365619	0.000397	20.797375
1161.310335	-2.986100	3.608100	-10.773000	25.395565	0.000399	20.786193
1162.308897	-3.014900	3.607000	-10.874000	25.362329	0.000398	20.785537
1163.308783	-3.001500	3.607600	-10.827000	25.345841	0.000398	20.788422
1164.309301	-3.031200	3.604500	-10.924000	25.343747	0.000398	20.801966
1165.308735	-2.992500	3.606500	-10.792000	25.335813	0.000395	20.781671
1166.307703	-3.007000	3.604700	-10.838000	25.377084	0.000396	20.789447
1167.308875	-3.001800	3.605400	-10.822000	25.387994	0.000396	20.795186
1168.309641	-3.005400	3.603600	-10.830000	25.363056	0.000396	20.802388
1169.311532	-2.988200	3.605700	-10.774000	25.405423	0.000395	20.816006
1170.309990	-2.990100	3.604600	-10.777000	25.430391	0.000396	20.796981
1171.310372	-3.003300	3.604000	-10.822000	25.445821	0.000396	20.798251
1172.309965	-3.008100	3.603700	-10.840000	25.429729	0.000395	20.813386
1173.310303	-3.016400	3.603700	-10.869000	25.391973	0.000394	20.794440
1174.309767	-3.012400	3.602600	-10.852000	25.408565	0.000393	20.785496
1175.311519	-2.953800	3.604000	-10.645000	25.360572	0.000392	20.785669
1176.312140	-2.985000	3.602800	-10.754000	25.370504	0.000393	20.791375
1177.312687	-2.990500	3.603000	-10.774000	25.354917	0.000392	20.803698
1178.313172	-3.003100	3.603100	-10.819000	25.339575	0.000391	20.799200
1179.314595	-3.007700	3.601800	-10.831000	25.349384	0.000391	20.803359
1180.313408	-3.012500	3.601800	-10.849000	25.357782	0.000390	20.799463
1181.315123	-2.987100	3.601400	-10.757000	25.346021	0.000393	20.819896
1182.314549	-2.983800	3.601200	-10.745000	25.386027	0.000392	20.800798
1183.315834	-2.996100	3.599800	-10.784000	25.372197	0.000391	20.795445
1184.317661	-2.976300	3.600100	-10.715000	25.385542	0.000391	20.791301
1185.314449	-3.002700	3.601100	-10.812000	25.401642	0.000391	20.805097
1186.314917	-3.014100	3.600100	-10.850000	25.412888	0.000390	20.796001
1187.315927	-3.004900	3.599700	-10.816000	25.401280	0.000389	20.805207
1188.316144	-3.001400	3.598100	-10.798000	25.373563	0.000389	20.792549
1189.316761	-3.001500	3.598000	-10.798000	25.396491	0.000390	20.796132
1190.319015	-2.991100	3.598800	-10.764000	25.402802	0.000388	20.816219
1191.318395	-2.997700	3.598600	-10.787000	25.452345	0.000389	20.790103
1192.320009	-3.018500	3.597600	-10.857000	25.484222	0.000387	20.805519
1193.319410	-2.986000	3.598600	-10.744000	25.488241	0.000388	20.776838
1194.317864	-2.979800	3.598000	-10.720000	25.476876	0.000386	20.798616
1195.320342	-2.988700	3.596500	-10.748000	25.436014	0.000387	20.801205
1196.320096	-2.985700	3.596200	-10.737000	25.444332	0.000385	20.813825
1197.320993	-2.989700	3.597600	-10.754000	25.460879	0.000385	20.803414
1198.320126	-2.998700	3.597600	-10.788000	25.507615	0.000388	20.810518
1199.323735	-3.006900	3.596800	-10.815000	25.533328	0.000388	20.814529
1200.321381	-3.005400	3.594800	-10.803000	25.540004	0.000384	20.818862
1201.321868	-3.008800	3.594900	-10.816000	25.456476	0.000382	20.810373
1202.324097	-2.967500	3.594700	-10.666000	25.430448	0.000385	20.816953
1203.322285	-2.990800	3.592900	-10.744000	25.475149	0.000383	20.820589
1204.321833	-2.975200	3.594600	-10.694000	25.514232	0.000384	20.811473
1205.321053	-2.994300	3.593200	-10.757000	25.533385	0.000386	20.800361
1206.321132	-2.999400	3.593100	-10.776000	25.581829	0.000382	20.807288
1207.322814	-2.979000	3.593800	-10.705000	25.589079	0.000383	20.805560
1208.322513	-3.002400	3.593200	-10.787000	25.549363	0.000381	20.831580
1209.332199	-3.012900	3.592500	-10.823000	25.534152	0.000382	20.800658
1210.324154	-3.025500	3.592800	-10.868000	25.504895	0.000382	20.823907
1211.325366	-3.002900	3.592300	-10.786000	25.531848	0.000382	20.827267
1212.324377	-2.989500	3.592600	-10.739000	25.497003	0.000379	20.817879
1213.323429	-3.008400	3.592000	-10.805000	25.466805	0.000381	20.821693
1214.325534	-3.005200	3.590800	-10.790000	25.468611	0.000380	20.827774
1215.325625	-3.010200	3.591000	-10.809000	25.453719	0.000380	20.820880
1216.326615	-3.001800	3.592100	-10.782000	25.373010	0.000378	20.815702
1217.325495	-3.016200	3.590200	-10.828000	25.347707	0.000378	20.831072
1218.329874	-3.014400	3.589500	-10.820000	25.316532	0.000380	20.819210
1219.329770	-3.003100	3.589700	-10.779000	25.310561	0.000378	20.846880
1220.329171	-3.010400	3.588500	-10.801000	25.360732	0.000379	20.810012
1221.329772	-2.984100	3.590600	-10.713000	25.392490	0.000377	20.805390
1222.326002	-2.982900	3.588500	-10.704000	25.386125	0.000378	20.821284
1223.327260	-2.993200	3.587800	-10.738000	25.388700	0.000378	20.828137
1224.327810	-2.993100	3.588700	-10.740000	25.386437	0.000375	20.786511
1225.332649	-3.001800	3.587800	-10.768000	25.401914	0.000377	20.827180
1226.332966	-2.998100	3.588300	-10.757000	25.358811	0.000375	20.848385
1227.328627	-2.996700	3.587300	-10.749000	25.353161	0.000373	20.850772
1228.332962	-2.982700	3.587400	-10.700000	25.409522	0.000374	20.837191
1229.327806	-3.018200	3.586200	-10.823000	25.447269	0.000374	20.821516
1230.330253	-2.993800	3.585100	-10.732000	25.493587	0.000375	20.839578
1231.328114	-2.997500	3.585700	-10.748000	25.495866	0.000374	20.823375
1232.331200	-2.990600	3.586500	-10.724000	25.516038	0.000375	20.833200
1233.327552	-3.001200	3.585200	-10.759000	25.453782	0.000374	20.839434
1234.333677	-2.992300	3.586300	-10.731000	25.402929	0.000373	20.835312
1235.329501	-3.002400	3.584000	-10.760000	25.414106	0.000373	20.822353
1236.329464	-2.996100	3.583600	-10.736000	25.418302	0.000372	20.846481
1237.329234	-2.998000	3.583100	-10.742000	25.456915	0.000373	20.849693
1238.331661	-3.000700	3.583600	-10.753000	25.469327	0.000371	20.827071
1239.334188	-3.018500	3.582300	-10.811000	25.454238	0.000371	20.843212
1240.330590	-2.987700	3.584600	-10.707000	25.437659	0.000371	20.843159
1241.331489	-3.013500	3.581600	-10.792000	25.389216	0.000372	20.846198
1242.333870	-2.979600	3.583300	-10.676000	25.443215	0.000371	20.854901
1243.330601	-3.004200	3.581700	-10.759000	25.499744	0.000371	20.839597
1244.330348	-3.008000	3.582400	-10.775000	25.497901	0.000369	20.837272
1245.333741	-3.016600	3.579600	-10.798000	25.466603	0.000369	20.846145
1246.335053	-3.015700	3.581300	-10.799000	25.416724	0.000368	20.829724
1247.336170	-3.007800	3.581300	-10.771000	25.423622	0.000371	20.839970
1248.332356	-3.000500	3.581700	-10.746000	25.477521	0.000371	20.844781
1249.331759	-3.004500	3.579800	-10.755000	25.503137	0.000368	20.833522
1250.333477	-3.003400	3.579900	-10.750000	25.544781	0.000368	20.840729
1251.332378	-2.997000	3.579500	-10.726000	25.605977	0.000368	20.836281
1252.330813	-2.989700	3.580400	-10.704000	25.612082	0.000367	20.862325
1253.334880	-3.005500	3.578200	-10.754000	25.562206	0.000366	20.812236
1254.335234	-3.012800	3.577200	-10.777000	25.569457	0.000367	20.838483
1255.339287	-2.963900	3.577700	-10.603000	25.556751	0.000366	20.861283
1256.335488	-3.003400	3.576900	-10.741000	25.520712	0.000366	20.848800
1257.335145	-2.998700	3.577200	-10.726000	25.445457	0.000365	20.841033
1258.335995	-3.005300	3.577500	-10.750000	25.429473	0.000364	20.864810
1259.335301	-2.999500	3.577500	-10.730000	25.449819	0.000365	20.847783
1260.335145	-2.996700	3.577400	-10.719000	25.429955	0.000364	20.862448
1261.334830	-3.005300	3.576000	-10.746000	25.441505	0.000363	20.849866
1262.335783	-2.993500	3.576300	-10.705000	25.420845	0.000363	20.843344
1263.336025	-3.018900	3.575300	-10.792000	25.424890	0.000362	20.855940
1264.343692	-3.004400	3.575500	-10.741000	25.451751	0.000362	20.843559
1265.336831	-3.016200	3.573800	-10.778000	25.457980	0.000363	20.852659
1266.340508	-3.010200	3.573600	-10.755000	25.464136	0.000361	20.852677
1267.338092	-2.997900	3.574300	-10.715000	25.441513	0.000361	20.867891
1268.339536	-2.993500	3.573500	-10.696000	25.446030	0.000363	20.860573
1269.338825	-2.996800	3.573000	-10.707000	25.416504	0.000359	20.861270
1270.338193	-3.021600	3.572500	-10.794000	25.463363	0.000361	20.874184
1271.340069	-3.015100	3.573900	-10.775000	25.460846	0.000359	20.859804
1272.338112	-2.990500	3.572700	-10.683000	25.476153	0.000362	20.865218
1273.338741	-2.983000	3.573400	-10.658000	25.518961	0.000357	20.857946
1274.339548	-3.000300	3.572500	-10.718000	25.514260	0.000360	20.883570
1275.340374	-3.012800	3.571700	-10.760000	25.529756	0.000358	20.859304
1276.339838	-3.017300	3.570100	-10.771000	25.528931	0.000360	20.884553
1277.350346	-2.985300	3.571700	-10.662000	25.540506	0.000359	20.872944
1278.344257	-3.011500	3.571900	-10.755000	25.525069	0.000359	20.877356
1279.347173	-3.018700	3.569800	-10.776000	25.505827	0.000358	20.870360
1280.342664	-3.046000	3.568900	-10.870000	25.506887	0.000360	20.879011
1281.344624	-3.013300	3.569500	-10.755000	25.458028	0.000357	20.867879
1282.339412	-2.997900	3.569700	-10.700000	25.449842	0.000356	20.865823
1283.340459	-2.986700	3.568600	-10.657000	25.418026	0.000356	20.873703
1284.346540	-3.000200	3.569000	-10.706000	25.443718	0.000357	20.882432
1285.340063	-2.969000	3.569700	-10.598000	25.448584	0.000357	20.881628
1286.340736	-2.997200	3.568300	-10.694000	25.463584	0.000355	20.881044
1287.341476	-3.005800	3.568000	-10.724000	25.490470	0.000356	20.854939
1288.340765	-3.007500	3.568400	-10.731000	25.499162	0.000355	20.863194
1289.344078	-3.011200	3.568300	-10.744000	25.495325	0.000355	20.879254
1290.341873	-3.007200	3.567400	-10.727000	25.473922	0.000353	20.872460
1291.344221	-3.013000	3.567000	-10.747000	25.480973	0.000354	20.868635
1292.344341	-3.001600	3.567400	-10.707000	25.517795	0.000353	20.867206
1293.342444	-3.009100	3.565300	-10.728000	25.522386	0.000355	20.889833
1294.345938	-2.991800	3.567400	-10.671000	25.514500	0.000354	20.881440
1295.344038	-2.981200	3.566600	-10.631000	25.541606	0.000352	20.891117
1296.348239	-2.999300	3.565700	-10.694000	25.561951	0.000351	20.896849
1297.348487	-3.004200	3.565400	-10.709000	25.589877	0.000351	20.883170
1298.353462	-3.008800	3.564900	-10.725000	25.547649	0.000352	20.893392
1299.355985	-2.975300	3.565500	-10.608000	25.580145	0.000352	20.883354
1300.346465	-2.997800	3.565300	-10.688000	25.588711	0.000350	20.883896
1301.346805	-2.997900	3.563700	-10.683000	25.533316	0.000348	20.891326
1302.347399	-2.994500	3.563100	-10.669000	25.498595	0.000351	20.883960
1303.348469	-3.007000	3.564500	-10.718000	25.479674	0.000349	20.904786
1304.346669	-3.005400	3.562000	-10.703000	25.499723	0.000350	20.905479
1305.346649	-2.995200	3.561400	-10.666000	25.535054	0.000348	20.894019
1306.350974	-2.994800	3.562100	-10.667000	25.541583	0.000348	20.919066
1307.349378	-2.975800	3.563000	-10.601000	25.516799	0.000346	20.884697
1308.347741	-3.001000	3.561600	-10.688000	25.518881	0.000348	20.912390
1309.350597	-3.015400	3.561500	-10.739000	25.525809	0.000347	20.912709
1310.350623	-3.003900	3.561400	-10.697000	25.576941	0.000347	20.893412
1311.349436	-2.994300	3.559800	-10.659000	25.600790	0.000346	20.882277
1312.349871	-2.993100	3.561100	-10.658000	25.573996	0.000344	20.909419
1313.352838	-3.001800	3.560800	-10.688000	25.542652	0.000347	20.912080
1314.349936	-3.003900	3.560800	-10.696000	25.594383	0.000348	20.899548
1315.350773	-2.979100	3.560400	-10.606000	25.589281	0.000345	20.911493
1316.351110	-3.014100	3.559200	-10.727000	25.588408	0.000345	20.904927
1317.354377	-3.027100	3.558900	-10.772000	25.613198	0.000344	20.890945
1318.350617	-3.020900	3.558200	-10.748000	25.619008	0.000345	20.908158
1319.350683	-3.003300	3.558200	-10.685000	25.629508	0.000346	20.922021
1320.361508	-2.999600	3.557900	-10.671000	25.629427	0.000344	20.904398
1321.352685	-2.996300	3.557900	-10.660000	25.589766	0.000342	20.926204
1322.350278	-3.010000	3.557500	-10.707000	25.585483	0.000342	20.914791
1323.353223	-3.029600	3.555900	-10.772000	25.620860	0.000343	20.897217
1324.349897	-3.033400	3.555500	-10.784000	25.627939	0.000342	20.937987
1325.351584	-3.011400	3.556100	-10.708000	25.622690	0.000344	20.936034
1326.353371	-3.000100	3.556200	-10.668000	25.647504	0.000344	20.904062
1327.353624	-2.989000	3.556600	-10.630000	25.627648	0.000341	20.920153
1328.359764	-2.997300	3.555700	-10.657000	25.575659	0.000341	20.906822
1329.362462	-3.008100	3.555400	-10.694000	25.577989	0.000340	20.920066
1330.354258	-3.015500	3.553600	-10.714000	25.560217	0.000339	20.931140
1331.352425	-3.010800	3.553600	-10.698000	25.538094	0.000339	20.927416
1332.352596	-2.999500	3.553900	-10.658000	25.522736	0.000339	20.934276
1333.354791	-2.995000	3.554300	-10.644000	25.528469	0.000339	20.910165
1334.356276	-3.000800	3.555300	-10.668000	25.510549	0.000339	20.930573
1335.353946	-2.992000	3.553300	-10.630000	25.528164	0.000340	20.935933
1336.359586	-2.987300	3.553200	-10.614000	25.566002	0.000339	20.935527
1337.354127	-3.031300	3.551400	-10.764000	25.546543	0.000339	20.919306
1338.354349	-2.994800	3.553000	-10.640000	25.626051	0.000341	20.937987
1339.357995	-3.010800	3.552700	-10.696000	25.659786	0.000338	20.941049
1340.354828	-3.032000	3.550300	-10.764000	25.653670	0.000337	20.925899
1341.355062	-3.001600	3.551400	-10.659000	25.674760	0.000337	20.935700
1342.359355	-2.992400	3.552200	-10.628000	25.689264	0.000337	20.936518
1343.356124	-3.001100	3.550400	-10.653000	25.705805	0.000338	20.917099
1344.357401	-3.001700	3.550800	-10.657000	25.712087	0.000336	20.942372
1345.361333	-3.006000	3.550600	-10.673000	25.671853	0.000336	20.932307
1346.357589	-2.986400	3.550100	-10.602000	25.689141	0.000337	20.934498
1347.356555	-2.986400	3.549400	-10.599000	25.641803	0.000336	20.940531
1348.361937	-2.997500	3.549300	-10.638000	25.662473	0.000335	20.952755
1349.356984	-2.979300	3.549900	-10.575000	25.613316	0.000336	20.946533
1350.358113	-3.003700	3.547800	-10.655000	25.595224	0.000334	20.932159
1351.357661	-2.974100	3.548300	-10.552000	25.525343	0.000334	20.942583
1352.359241	-2.978300	3.548900	-10.569000	25.491320	0.000333	20.933073
1353.357963	-2.985600	3.548000	-10.592000	25.513875	0.000333	20.956669
1354.359540	-2.997900	3.547000	-10.633000	25.535764	0.000333	20.945936
1355.357887	-2.997700	3.547800	-10.633000	25.584416	0.000332	20.940742
1356.357634	-2.997400	3.547200	-10.632000	25.630998	0.000334	20.957178
1357.357994	-2.989300	3.546000	-10.599000	25.629973	0.000330	20.955201
1358.357516	-2.999400	3.546500	-10.637000	25.638940	0.000332	20.970369
1359.358418	-3.000100	3.546000	-10.638000	25.621445	0.000331	20.953274
1360.357791	-3.003600	3.544900	-10.647000	25.587422	0.000333	20.950873
1361.357707	-2.988000	3.546100	-10.595000	25.602425	0.000330	20.951716
1362.358118	-3.002300	3.544200	-10.640000	25.583584	0.000330	20.957449
1363.357470	-3.021300	3.543000	-10.704000	25.574959	0.000330	20.961114
1364.356453	-3.027300	3.542800	-10.724000	25.589984	0.000328	20.970513
1365.356707	-3.002100	3.545000	-10.642000	25.583300	0.000329	20.958112
1366.358117	-2.997800	3.543300	-10.621000	25.607842	0.000329	20.970430
1367.358768	-2.988600	3.543500	-10.588000	25.604586	0.000328	20.968583
1368.358589	-3.036100	3.541900	-10.753000	25.630494	0.000328	20.955250
1369.358046	-3.030600	3.542400	-10.735000	25.638245	0.000329	20.967301
1370.358960	-3.013200	3.540600	-10.667000	25.660724	0.000329	20.957163
1371.367887	-2.993400	3.541300	-10.599000	25.689494	0.000329	20.965668
1372.357998	-3.002400	3.540400	-10.630000	25.680241	0.000326	20.964436
1373.359217	-3.008200	3.540600	-10.650000	25.616555	0.000326	20.966853
1374.361502	-2.985400	3.541900	-10.573000	25.588845	0.000327	20.955621
1375.365266	-2.984400	3.540000	-10.564000	25.557556	0.000327	20.979195
1376.366905	-3.011300	3.539200	-10.657000	25.552184	0.000328	20.973327
1377.363161	-2.993200	3.540500	-10.597000	25.605652	0.000327	20.972971
1378.360543	-2.995400	3.539700	-10.602000	25.663317	0.000327	20.949336
1379.360648	-2.983300	3.539300	-10.558000	25.661373	0.000326	20.971563
1380.364113	-3.006500	3.538000	-10.637000	25.637318	0.000325	20.958784
1381.361462	-2.999900	3.538800	-10.616000	25.653487	0.000327	20.966014
1382.363693	-2.999300	3.539200	-10.613000	25.658206	0.000324	20.978337
1383.362519	-3.007800	3.536700	-10.637000	25.669280	0.000323	20.988985
1384.364240	-2.971900	3.538200	-10.514000	25.730049	0.000325	20.986011
1385.368507	-2.999000	3.536900	-10.606000	25.657396	0.000323	20.969939
1386.364917	-3.000300	3.537600	-10.613000	25.656446	0.000321	20.994585
1387.366167	-3.010200	3.534900	-10.640000	25.667820	0.000322	21.003163
1388.367526	-2.987800	3.536700	-10.566000	25.658002	0.000322	20.974340
1389.366712	-2.980300	3.535800	-10.537000	25.667661	0.000321	20.991151
1390.368764	-2.986700	3.535700	-10.559000	25.655334	0.000322	20.982565
1391.366902	-3.003800	3.536000	-10.620000	25.630385	0.000322	20.982163
1392.365602	-2.993100	3.535500	-10.581000	25.646233	0.000322	20.979115
1393.366392	-3.035600	3.532100	-10.721000	25.684988	0.000322	20.984848
1394.367283	-3.011000	3.533700	-10.640000	25.670996	0.000320	20.973167
1395.367968	-3.004800	3.533800	-10.618000	25.636503	0.000321	20.996840
1396.367347	-3.005700	3.532100	-10.615000	25.605492	0.000320	20.978500
1397.367521	-2.976200	3.532600	-10.513000	25.633937	0.000320	20.967241
1398.367599	-2.984700	3.532800	-10.543000	25.573652	0.000320	20.956957
1399.369070	-3.017200	3.532900	-10.659000	25.573325	0.000320	20.966585
1400.368115	-2.987200	3.532300	-10.550000	25.537092	0.000320	20.978559
1401.368185	-2.995000	3.530400	-10.571000	25.547001	0.000320	20.997516
1402.370105	-3.005900	3.530300	-10.611000	25.567298	0.000318	20.972859
1403.371174	-3.029200	3.529600	-10.691000	25.596616	0.000318	20.975750
1404.370065	-3.002600	3.530500	-10.600000	25.637490	0.000319	20.964171
1405.371577	-2.995900	3.530500	-10.576000	25.652144	0.000319	20.979361
1406.373761	-2.997300	3.531200	-10.583000	25.642919	0.000317	20.979105
1407.371350	-3.005500	3.529000	-10.605000	25.599033	0.000317	20.960636
1408.372308	-2.982000	3.530300	-10.527000	25.599750	0.000319	20.948555
1409.373919	-2.999800	3.528500	-10.584000	25.600167	0.000318	20.963671
1410.372354	-3.037100	3.528600	-10.716000	25.660171	0.000316	20.979363
1411.372087	-3.012400	3.529200	-10.631000	25.698528	0.000314	20.969052
1412.374382	-3.011000	3.527400	-10.620000	25.746350	0.000317	20.963507
1413.372369	-3.007100	3.527100	-10.605000	25.739612	0.000315	20.966696
1414.372958	-3.000500	3.527500	-10.583000	25.736849	0.000314	20.961076
1415.375081	-3.028000	3.526600	-10.678000	25.696647	0.000314	20.965266
1416.376096	-3.031700	3.527000	-10.692000	25.679424	0.000312	20.945600
1417.375241	-2.995700	3.526300	-10.563000	25.662872	0.000316	20.953156
1418.380668	-3.004600	3.525200	-10.591000	25.686169	0.000314	20.953796
1419.376866	-3.020500	3.525800	-10.649000	25.702961	0.000315	20.954067
1420.375290	-3.028800	3.525100	-10.675000	25.699031	0.000313	20.949172
1421.381202	-2.994400	3.525100	-10.555000	25.725613	0.000312	20.959748
1422.380416	-3.003500	3.525000	-10.587000	25.724914	0.000311	20.948142
1423.374987	-2.986200	3.524800	-10.524000	25.694051	0.000312	20.960289
1424.375182	-3.018400	3.523600	-10.635000	25.724333	0.000311	20.958462
1425.377820	-3.000600	3.523900	-10.573000	25.729622	0.000313	20.945285
1426.374460	-2.995200	3.524200	-10.554000	25.733394	0.000311	20.966140
1427.378713	-3.011700	3.521900	-10.606000	25.746357	0.000308	20.938861
1428.376255	-3.007800	3.522300	-10.594000	25.769905	0.000313	20.925058
1429.378138	-3.003500	3.521700	-10.577000	25.753255	0.000308	20.943419
1430.374889	-2.988400	3.523200	-10.527000	25.760904	0.000308	20.948256
1431.377126	-2.995500	3.521700	-10.548000	25.752800	0.000309	20.951496
1432.379161	-3.027300	3.521100	-10.659000	25.727329	0.000309	20.953886
1433.377668	-3.021500	3.521000	-10.638000	25.749563	0.000308	20.962941
1434.386064	-3.004600	3.520900	-10.578000	25.703395	0.000308	20.937435
1435.377709	-3.023600	3.520000	-10.641000	25.677703	0.000308	20.966153
1436.377882	-3.010000	3.519400	-10.593000	25.691465	0.000308	20.924031
1437.378633	-2.994100	3.519100	-10.536000	25.665046	0.000307	20.944909
1438.381891	-2.974800	3.519600	-10.469000	25.593880	0.000308	20.956883
1439.377657	-3.013600	3.518200	-10.602000	25.600262	0.000308	20.953336
1440.379364	-3.021200	3.518100	-10.628000	25.635841	0.000308	20.957301
1441.378473	-3.013600	3.517800	-10.600000	25.689533	0.000306	20.937262
1442.381504	-3.004800	3.518500	-10.572000	25.706946	0.000309	20.955698
1443.380652	-2.993000	3.518700	-10.531000	25.697648	0.000306	20.931189
1444.379879	-2.998400	3.517600	-10.547000	25.689618	0.000306	20.957734
1445.380662	-2.992600	3.517100	-10.523000	25.685266	0.000304	20.947200
1446.380331	-2.988100	3.516300	-10.506000	25.677261	0.000306	20.937264
1447.381374	-2.990100	3.516600	-10.514000	25.650248	0.000306	20.936686
1448.382767	-2.970200	3.516500	-10.443000	25.694867	0.000304	20.926500
1449.382549	-2.979600	3.516500	-10.476000	25.719140	0.000305	20.949455
1450.384257	-2.982400	3.514100	-10.479000	25.706019	0.000305	20.942915
1451.385721	-2.991300	3.515800	-10.516000	25.703155	0.000306	20.918230
1452.384680	-2.992100	3.514400	-10.514000	25.681811	0.000303	20.955582
1453.383177	-2.995800	3.515800	-10.531000	25.633876	0.000304	20.918822
1454.385145	-3.003700	3.514100	-10.555000	25.590736	0.000303	20.941874
1455.386205	-2.988500	3.514200	-10.501000	25.627309	0.000304	20.931191
1456.383670	-3.005700	3.512000	-10.554000	25.614585	0.000301	20.929792
1457.385058	-2.994600	3.512300	-10.517000	25.642185	0.000301	20.923848
1458.384111	-2.995000	3.512100	-10.518000	25.632642	0.000301	20.942236
1459.384645	-3.002800	3.511300	-10.543000	25.657288	0.000303	20.951815
1460.385030	-2.986800	3.512600	-10.490000	25.662128	0.000302	20.927756
1461.385381	-2.988700	3.510800	-10.492000	25.649579	0.000300	20.900931
1462.384177	-3.019900	3.511000	-10.602000	25.644953	0.000301	20.921886
1463.386056	-2.984600	3.511700	-10.480000	25.652379	0.000300	20.937877
1464.387446	-2.987300	3.510800	-10.487000	25.675235	0.000301	20.934281
1465.384722	-2.989000	3.510600	-10.492000	25.681419	0.000299	20.930062
1466.385388	-2.984500	3.509700	-10.474000	25.703429	0.000299	20.938891
1467.385511	-2.979400	3.510400	-10.457000	25.653858	0.000298	20.906650
1468.386482	-3.003400	3.510000	-10.541000	25.598519	0.000298	20.916977
1469.388968	-3.001600	3.509100	-10.531000	25.648531	0.000298	20.934488
1470.387816	-3.004600	3.507900	-10.539000	25.697428	0.000298	20.921960
1471.389495	-3.025600	3.508400	-10.614000	25.749303	0.000298	20.919064
1472.387174	-3.021300	3.506800	-10.594000	25.746615	0.000298	20.921579
1473.387755	-3.008300	3.507300	-10.550000	25.725816	0.000297	20.929610
1474.392645	-3.004500	3.508300	-10.539000	25.721642	0.000296	20.921625
1475.388797	-3.014200	3.506600	-10.569000	25.726236	0.000298	20.908223
1476.389385	-3.013500	3.506500	-10.566000	25.686801	0.000295	20.934519
1477.392338	-2.980400	3.507400	-10.452000	25.680788	0.000296	20.912834
1478.388016	-3.014000	3.505800	-10.566000	25.665652	0.000296	20.911857
1479.388199	-2.997500	3.506400	-10.510000	25.653423	0.000295	20.918540
1480.388297	-3.004700	3.505600	-10.532000	25.668924	0.000293	20.922728
1481.388868	-2.978500	3.505200	-10.439000	25.682291	0.000297	20.911025
1482.389601	-3.004200	3.505200	-10.530000	25.668844	0.000295	20.931656
1483.387832	-3.020500	3.503100	-10.580000	25.666133	0.000294	20.919925
1484.388206	-3.013400	3.503700	-10.557000	25.650797	0.000293	20.921592
1485.387707	-2.999400	3.504200	-10.510000	25.595759	0.000295	20.918472
1486.388300	-3.015300	3.502200	-10.560000	25.641675	0.000294	20.911957
1487.390968	-2.997400	3.503300	-10.500000	25.712906	0.000294	20.922808
1488.388757	-2.975300	3.503700	-10.424000	25.730146	0.000292	20.920684
1489.392709	-2.999600	3.503700	-10.509000	25.712078	0.000293	20.889262
1490.393061	-3.006300	3.501200	-10.525000	25.669142	0.000293	20.908724
1491.389824	-3.008300	3.502200	-10.534000	25.695426	0.000291	20.930380
1492.389710	-3.012300	3.499900	-10.542000	25.668241	0.000292	20.907345
1493.392717	-3.027600	3.499500	-10.593000	25.686426	0.000290	20.909014
1494.390571	-3.025400	3.499700	-10.587000	25.663515	0.000291	20.912081
1495.389514	-3.008300	3.500800	-10.530000	25.730172	0.000293	20.901746
1496.392143	-3.039400	3.497600	-10.630000	25.722617	0.000290	20.905537
1497.389934	-3.001500	3.499400	-10.502000	25.733372	0.000289	20.905434
1498.388765	-2.997700	3.499600	-10.490000	25.757270	0.000290	20.893403
1499.390392	-3.004800	3.498100	-10.511000	25.816717	0.000289	20.918976
1500.391377	-2.969200	3.500000	-10.391000	25.823697	0.000290	20.911289
1501.390491	-3.005500	3.498500	-10.513000	25.769061	0.000289	20.904772
1502.390341	-3.004800	3.497700	-10.509000	25.751643	0.000289	20.899605
1503.392030	-3.006900	3.495100	-10.509000	25.787292	0.000288	20.907437
1504.391577	-2.996600	3.497400	-10.479000	25.818069	0.000288	20.902318
1505.390974	-3.014000	3.494900	-10.533000	25.787237	0.000287	20.896952
1506.392220	-2.995800	3.495000	-10.469000	25.770413	0.000287	20.918931
1507.389474	-2.993200	3.496900	-10.465000	25.772153	0.000287	20.903136
1508.393759	-2.985700	3.495400	-10.436000	25.760969	0.000287	20.909919
1509.391892	-2.997200	3.494500	-10.472000	25.750059	0.000286	20.899910
1510.391514	-3.008300	3.494500	-10.512000	25.748241	0.000285	20.898558
1511.392513	-3.041500	3.492700	-10.622000	25.727048	0.000283	20.899556
1512.394167	-2.968000	3.495500	-10.374000	25.661451	0.000283	20.887725
1513.393981	-2.995600	3.493200	-10.463000	25.620251	0.000284	20.907035
1514.393969	-3.005300	3.493800	-10.499000	25.648303	0.000285	20.902493
1515.396594	-3.007200	3.492500	-10.502000	25.678041	0.000283	20.915291
1516.396883	-2.963800	3.494400	-10.355000	25.724449	0.000283	20.896946
1517.395385	-2.996900	3.493400	-10.468000	25.760944	0.000283	20.902783
1518.395837	-2.984600	3.492300	-10.421000	25.752421	0.000282	20.898963
1519.393593	-2.978400	3.493400	-10.403000	25.760592	0.000282	20.876827
1520.394101	-3.003800	3.491300	-10.486000	25.802202	0.000283	20.907716
1521.396471	-3.021000	3.491400	-10.547000	25.812610	0.000281	20.895412
1522.398818	-2.968300	3.491900	-10.364000	25.795663	0.000283	20.886450
1523.396626	-3.000900	3.491100	-10.476000	25.847309	0.000282	20.893759
1524.398259	-3.029000	3.489200	-10.567000	25.790913	0.000282	20.890687
1525.399463	-3.005500	3.488500	-10.484000	25.714736	0.000282	20.881502
1526.396193	-2.993300	3.491300	-10.450000	25.733244	0.000279	20.916209
1527.401399	-3.011200	3.488800	-10.504000	25.774284	0.000284	20.894846
1528.400872	-3.013600	3.489000	-10.513000	25.773637	0.000281	20.906049
1529.401223	-2.985000	3.488500	-10.412000	25.797260	0.000282	20.901330
1530.402902	-3.016700	3.487900	-10.520000	25.787717	0.000279	20.896486
1531.401669	-3.004000	3.488300	-10.477000	25.803888	0.000279	20.893764
1532.398885	-2.991400	3.488100	-10.432000	25.846740	0.000279	20.879438
1533.403769	-2.998400	3.487900	-10.458000	25.857347	0.000278	20.886299
1534.404890	-2.986500	3.486600	-10.412000	25.821421	0.000278	20.907581
1535.402532	-3.014900	3.485000	-10.506000	25.752030	0.000278	20.888615
1536.403274	-3.022400	3.484500	-10.530000	25.700026	0.000278	20.885692
1537.404025	-2.993800	3.486700	-10.437000	25.732869	0.000278	20.874111
1538.403618	-3.005200	3.485600	-10.474000	25.765812	0.000276	20.895346
1539.404541	-3.008300	3.484100	-10.480000	25.763744	0.000279	20.890898
1540.403732	-3.004800	3.484700	-10.470000	25.860310	0.000277	20.897335
1541.408700	-2.997600	3.485100	-10.446000	25.854370	0.000275	20.885205
1542.403562	-3.012300	3.484100	-10.494000	25.858466	0.000277	20.879364
1543.403239	-2.992900	3.483500	-10.424000	25.849944	0.000277	20.901147
1544.404344	-2.987200	3.484500	-10.408000	25.868771	0.000278	20.887344
1545.408174	-3.001400	3.484200	-10.457000	25.834188	0.000276	20.884372
1546.404963	-2.999300	3.483000	-10.445000	25.835254	0.000276	20.899193
1547.405586	-3.009400	3.481300	-10.475000	25.812720	0.000275	20.890781
1548.404572	-3.013200	3.481800	-10.491000	25.839622	0.000274	20.890778
1549.405415	-2.991000	3.482500	-10.416000	25.806330	0.000275	20.889104
1550.407356	-3.002800	3.481200	-10.453000	25.788987	0.000273	20.901554
1551.408775	-2.995400	3.481500	-10.427000	25.747918	0.000273	20.875476
1552.412582	-3.008000	3.481300	-10.471000	25.731492	0.000271	20.876995
1553.406647	-3.034800	3.479700	-10.560000	25.714745	0.000272	20.889571
1554.407308	-3.001000	3.481300	-10.447000	25.743437	0.000273	20.879510
1555.406446	-2.986800	3.479500	-10.392000	25.751537	0.000274	20.882430
1556.409991	-3.015700	3.480200	-10.495000	25.814141	0.000274	20.868029
1557.406547	-3.005000	3.479400	-10.455000	25.776303	0.000270	20.867479
1558.406416	-2.999500	3.479300	-10.435000	25.764921	0.000272	20.873116
1559.405021	-3.007800	3.477800	-10.460000	25.797241	0.000272	20.862907
1560.407573	-3.010500	3.478800	-10.471000	25.766954	0.000272	20.877528
1561.407001	-2.995500	3.476800	-10.414000	25.690702	0.000273	20.882017
1562.406862	-3.007500	3.477300	-10.458000	25.678253	0.000271	20.892746
1563.406409	-2.988800	3.478300	-10.394000	25.700761	0.000268	20.867466
1564.406715	-2.988300	3.476900	-10.389000	25.748040	0.000269	20.856160
1565.408032	-2.976800	3.477900	-10.352000	25.772511	0.000270	20.866515
1566.407047	-2.997000	3.476700	-10.419000	25.816308	0.000270	20.880636
1567.411289	-2.995600	3.475700	-10.410000	25.825150	0.000270	20.865337
1568.408228	-2.991400	3.475400	-10.395000	25.817746	0.000268	20.866434
1569.412989	-2.982000	3.476800	-10.367000	25.859156	0.000271	20.856350
1570.410974	-3.024000	3.475000	-10.506000	25.849042	0.000269	20.844294
1571.409353	-2.992500	3.475600	-10.400000	25.779505	0.000267	20.877332
1572.411640	-2.988700	3.475200	-10.385000	25.791974	0.000268	20.878952
1573.411965	-2.991000	3.474100	-10.390000	25.782856	0.000267	20.889706
1574.409415	-2.989200	3.474000	-10.383000	25.794827	0.000267	20.852896
1575.412270	-3.011600	3.474100	-10.462000	25.819445	0.000265	20.853918
1576.413018	-2.975300	3.473800	-10.335000	25.815468	0.000264	20.877896
1577.410875	-3.013000	3.471800	-10.460000	25.769405	0.000268	20.873352
1578.414377	-2.998600	3.473400	-10.415000	25.783566	0.000265	20.868610
1579.413340	-2.982300	3.472100	-10.354000	25.807140	0.000266	20.865264
1580.411950	-3.000000	3.472700	-10.417000	25.804704	0.000266	20.874670
1581.411467	-2.997200	3.472500	-10.407000	25.833296	0.000264	20.845072
1582.412071	-3.015200	3.469800	-10.461000	25.827927	0.000263	20.852955
1583.415097	-3.023900	3.470900	-10.494000	25.860792	0.000266	20.863683
1584.411538	-3.007700	3.470900	-10.437000	25.855176	0.000263	20.871318
1585.412078	-2.958900	3.471100	-10.270000	25.836145	0.000260	20.846985
1586.413888	-2.986400	3.470200	-10.363000	25.780691	0.000262	20.867145
1587.413002	-2.984900	3.469900	-10.355000	25.796318	0.000264	20.851549
1588.411992	-2.993600	3.469500	-10.386000	25.843468	0.000262	20.860031
1589.413755	-3.012900	3.469200	-10.452000	25.805978	0.000262	20.863622
1590.414257	-3.011600	3.467900	-10.443000	25.857101	0.000263	20.869458
1591.414637	-3.019200	3.469000	-10.473000	25.895829	0.000262	20.851939
1592.413790	-2.973200	3.469300	-10.314000	25.909167	0.000262	20.870079
1593.413672	-2.986000	3.468600	-10.356000	25.890260	0.000261	20.860570
1594.413711	-2.996400	3.466500	-10.386000	25.828873	0.000260	20.850585
1595.413426	-2.972100	3.467300	-10.304000	25.807979	0.000260	20.851882
1596.412892	-2.993100	3.466400	-10.374000	25.779753	0.000260	20.860988
1597.414064	-3.003000	3.467500	-10.413000	25.784049	0.000260	20.842070
1598.416465	-3.012500	3.465900	-10.440000	25.819896	0.000257	20.868594
1599.414754	-3.024900	3.465800	-10.483000	25.823820	0.000258	20.845984
1600.413672	-3.010300	3.466200	-10.434000	25.837880	0.000258	20.850151
1601.416361	-2.991900	3.465500	-10.368000	25.852957	0.000258	20.845856
1602.415661	-2.983600	3.465300	-10.339000	25.877052	0.000258	20.837344
1603.414625	-2.989600	3.465700	-10.360000	25.855885	0.000258	20.838366
1604.420412	-2.997400	3.464200	-10.383000	25.806595	0.000255	20.855234
1605.418221	-2.986700	3.463800	-10.345000	25.779140	0.000256	20.855157
1606.415035	-3.003000	3.462200	-10.396000	25.766020	0.000258	20.846245
1607.418866	-2.988900	3.462800	-10.349000	25.780428	0.000257	20.862614
1608.413474	-3.010300	3.462600	-10.422000	25.786861	0.000257	20.850584
1609.414307	-3.023800	3.462600	-10.469000	25.781444	0.000256	20.847988
1610.415534	-3.000300	3.463200	-10.390000	25.751628	0.000256	20.858815
1611.417481	-2.995400	3.460800	-10.365000	25.753689	0.000253	20.831015
1612.415655	-3.006200	3.460700	-10.402000	25.714208	0.000254	20.845412
1613.418024	-2.982500	3.461600	-10.323000	25.715896	0.000256	20.846633
1614.417974	-2.986100	3.460900	-10.333000	25.702976	0.000255	20.860682
1615.421944	-2.994900	3.459900	-10.362000	25.657082	0.000256	20.863425
1616.420138	-3.014400	3.459000	-10.425000	25.714078	0.000254	20.827264
1617.419117	-2.997400	3.460800	-10.373000	25.763717	0.000253	20.833027
1618.418745	-3.008100	3.459600	-10.406000	25.812036	0.000252	20.860699
1619.418823	-3.009400	3.458800	-10.408000	25.770149	0.000253	20.844703
1620.418034	-2.982300	3.460100	-10.318000	25.776134	0.000253	20.853085
1621.419907	-2.984100	3.460000	-10.324000	25.817696	0.000251	20.843152
1622.419150	-3.004600	3.456900	-10.386000	25.827484	0.000251	20.837337
1623.420068	-2.998500	3.458500	-10.370000	25.858460	0.000251	20.840953
1624.421381	-2.978500	3.459400	-10.303000	25.794538	0.000251	20.842648
1625.420064	-3.007200	3.456300	-10.393000	25.752451	0.000251	20.843995
1626.422752	-2.983300	3.456800	-10.312000	25.782908	0.000251	20.859415
1627.422248	-3.010200	3.455700	-10.401000	25.767827	0.000253	20.825776
1628.419448	-2.988300	3.456100	-10.327000	25.745291	0.000253	20.832062
1629.420949	-2.994500	3.455600	-10.347000	25.747252	0.000249	20.843989
1630.422230	-2.991800	3.456000	-10.338000	25.740070	0.000249	20.825397
1631.426197	-3.005400	3.455600	-10.383000	25.759623	0.000251	20.837923
1632.423713	-3.012400	3.454900	-10.407000	25.823966	0.000250	20.822424
1633.421822	-2.986200	3.455200	-10.317000	25.816189	0.000249	20.842112
1634.424910	-2.992100	3.454500	-10.336000	25.791493	0.000250	20.855237
1635.433754	-2.989800	3.454900	-10.329000	25.756437	0.000250	20.841836
1636.422929	-2.986100	3.454700	-10.315000	25.742944	0.000247	20.846300
1637.423468	-2.982400	3.454800	-10.303000	25.724657	0.000250	20.845476
1638.423532	-2.998400	3.453100	-10.352000	25.778171	0.000248	20.843753
1639.424829	-3.018300	3.452200	-10.417000	25.830068	0.000248	20.843726
1640.427335	-2.988800	3.452300	-10.317000	25.831782	0.000248	20.837861
1641.424249	-3.010000	3.452200	-10.390000	25.821271	0.000247	20.829200
1642.426250	-2.993900	3.452300	-10.334000	25.832822	0.000247	20.850286
1643.424152	-3.005200	3.451800	-10.372000	25.869935	0.000245	20.825929
1644.429161	-3.015500	3.451100	-10.405000	25.893931	0.000244	20.833438
1645.430066	-3.005600	3.451800	-10.372000	25.881932	0.000247	20.847462
1646.426141	-3.002500	3.451000	-10.361000	25.858827	0.000244	20.842744
1647.429105	-2.997700	3.450600	-10.344000	25.838953	0.000245	20.823254
1648.434481	-2.994000	3.449500	-10.327000	25.811176	0.000245	20.830913
1649.427121	-3.016200	3.449200	-10.402000	25.828864	0.000244	20.859585
1650.430168	-3.010300	3.447900	-10.378000	25.847271	0.000245	20.838248
1651.426076	-3.006300	3.447800	-10.364000	25.848885	0.000244	20.846507
1652.428108	-3.000300	3.449500	-10.348000	25.869057	0.000244	20.817460
1653.431883	-3.003800	3.447700	-10.355000	25.905796	0.000243	20.839194
1654.431721	-3.002700	3.447700	-10.351000	25.837131	0.000241	20.850821
1655.428988	-2.981700	3.448100	-10.280000	25.806176	0.000243	20.848649
1656.430734	-2.980800	3.449000	-10.280000	25.787815	0.000240	20.830207
1657.430466	-2.984600	3.448200	-10.291000	25.771964	0.000240	20.856008
1658.429807	-3.009600	3.446500	-10.372000	25.799216	0.000242	20.839762
1659.429242	-2.998900	3.446500	-10.335000	25.794247	0.000241	20.831926
1660.429778	-3.006600	3.445900	-10.359000	25.779141	0.000240	20.847097
1661.430544	-2.986600	3.445700	-10.290000	25.775811	0.000241	20.856554
1662.432537	-2.996400	3.444900	-10.322000	25.760133	0.000242	20.830375
1663.432722	-2.995000	3.446200	-10.321000	25.762392	0.000241	20.847343
1664.431458	-2.999200	3.446000	-10.334000	25.789769	0.000241	20.830747
1665.431910	-2.990400	3.445500	-10.303000	25.813246	0.000240	20.866181
1666.432337	-2.996000	3.442800	-10.314000	25.841366	0.000240	20.861713
1667.433138	-3.027700	3.442600	-10.421000	25.877685	0.000239	20.850308
1668.431754	-2.992100	3.444400	-10.305000	25.861810	0.000240	20.843370
1669.434246	-3.015300	3.443500	-10.382000	25.798186	0.000238	20.839675
1670.431106	-3.016600	3.442100	-10.383000	25.787925	0.000237	20.840748
1671.432514	-2.977800	3.443300	-10.253000	25.792172	0.000237	20.854023
1672.431957	-2.994500	3.442800	-10.309000	25.774681	0.000237	20.850203
1673.433121	-2.978900	3.442700	-10.254000	25.775326	0.000236	20.852274
1674.432587	-3.014900	3.441700	-10.376000	25.790182	0.000236	20.849178
1675.432918	-2.990300	3.442800	-10.293000	25.841109	0.000236	20.858610
1676.432385	-3.010800	3.440700	-10.359000	25.867591	0.000239	20.847280
1677.432590	-2.986400	3.441400	-10.277000	25.903213	0.000235	20.838021
1678.432036	-2.998000	3.440900	-10.315000	25.920252	0.000236	20.855139
1679.435204	-3.020200	3.439200	-10.386000	25.899460	0.000236	20.857484
1680.433416	-2.998800	3.440800	-10.318000	25.846570	0.000235	20.853190
1681.435356	-2.980100	3.440700	-10.253000	25.833974	0.000235	20.845279
1682.438502	-3.015100	3.437900	-10.365000	25.866293	0.000233	20.855934
1683.436577	-3.005800	3.439200	-10.335000	25.898065	0.000233	20.864617
1684.438192	-3.005300	3.438100	-10.331000	25.880055	0.000235	20.856007
1685.435220	-3.004200	3.437900	-10.327000	25.853522	0.000236	20.862070
1686.434969	-2.992800	3.438800	-10.290000	25.868650	0.000233	20.878688
1687.435643	-2.988200	3.437600	-10.271000	25.865619	0.000233	20.859049
1688.437035	-3.013900	3.437800	-10.360000	25.904669	0.000234	20.855604
1689.438679	-2.991300	3.436100	-10.277000	25.884621	0.000233	20.882878
1690.437086	-2.987500	3.437500	-10.269000	25.916392	0.000233	20.844623
1691.437668	-2.992400	3.435500	-10.279000	25.855952	0.000230	20.876838
1692.437952	-2.992700	3.435600	-10.281000	25.863353	0.000231	20.867678
1693.437342	-3.011900	3.435500	-10.347000	25.806066	0.000230	20.869400
1694.437304	-2.991100	3.434900	-10.273000	25.792251	0.000232	20.864059
1695.438236	-2.988300	3.435300	-10.265000	25.802313	0.000232	20.879854
1696.438493	-3.011800	3.435100	-10.345000	25.813218	0.000229	20.861412
1697.438429	-2.993800	3.434800	-10.283000	25.871349	0.000230	20.847737
1698.441082	-2.997300	3.433800	-10.291000	25.894775	0.000230	20.868898
1699.438526	-2.996300	3.434100	-10.289000	25.927191	0.000229	20.882970
1700.437879	-3.015300	3.432900	-10.349000	25.867646	0.000230	20.878154
1701.439646	-3.007200	3.432800	-10.323000	25.861683	0.000228	20.882121
1702.441782	-3.011300	3.432400	-10.335000	25.898175	0.000228	20.863779
1703.440646	-3.043900	3.430700	-10.441000	25.890921	0.000228	20.866923
1704.440915	-3.003800	3.433100	-10.311000	25.847645	0.000229	20.874657
1705.443486	-3.030300	3.430600	-10.394000	25.834279	0.000228	20.874507
1706.442322	-2.996300	3.432200	-10.283000	25.789759	0.000228	20.874831
1707.448131	-3.000500	3.431700	-10.296000	25.832912	0.000228	20.893995
1708.443222	-2.979800	3.432300	-10.227000	25.871342	0.000226	20.885660
1709.443597	-2.990400	3.431000	-10.259000	25.902145	0.000230	20.906171
1710.448337	-2.999900	3.430500	-10.290000	25.890071	0.000225	20.867966
1711.444341	-2.986600	3.430000	-10.244000	25.915410	0.000227	20.875402
1712.444435	-3.003000	3.429900	-10.299000	25.870470	0.000224	20.880043
1713.444910	-2.997500	3.429000	-10.277000	25.923630	0.000226	20.886505
1714.446166	-3.006500	3.429300	-10.309000	25.926536	0.000224	20.878519
1715.446164	-3.002900	3.429100	-10.296000	25.908725	0.000223	20.883385
1716.447340	-2.986800	3.429100	-10.241000	25.943377	0.000226	20.894015
1717.450404	-2.995100	3.428700	-10.269000	25.901569	0.000225	20.879516
1718.449858	-2.995600	3.428300	-10.268000	25.864605	0.000225	20.879366
1719.449430	-3.020000	3.426600	-10.347000	25.840706	0.000225	20.889023
1720.449971	-3.001000	3.427600	-10.285000	25.856481	0.000222	20.895385
1721.446344	-3.028700	3.427300	-10.380000	25.821999	0.000222	20.874973
1722.449303	-2.993700	3.426800	-10.258000	25.828706	0.000223	20.894512
1723.449929	-2.992400	3.425800	-10.251000	25.867211	0.000224	20.883406
1724.448658	-3.005400	3.426200	-10.296000	25.862466	0.000223	20.898553
1725.451189	-3.011500	3.426300	-10.317000	25.857671	0.000223	20.908434
1726.451729	-3.006000	3.425300	-10.296000	25.844951	0.000221	20.903243
1727.450647	-2.999300	3.425600	-10.273000	25.809624	0.000222	20.903792
1728.450369	-2.993100	3.424800	-10.249000	25.840852	0.000220	20.869256
1729.451375	-2.981900	3.425200	-10.213000	25.916048	0.000221	20.902594
1730.454525	-2.994600	3.425300	-10.256000	25.965877	0.000220	20.903816
1731.450292	-2.979100	3.425300	-10.204000	25.922059	0.000220	20.908158
1732.451153	-2.972600	3.423800	-10.176000	25.921313	0.000220	20.909779
1733.457781	-2.990000	3.423600	-10.234000	25.942875	0.000219	20.913896
1734.452525	-3.015900	3.422100	-10.319000	25.953779	0.000219	20.891663
1735.451472	-2.992200	3.422400	-10.240000	25.895180	0.000222	20.890640
1736.452808	-2.999000	3.422400	-10.263000	25.886932	0.000219	20.903690
1737.453118	-3.008100	3.423100	-10.295000	25.886658	0.000218	20.909105
1738.453651	-2.995600	3.421400	-10.248000	25.917859	0.000218	20.915792
1739.454059	-2.998100	3.421200	-10.257000	25.942128	0.000218	20.903665
1740.454521	-3.005400	3.420400	-10.279000	25.928764	0.000218	20.899722
1741.454169	-3.000300	3.420800	-10.262000	25.888869	0.000216	20.893309
1742.453251	-3.019600	3.420500	-10.328000	25.938749	0.000218	20.907856
1743.456830	-3.006700	3.419700	-10.281000	25.983188	0.000217	20.918835
1744.456634	-2.987000	3.419000	-10.212000	26.021961	0.000217	20.915117
1745.457026	-2.983100	3.418900	-10.197000	26.024072	0.000215	20.919134
1746.456125	-2.985600	3.419500	-10.208000	26.009964	0.000215	20.906383
1747.456264	-2.987000	3.418100	-10.209000	26.018608	0.000215	20.919334
1748.455719	-3.014600	3.416600	-10.298000	26.013392	0.000215	20.900819
1749.456816	-2.996300	3.416700	-10.237000	25.996576	0.000216	20.921380
1750.456756	-2.987100	3.418300	-10.209000	25.939171	0.000215	20.917287
1751.464306	-2.993900	3.415600	-10.225000	25.983460	0.000215	20.934754
1752.458403	-2.990300	3.415700	-10.213000	25.948411	0.000214	20.909976
1753.458232	-2.968400	3.416300	-10.140000	25.965576	0.000214	20.923426
1754.457837	-2.982000	3.416800	-10.188000	25.966048	0.000214	20.922952
1755.462450	-3.015800	3.414700	-10.298000	26.009939	0.000215	20.919159
1756.460129	-3.025100	3.415600	-10.331000	26.059267	0.000213	20.918934
1757.459137	-2.987300	3.415200	-10.201000	26.065402	0.000214	20.916090
1758.461761	-2.993900	3.415500	-10.225000	26.095430	0.000212	20.940568
1759.459904	-2.982700	3.414200	-10.182000	26.080528	0.000213	20.936975
1760.458171	-2.992100	3.414800	-10.217000	26.042154	0.000212	20.921180
1761.462638	-2.976700	3.415000	-10.165000	25.959962	0.000213	20.902615
1762.460344	-3.006700	3.413100	-10.261000	25.946027	0.000211	20.904262
1763.460921	-2.991800	3.414500	-10.215000	25.896370	0.000211	20.933083
1764.460699	-3.014500	3.412300	-10.286000	25.884794	0.000213	20.902016
1765.460616	-3.017600	3.412100	-10.296000	25.903301	0.000209	20.947630
1766.460269	-2.992700	3.412200	-10.210000	25.916467	0.000208	20.924349
1767.460089	-2.978600	3.413500	-10.166000	25.942872	0.000212	20.940444
1768.462487	-2.993900	3.412200	-10.214000	25.983088	0.000210	20.930114
1769.461833	-3.006500	3.410700	-10.254000	26.000103	0.000209	20.929191
1770.461321	-3.007400	3.411500	-10.259000	26.010884	0.000208	20.921530
1771.461629	-3.020600	3.410700	-10.301000	26.002041	0.000207	20.915966
1772.460481	-2.999900	3.410600	-10.231000	26.025911	0.000209	20.925249
1773.461234	-2.971900	3.410900	-10.136000	25.980655	0.000208	20.936677
1774.462686	-3.005300	3.408700	-10.243000	25.991684	0.000207	20.931163
1775.465591	-3.011800	3.409300	-10.267000	25.947047	0.000207	20.937526
1776.462166	-3.012800	3.407700	-10.266000	25.972533	0.000208	20.941793
1777.464029	-2.997900	3.408700	-10.218000	26.005743	0.000207	20.918737
1778.467186	-3.014300	3.408800	-10.274000	25.946253	0.000206	20.932935
1779.463553	-3.004100	3.407800	-10.237000	25.983364	0.000206	20.950776
1780.462934	-2.998800	3.407800	-10.218000	26.005794	0.000210	20.933959
1781.464406	-3.022800	3.407500	-10.300000	26.043474	0.000204	20.959485
1782.464872	-3.015000	3.408500	-10.276000	25.980036	0.000208	20.928944
1783.464885	-2.999300	3.407700	-10.219000	25.972783	0.000205	20.955793
1784.465114	-3.003700	3.407900	-10.235000	26.014886	0.000206	20.947834
1785.468638	-2.977600	3.406800	-10.143000	26.044966	0.000207	20.964776
1786.465006	-3.003000	3.406600	-10.229000	26.073728	0.000205	20.949581
1787.465903	-3.002300	3.406200	-10.226000	26.082396	0.000203	20.948808
1788.467269	-3.018500	3.405700	-10.279000	26.071270	0.000203	20.962282
1789.467867	-3.007700	3.405100	-10.241000	26.092804	0.000204	20.954523
1790.466662	-3.008600	3.404300	-10.242000	26.077232	0.000203	20.928922
1791.467948	-3.009100	3.404600	-10.244000	26.051475	0.000207	20.955671
1792.467373	-2.988900	3.405300	-10.177000	26.023011	0.000202	20.956944
1793.467265	-3.018100	3.403900	-10.273000	25.976736	0.000204	20.955972
1794.469157	-3.021700	3.404000	-10.285000	25.918909	0.000204	20.969471
1795.468270	-3.006100	3.402800	-10.228000	25.974452	0.000201	20.956995
1796.470093	-2.994500	3.402900	-10.190000	26.007588	0.000203	20.967051
1797.472042	-2.967000	3.403000	-10.096000	26.018170	0.000202	20.954451
1798.468457	-3.004300	3.400800	-10.216000	26.020903	0.000201	20.952930
1799.468561	-2.995600	3.402400	-10.191000	26.029422	0.000201	20.968600
1800.468561	-3.017100	3.401400	-10.261000	26.053740	0.000201	20.960791
1801.468666	-3.025500	3.400600	-10.288000	26.087072	0.000203	20.968202
1802.468731	-3.012300	3.400300	-10.242000	26.101205	0.000202	20.949214
1803.468155	-3.017600	3.400600	-10.261000	26.122365	0.000200	20.958621
1804.470106	-3.019800	3.400400	-10.268000	26.057542	0.000200	20.987367
1805.470985	-3.000500	3.400200	-10.201000	26.084541	0.000200	20.969452
1806.472013	-2.999600	3.399700	-10.197000	26.128676	0.000200	20.967805
1807.474057	-2.994500	3.399200	-10.178000	26.167346	0.000202	20.968255
1808.471624	-3.001500	3.400200	-10.205000	26.213489	0.000199	20.968630
1809.472799	-2.985700	3.398700	-10.147000	26.191784	0.000198	20.965786
1810.476373	-2.986700	3.399600	-10.153000	26.186048	0.000198	20.967134
1811.473240	-2.983700	3.398800	-10.140000	26.094603	0.000198	20.981457
1812.473834	-2.987300	3.398500	-10.151000	26.043638	0.000197	20.974821
1813.477111	-3.001800	3.397300	-10.197000	26.016515	0.000197	20.979812
1814.472948	-2.991400	3.397600	-10.163000	26.033679	0.000198	20.959602
1815.473809	-2.989000	3.398100	-10.156000	26.038896	0.000199	20.985228
1816.487750	-2.974300	3.397200	-10.103000	25.973918	0.000196	20.978741
1817.473080	-3.016100	3.396400	-10.243000	25.980476	0.000197	20.989595
1818.473874	-2.997800	3.396200	-10.181000	26.031918	0.000195	20.978218
1819.476044	-3.029800	3.396200	-10.289000	26.056980	0.000196	20.996283
1820.475041	-2.983800	3.396200	-10.133000	26.039943	0.000196	20.984857
1821.475224	-2.993000	3.395200	-10.160000	26.043198	0.000195	20.984334
1822.480360	-2.999200	3.395100	-10.182000	26.069551	0.000197	20.995163
1823.475153	-2.972300	3.394600	-10.089000	26.110607	0.000194	20.975253
1824.476250	-2.963300	3.395600	-10.060000	26.087038	0.000194	20.989027
1825.479268	-2.990300	3.393700	-10.147000	26.128093	0.000195	20.989027
1826.474788	-2.996500	3.393500	-10.168000	26.156009	0.000194	21.008066
1827.475732	-3.007600	3.392600	-10.203000	26.171284	0.000195	20.996390
1828.481164	-3.003500	3.392500	-10.188000	26.170713	0.000194	21.012409
1829.477466	-3.004700	3.391900	-10.190000	26.150648	0.000193	20.998887
1830.477775	-2.995800	3.394100	-10.167000	26.079641	0.000193	21.002456
1831.479865	-3.014800	3.391800	-10.225000	26.088037	0.000193	20.987187
1832.476107	-3.018300	3.391000	-10.234000	26.095712	0.000193	20.981148
1833.475748	-2.995000	3.391200	-10.156000	26.060618	0.000193	20.996146
1834.481300	-3.017800	3.390400	-10.231000	26.032030	0.000192	21.007723
1835.476871	-2.979700	3.390600	-10.101000	26.029174	0.000190	21.014336
1836.476317	-3.010200	3.389100	-10.201000	26.049120	0.000190	21.012565
1837.480407	-3.010500	3.390600	-10.205000	26.025401	0.000192	20.991582
1838.475774	-2.973500	3.391000	-10.082000	26.043881	0.000192	21.006354
1839.476155	-2.981900	3.390800	-10.111000	26.021379	0.000191	20.990387
1840.477519	-3.013600	3.388600	-10.210000	26.065492	0.000189	21.014790
1841.476410	-2.997800	3.389400	-10.160000	26.075155	0.000190	21.006956
1842.476420	-3.026100	3.389300	-10.255000	26.079005	0.000190	21.006558
1843.476408	-3.017800	3.387900	-10.223000	26.043041	0.000189	20.985599
1844.477704	-3.007000	3.387300	-10.185000	26.021656	0.000189	21.016739
1845.476740	-3.032600	3.386500	-10.268000	26.052035	0.000190	21.023552
1846.476517	-3.010200	3.388800	-10.200000	26.063908	0.000188	20.998502
1847.476513	-2.989900	3.388300	-10.130000	26.058643	0.000189	21.010280
1848.479095	-2.994300	3.386600	-10.139000	26.000075	0.000187	21.019712
1849.478405	-3.008600	3.385500	-10.185000	26.018432	0.000187	21.034833
1850.478642	-3.016800	3.386300	-10.215000	26.058349	0.000189	21.025154
1851.478794	-3.009000	3.386200	-10.188000	26.067365	0.000189	21.012878
1852.477824	-3.010800	3.386300	-10.194000	26.114730	0.000189	21.008787
1853.483105	-2.976800	3.385100	-10.076000	26.097569	0.000186	21.015251
1854.481050	-2.989700	3.386200	-10.123000	26.107529	0.000187	21.020042
1855.482275	-2.985600	3.384200	-10.103000	26.115950	0.000187	21.031346
1856.481839	-3.005400	3.384100	-10.170000	26.162196	0.000185	21.033718
1857.480475	-3.002300	3.383400	-10.157000	26.128991	0.000184	21.034492
1858.482720	-3.010200	3.384300	-10.186000	26.108750	0.000186	21.035017
1859.482319	-2.982100	3.384000	-10.091000	26.094520	0.000183	21.017877
1860.480844	-2.998000	3.382800	-10.141000	26.084015	0.000184	21.006375
1861.482809	-3.019900	3.383200	-10.216000	26.131776	0.000186	21.016905
1862.482133	-3.011900	3.382300	-10.186000	26.188378	0.000183	21.001238
1863.482377	-3.003200	3.383500	-10.161000	26.189223	0.000183	21.011569
1864.482830	-3.018400	3.381000	-10.204000	26.259081	0.000185	20.999268
1865.486292	-2.990700	3.380800	-10.110000	26.258438	0.000183	21.004311
1866.483724	-2.987000	3.381000	-10.098000	26.194566	0.000183	21.012196
1867.483557	-2.994200	3.380700	-10.122000	26.152744	0.000180	20.996727
1868.493016	-2.991200	3.380100	-10.109000	26.131809	0.000183	21.008879
1869.485159	-2.994700	3.380500	-10.122000	26.082038	0.000182	20.999649
1870.485288	-2.965500	3.380600	-10.024000	26.052979	0.000180	20.984204
1871.486851	-3.016700	3.380400	-10.196000	26.057823	0.000180	20.983856
1872.484585	-2.991000	3.378600	-10.105000	26.071733	0.000182	21.000200
1873.486609	-2.989900	3.378900	-10.101000	26.102333	0.000181	20.996334
1874.489728	-2.984000	3.378200	-10.079000	26.062371	0.000181	21.016395
1875.489594	-3.001600	3.378900	-10.141000	26.083510	0.000180	20.994491
1876.488455	-2.997200	3.378800	-10.126000	26.091707	0.000180	20.989925
1877.492435	-2.980200	3.377700	-10.066000	26.076731	0.000179	20.987206
1878.490798	-2.990300	3.378500	-10.102000	26.105493	0.000181	20.991923
1879.488733	-3.006200	3.376900	-10.151000	26.173991	0.000179	21.005747
1880.490467	-3.011800	3.377300	-10.170000	26.200540	0.000178	20.979798
1881.490149	-2.984100	3.376800	-10.076000	26.224306	0.000178	20.985662
1882.491806	-3.015600	3.377100	-10.183000	26.252644	0.000177	20.999438
1883.490316	-3.027800	3.374500	-10.217000	26.255277	0.000177	20.981224
1884.490746	-2.992300	3.374400	-10.095000	26.254409	0.000177	20.986514
1885.494487	-2.982400	3.375800	-10.066000	26.234195	0.000177	20.978531
1886.491575	-2.972200	3.376900	-10.035000	26.255826	0.000178	20.988413
1887.494542	-3.015000	3.374500	-10.173000	26.256026	0.000176	20.994302
1888.493077	-3.006500	3.373400	-10.141000	26.205590	0.000175	20.984872
1889.492993	-2.999300	3.374500	-10.120000	26.237676	0.000176	20.996250
1890.493744	-3.025300	3.374300	-10.206000	26.242669	0.000175	20.956230
1891.492600	-2.992600	3.373400	-10.094000	26.211156	0.000176	20.969605
1892.493329	-2.987000	3.374200	-10.078000	26.181530	0.000176	20.974921
1893.493805	-3.001200	3.372000	-10.119000	26.194196	0.000174	20.990017
1894.496312	-3.010600	3.371600	-10.150000	26.253502	0.000176	20.974700
1895.492534	-3.007200	3.371800	-10.140000	26.256110	0.000172	20.958831
1896.494111	-2.999100	3.372600	-10.114000	26.300463	0.000173	20.964996
1897.492897	-3.001600	3.370800	-10.117000	26.236693	0.000174	20.971085
1898.494283	-3.028200	3.370300	-10.205000	26.252266	0.000173	20.980569
1899.494904	-3.028400	3.369600	-10.204000	26.228003	0.000173	20.957613
1900.494569	-2.995500	3.370200	-10.095000	26.198230	0.000173	20.987907
1901.497533	-3.009600	3.370600	-10.143000	26.189167	0.000172	20.961734
1902.496284	-3.016100	3.369600	-10.163000	26.219392	0.000172	20.972664
1903.496799	-2.987000	3.369200	-10.063000	26.209609	0.000172	20.948139
1904.497243	-3.020600	3.369200	-10.176000	26.274922	0.000170	20.973940
1905.496637	-3.000100	3.369300	-10.107000	26.276686	0.000171	20.976187
1906.498969	-3.018700	3.368800	-10.169000	26.345622	0.000172	20.957750
1907.498868	-2.993300	3.369100	-10.083000	26.318109	0.000169	20.956653
1908.498375	-2.997800	3.368700	-10.098000	26.299016	0.000170	20.974920
1909.499057	-2.994600	3.368400	-10.086000	26.234775	0.000169	20.962520
1910.501552	-3.000500	3.367400	-10.102000	26.238899	0.000169	20.959079
1911.502289	-2.970700	3.367200	-10.001000	26.228917	0.000168	20.974649
1912.501515	-2.985300	3.367900	-10.053000	26.219010	0.000168	20.954266
1913.502528	-3.005900	3.365600	-10.115000	26.203168	0.000167	20.972008
1914.502982	-2.988800	3.366200	-10.059000	26.231878	0.000168	20.965772
1915.499504	-2.998000	3.365900	-10.090000	26.198775	0.000170	20.954320
1916.500156	-2.993800	3.366400	-10.078000	26.195772	0.000169	20.967896
1917.504167	-2.995100	3.365900	-10.080000	26.205062	0.000167	20.930769
1918.499673	-2.994700	3.365600	-10.078000	26.226992	0.000166	20.957545
1919.501578	-2.988700	3.364800	-10.055000	26.236157	0.000165	20.943523
1920.503157	-2.986300	3.364900	-10.048000	26.264742	0.000166	20.951385
1921.501157	-2.992800	3.363500	-10.066000	26.238619	0.000165	20.956901
1922.501588	-2.984300	3.364000	-10.036000	26.243165	0.000167	20.951038
1923.504218	-2.999200	3.362700	-10.084000	26.246445	0.000165	20.968557
1924.503114	-3.004600	3.363400	-10.105000	26.201473	0.000164	20.970780
1925.502336	-3.017000	3.362600	-10.143000	26.220001	0.000166	20.949572
1926.504009	-2.998800	3.362700	-10.084000	26.161418	0.000165	20.954240
1927.506399	-3.004800	3.361400	-10.099000	26.198101	0.000164	20.963125
1928.505286	-3.007700	3.362000	-10.111000	26.184219	0.000165	20.950600
1929.505330	-3.002000	3.362100	-10.092000	26.224950	0.000163	20.966397
1930.507167	-2.989600	3.362200	-10.051000	26.284427	0.000165	20.957416
1931.511273	-2.990800	3.362300	-10.055000	26.326942	0.000162	20.952728
1932.507174	-3.025000	3.360500	-10.165000	26.349938	0.000165	20.963035
1933.508304	-2.988900	3.361800	-10.048000	26.283961	0.000163	20.934192
1934.510353	-2.994700	3.360000	-10.061000	26.237079	0.000162	20.952035
1935.508405	-2.991200	3.358900	-10.046000	26.250838	0.000165	20.947844
1936.513176	-3.008400	3.358300	-10.102000	26.273686	0.000163	20.962268
1937.513226	-3.010000	3.359100	-10.110000	26.330703	0.000162	20.935173
1938.509481	-2.991100	3.358000	-10.043000	26.342474	0.000160	20.943683
1939.517900	-3.002500	3.358700	-10.084000	26.368102	0.000162	20.921553
1940.512890	-2.992300	3.358600	-10.049000	26.366540	0.000160	20.968814
1941.510577	-3.012000	3.357900	-10.113000	26.382358	0.000160	20.945834
1942.515934	-3.019200	3.357100	-10.134000	26.398450	0.000161	20.937353
1943.514479	-2.983400	3.357700	-10.017000	26.412382	0.000158	20.946139
1944.513343	-3.012700	3.355600	-10.108000	26.405456	0.000159	20.972365
1945.511431	-3.021800	3.355400	-10.139000	26.437537	0.000159	20.940128
1946.523848	-2.958400	3.358100	-9.933800	26.361386	0.000160	20.925234
1947.510885	-3.027400	3.356000	-10.159000	26.289277	0.000160	20.945222
1948.511178	-2.997200	3.355300	-10.056000	26.272219	0.000156	20.936142
1949.510756	-3.023100	3.354300	-10.138000	26.330627	0.000159	20.940311
1950.511811	-3.002200	3.353900	-10.068000	26.347365	0.000158	20.941486
1951.510571	-2.982400	3.354900	-10.005000	26.375873	0.000158	20.952592
1952.510341	-2.981600	3.354600	-10.001000	26.391891	0.000158	20.944510
1953.514135	-2.972400	3.355300	-9.973100	26.381663	0.000156	20.927594
1954.512038	-2.976100	3.353600	-9.979500	26.330291	0.000160	20.930966
1955.513306	-3.018800	3.354300	-10.125000	26.312638	0.000156	20.945465
1956.515594	-3.003900	3.353400	-10.073000	26.313285	0.000157	20.934264
1957.515145	-2.999600	3.353600	-10.058000	26.291660	0.000155	20.922963
1958.516402	-3.006000	3.351700	-10.074000	26.312173	0.000156	20.956851
1959.515362	-3.010500	3.353000	-10.093000	26.293651	0.000156	20.945824
1960.512902	-3.009900	3.351200	-10.086000	26.304157	0.000155	20.941684
1961.513700	-2.983300	3.352500	-10.001000	26.334330	0.000157	20.925069
1962.513984	-2.986500	3.352300	-10.010000	26.342006	0.000155	20.930886
1963.513684	-2.989600	3.350500	-10.016000	26.332224	0.000156	20.931013
1964.514436	-2.980500	3.351700	-9.989100	26.325647	0.000155	20.955693
1965.514026	-2.991100	3.350600	-10.021000	26.343701	0.000154	20.950131
1966.513246	-2.986600	3.351400	-10.008000	26.375138	0.000153	20.939053
1967.514228	-3.017500	3.349300	-10.105000	26.405261	0.000155	20.950835
1968.513734	-2.996700	3.349700	-10.037000	26.359675	0.000153	20.946745
1969.513587	-3.010200	3.349800	-10.082000	26.368368	0.000153	20.936991
1970.515055	-3.007200	3.348400	-10.069000	26.342051	0.000151	20.929034
1971.515422	-3.003200	3.349200	-10.057000	26.313520	0.000154	20.945404
1972.515422	-3.018800	3.346600	-10.101000	26.390002	0.000153	20.938346
1973.517569	-3.015700	3.348500	-10.098000	26.397803	0.000150	20.953296
1974.516007	-3.017600	3.346300	-10.096000	26.380871	0.000151	20.942444
1975.515151	-3.005700	3.347700	-10.062000	26.388620	0.000151	20.934586
1976.515969	-3.011000	3.345400	-10.072000	26.382241	0.000151	20.942398
1977.514813	-3.013600	3.347300	-10.087000	26.362579	0.000151	20.928329
1978.518347	-2.979600	3.346700	-9.971400	26.383016	0.000152	20.945074
1979.515854	-3.006500	3.345600	-10.057000	26.398762	0.000152	20.930081
1980.517425	-3.001000	3.346800	-10.043000	26.392359	0.000148	20.922698
1981.520950	-2.988900	3.345000	-9.997000	26.419276	0.000150	20.939792
1982.517074	-3.010700	3.344000	-10.067000	26.479488	0.000147	20.923026
1983.517463	-2.993300	3.345100	-10.011000	26.504318	0.000148	20.934707
1984.524683	-3.012500	3.343100	-10.070000	26.535776	0.000150	20.908484
1985.517627	-3.001000	3.344300	-10.035000	26.491438	0.000146	20.925081
1986.516393	-3.017800	3.342800	-10.087000	26.431877	0.000147	20.917372
1987.522591	-2.995600	3.343200	-10.014000	26.408192	0.000147	20.895466
1988.519560	-2.983600	3.343800	-9.975800	26.448021	0.000145	20.925063
1989.521940	-2.978800	3.342900	-9.957300	26.403654	0.000147	20.905603
1990.519384	-2.998200	3.342000	-10.019000	26.382948	0.000146	20.931731
1991.527115	-3.011800	3.341600	-10.064000	26.403510	0.000144	20.933904
1992.521360	-3.012400	3.341600	-10.066000	26.420495	0.000147	20.918735
1993.520184	-3.007200	3.340900	-10.046000	26.430850	0.000145	20.918237
1994.521659	-3.004200	3.340900	-10.036000	26.461143	0.000146	20.923080
1995.522955	-2.979600	3.342300	-9.957000	26.492256	0.000147	20.920688
1996.526937	-2.999700	3.340300	-10.019000	26.524981	0.000141	20.910909
1997.524008	-2.986100	3.340300	-9.973500	26.523742	0.000145	20.936213
1998.526915	-2.974400	3.340200	-9.934000	26.451920	0.000144	20.910966
1999.524925	-2.979600	3.339700	-9.950300	26.462498	0.000143	20.936768
2000.524329	-2.993400	3.338600	-9.993300	26.469652	0.000141	20.933054
2001.521292	-2.975700	3.339900	-9.937800	26.441349	0.000142	20.927840
2002.521737	-2.999000	3.338200	-10.010000	26.494310	0.000144	20.903788
2003.524025	-3.003000	3.337700	-10.022000	26.555412	0.000141	20.907833
2004.526834	-2.993200	3.338000	-9.989800	26.548810	0.000143	20.916843
2005.523079	-3.005800	3.337800	-10.032000	26.558893	0.000141	20.916074
2006.525436	-3.007500	3.337800	-10.037000	26.523096	0.000139	20.916600
2007.525069	-3.021300	3.337200	-10.082000	26.479179	0.000143	20.924139
2008.526945	-2.993500	3.337400	-9.989900	26.470193	0.000142	20.936442
2009.525589	-3.012500	3.336900	-10.051000	26.469626	0.000139	20.916908
2010.523943	-3.002700	3.336600	-10.017000	26.464912	0.000139	20.911696
2011.524928	-2.985800	3.336100	-9.960300	26.462260	0.000141	20.904290
2012.525877	-2.976900	3.335900	-9.928800	26.467276	0.000137	20.915495
2013.529834	-3.004400	3.335200	-10.020000	26.504445	0.000138	20.937205
2014.529720	-2.986000	3.335300	-9.957300	26.459162	0.000137	20.909711
2015.528296	-2.996100	3.334800	-9.990500	26.500379	0.000138	20.926008
2016.527781	-3.000500	3.334000	-10.002000	26.503361	0.000137	20.916678
2017.531380	-3.004000	3.333700	-10.013000	26.533405	0.000138	20.916531
2018.529318	-2.990900	3.334300	-9.971500	26.547136	0.000138	20.910894
2019.532493	-3.023200	3.333200	-10.076000	26.596071	0.000135	20.906506
2020.532516	-2.980500	3.333900	-9.936000	26.598383	0.000136	20.902192
2021.531811	-3.011300	3.332000	-10.033000	26.630906	0.000139	20.910229
2022.530059	-2.995100	3.332800	-9.981800	26.566115	0.000137	20.896782
2023.533842	-3.001500	3.330500	-9.995300	26.521380	0.000136	20.921513
2024.530495	-2.998800	3.332200	-9.992200	26.514826	0.000135	20.916822
2025.530717	-2.970800	3.332400	-9.898400	26.541173	0.000136	20.888306
2026.531776	-2.995400	3.329700	-9.972900	26.581169	0.000138	20.910965
2027.533608	-3.025300	3.328900	-10.070000	26.551132	0.000135	20.909695
2028.529588	-2.990700	3.330100	-9.957800	26.499098	0.000135	20.911919
2029.531218	-3.027700	3.330000	-10.081000	26.485071	0.000133	20.904459
2030.530591	-3.014300	3.329300	-10.034000	26.480929	0.000132	20.916416
2031.529619	-3.014800	3.328900	-10.034000	26.526788	0.000133	20.904191
2032.534158	-2.986000	3.328400	-9.938300	26.580491	0.000135	20.889423
2033.531712	-2.991300	3.328900	-9.957000	26.550801	0.000133	20.894665
2034.535100	-2.986700	3.329400	-9.943000	26.554849	0.000132	20.897785
2035.535117	-3.001200	3.328100	-9.987500	26.600282	0.000132	20.902679
2036.535013	-2.994000	3.328500	-9.965400	26.661204	0.000135	20.900859
2037.538468	-2.998000	3.328500	-9.978600	26.690400	0.000132	20.910770
2038.534005	-3.022000	3.327000	-10.053000	26.668160	0.000132	20.900740
2039.535165	-3.006800	3.326700	-10.002000	26.666948	0.000133	20.917539
2040.531501	-3.003600	3.326400	-9.989600	26.642672	0.000130	20.879860
2041.534534	-3.018200	3.325000	-10.035000	26.589527	0.000131	20.907513
2042.544739	-2.989900	3.327200	-9.947000	26.566291	0.000130	20.883684
2043.545096	-3.016800	3.324200	-10.027000	26.538563	0.000130	20.892321
2044.534605	-3.007000	3.325100	-9.997800	26.578235	0.000131	20.898060
2045.536677	-3.006000	3.324200	-9.991800	26.575731	0.000130	20.896018
2046.543926	-3.016100	3.324000	-10.025000	26.584226	0.000127	20.912616
2047.535584	-2.985800	3.325700	-9.928800	26.654359	0.000130	20.912944
2048.536241	-2.987800	3.324200	-9.930200	26.693556	0.000130	20.901615
2049.533953	-2.988500	3.323600	-9.932000	26.638377	0.000128	20.897352
2050.537696	-2.984600	3.323800	-9.919000	26.623832	0.000128	20.901697
2051.545151	-3.009600	3.323100	-10.000000	26.646424	0.000128	20.881736
2052.540556	-2.994600	3.323200	-9.950700	26.596110	0.000127	20.880942
2053.535153	-3.016800	3.321800	-10.020000	26.581986	0.000127	20.875754
2054.538416	-3.022200	3.320300	-10.033000	26.587376	0.000126	20.895396
2055.539456	-2.996400	3.322200	-9.953700	26.611359	0.000126	20.879203
2056.535574	-3.007300	3.320500	-9.984200	26.559104	0.000126	20.874090
2057.536041	-2.999500	3.321100	-9.961300	26.562361	0.000125	20.893957
2058.534315	-2.993700	3.321200	-9.941800	26.601190	0.000126	20.886049
2059.534546	-2.999900	3.320500	-9.959800	26.635874	0.000126	20.902422
2060.539505	-2.986000	3.319600	-9.911700	26.681628	0.000126	20.888203
2061.537637	-3.000100	3.320600	-9.961300	26.678354	0.000124	20.874007
2062.536154	-3.010700	3.319200	-9.991800	26.626379	0.000123	20.891455
2063.544841	-3.018700	3.316900	-10.012000	26.591922	0.000126	20.887637
2064.540250	-3.031100	3.317100	-10.053000	26.653615	0.000126	20.874266
2065.540970	-3.033100	3.317400	-10.061000	26.669927	0.000124	20.874544
2066.538472	-2.984700	3.318900	-9.904400	26.649154	0.000125	20.895859
2067.541244	-3.002400	3.316200	-9.956100	26.623440	0.000124	20.871433
2068.541254	-3.008900	3.317300	-9.980400	26.614755	0.000123	20.874081
2069.538235	-3.027000	3.317000	-10.040000	26.618308	0.000122	20.864378
2070.543844	-2.996800	3.316300	-9.937600	26.685212	0.000120	20.883272
2071.540475	-3.012400	3.316200	-9.987600	26.653243	0.000122	20.887167
2072.544586	-3.019000	3.316100	-10.010000	26.614544	0.000123	20.852534
2073.541313	-2.999100	3.314100	-9.939100	26.659034	0.000121	20.870705
2074.543258	-2.986700	3.314800	-9.898900	26.660601	0.000124	20.867065
2075.540386	-2.995600	3.313900	-9.926800	26.635136	0.000122	20.876552
2076.545964	-3.019300	3.313400	-10.003000	26.614684	0.000122	20.880174
2077.544171	-2.996300	3.314100	-9.929500	26.653959	0.000121	20.875561
2078.541734	-3.003200	3.314500	-9.953400	26.706114	0.000119	20.888164
2079.546464	-3.030700	3.312700	-10.039000	26.656152	0.000118	20.884403
2080.545393	-2.992400	3.313600	-9.914700	26.680208	0.000120	20.896732
2081.542824	-2.991900	3.313500	-9.913100	26.721517	0.000118	20.867141
2082.543736	-3.008300	3.312400	-9.964300	26.710922	0.000119	20.869290
2083.546287	-3.032400	3.310100	-10.036000	26.646064	0.000121	20.891804
2084.544813	-2.998000	3.312200	-9.928600	26.668728	0.000117	20.854374
2085.544005	-3.021500	3.310800	-10.003000	26.713985	0.000119	20.872370
2086.546298	-3.008100	3.312100	-9.961500	26.706292	0.000118	20.893083
2087.549745	-3.006600	3.309200	-9.948500	26.706816	0.000119	20.862792
2088.547472	-3.005900	3.311400	-9.953400	26.641759	0.000118	20.866141
2089.546649	-3.020800	3.309600	-9.996100	26.642160	0.000118	20.869864
2090.548501	-3.013400	3.310200	-9.974000	26.641169	0.000117	20.869816
2091.546712	-2.996700	3.311100	-9.921300	26.682976	0.000116	20.869645
2092.551038	-3.011000	3.308900	-9.962300	26.734733	0.000117	20.879953
2093.549982	-2.994000	3.308800	-9.905700	26.769263	0.000116	20.884323
2094.549932	-2.982500	3.309900	-9.870600	26.801683	0.000117	20.857177
2095.552175	-2.965900	3.308800	-9.813000	26.769073	0.000114	20.876072
2096.551135	-2.997500	3.307300	-9.912600	26.723005	0.000114	20.869110
2097.549936	-2.978100	3.308500	-9.852200	26.664352	0.000114	20.862302
2098.555992	-2.995200	3.307100	-9.904600	26.636230	0.000115	20.863428
2099.552824	-2.998200	3.307100	-9.914800	26.640480	0.000114	20.862959
2100.550651	-3.008100	3.304900	-9.940600	26.715720	0.000113	20.854675
2101.549957	-3.001300	3.305500	-9.918300	26.816674	0.000113	20.874619
2102.552948	-2.995700	3.305000	-9.899800	26.801585	0.000113	20.876518
2103.566080	-2.996800	3.306300	-9.907300	26.812606	0.000113	20.869107
2104.555006	-2.996300	3.305400	-9.903200	26.858576	0.000113	20.863646
2105.553357	-3.019100	3.304800	-9.976900	26.873496	0.000112	20.861105
2106.554379	-2.997600	3.304800	-9.905500	26.855679	0.000112	20.866423
2107.553335	-3.012900	3.302500	-9.949700	26.881146	0.000113	20.850779
2108.554967	-3.018900	3.304100	-9.974100	26.915100	0.000113	20.860265
2109.556226	-3.012000	3.302400	-9.946500	26.941610	0.000112	20.880283
2110.557202	-2.975400	3.303200	-9.827800	26.941014	0.000110	20.870201
2111.555233	-2.995800	3.303500	-9.895900	26.932928	0.000110	20.854485
2112.559508	-3.009000	3.303600	-9.940000	26.938390	0.000110	20.868985
2113.555870	-3.005600	3.302300	-9.924300	26.946658	0.000110	20.839842
2114.559286	-3.009200	3.301400	-9.933600	26.973634	0.000108	20.858433
2115.559586	-3.004500	3.301600	-9.919400	26.985549	0.000109	20.852398
2116.556305	-3.004000	3.301100	-9.914700	26.962275	0.000109	20.860762
2117.563126	-2.988400	3.302500	-9.868400	26.892516	0.000109	20.855100
2118.561193	-3.014300	3.298800	-9.942900	26.846628	0.000109	20.889563
2119.559038	-3.003300	3.300000	-9.910600	26.835859	0.000111	20.847443
2120.562358	-3.009100	3.300900	-9.932100	26.866688	0.000108	20.860423
2121.561143	-2.995900	3.300700	-9.887800	26.886274	0.000108	20.867789
2122.562654	-2.999400	3.299100	-9.894800	26.833559	0.000107	20.846553
2123.558167	-2.994700	3.297900	-9.874800	26.846890	0.000106	20.864224
2124.561172	-3.018800	3.298700	-9.956600	26.870768	0.000108	20.864525
2125.559954	-2.997200	3.297500	-9.882500	26.907604	0.000108	20.858891
2126.559839	-2.995000	3.297900	-9.876300	26.880107	0.000108	20.850209
2127.560452	-2.982900	3.297800	-9.836200	26.821785	0.000106	20.864112
2128.562285	-3.003300	3.297300	-9.902400	26.861921	0.000105	20.845673
2129.559866	-3.012800	3.296100	-9.929400	26.882747	0.000104	20.842907
2130.562965	-3.025800	3.294600	-9.967400	26.878306	0.000106	20.860725
2131.560805	-3.022900	3.294800	-9.958500	26.868109	0.000108	20.853792
2132.560757	-3.004500	3.294600	-9.897900	26.870320	0.000102	20.847480
2133.562448	-3.021900	3.295200	-9.956800	26.826913	0.000102	20.863104
2134.561150	-2.990300	3.296300	-9.855700	26.776905	0.000103	20.849334
2135.566567	-2.994100	3.293600	-9.860300	26.800809	0.000107	20.843023
2136.563982	-2.985900	3.293900	-9.833900	26.834319	0.000102	20.848740
2137.561490	-2.984500	3.293200	-9.826600	26.904434	0.000103	20.861394
2138.565658	-3.008000	3.292400	-9.902200	26.947000	0.000104	20.870530
2139.562686	-2.990900	3.293600	-9.850400	26.960552	0.000102	20.880838
2140.562348	-3.009100	3.292200	-9.906200	26.955595	0.000102	20.869691
2141.565058	-2.998200	3.292200	-9.870100	26.975326	0.000101	20.857765
2142.567207	-3.004100	3.292100	-9.888600	26.997315	0.000103	20.849057
2143.562274	-3.009000	3.290600	-9.900300	27.027222	0.000102	20.856847
2144.565416	-3.007800	3.290200	-9.894700	27.016383	0.000101	20.872499
2145.563588	-2.997800	3.289800	-9.860800	26.970300	0.000102	20.863616
2146.564076	-3.006300	3.290200	-9.890200	26.963951	0.000101	20.861973
2147.563243	-3.030000	3.289300	-9.965700	27.029915	9.998083E-5	20.867141
2148.564167	-3.011800	3.288700	-9.902500	27.024781	0.000101	20.859608
2149.565114	-3.026600	3.287700	-9.950300	27.034959	0.000102	20.868421
2150.564501	-3.009900	3.288900	-9.899200	27.021167	0.000102	20.882999
2151.566661	-2.976000	3.290300	-9.791000	27.055116	0.000101	20.856925
2152.564049	-2.989200	3.287300	-9.825800	27.079339	0.000100	20.846672
2153.565141	-2.992100	3.287600	-9.836200	27.131055	9.988182E-5	20.856010
2154.569178	-2.995300	3.287500	-9.845900	27.134679	9.991483E-5	20.866767
2155.564660	-2.983100	3.286900	-9.803000	27.122574	9.991483E-5	20.874980
2156.566208	-3.007800	3.286300	-9.884100	27.094564	9.704362E-5	20.858665
2157.566638	-2.976500	3.287300	-9.783300	27.126972	9.790168E-5	20.853327
2158.565118	-3.004400	3.284700	-9.868000	27.107199	9.727463E-5	20.854303
2159.570222	-2.982700	3.285500	-9.797900	27.014499	9.654858E-5	20.839786
2160.566602	-2.996400	3.286600	-9.846100	27.027407	9.720863E-5	20.852766
2161.566236	-3.002600	3.285600	-9.864700	27.046192	9.776967E-5	20.855536
2162.563943	-2.985600	3.284600	-9.805800	27.007139	9.420541E-5	20.870315
2163.593641	-2.977400	3.284100	-9.776900	26.983170	9.516248E-5	20.866600
2164.568891	-2.996000	3.284200	-9.838600	26.980468	9.694461E-5	20.854875
2165.564618	-2.994600	3.283100	-9.831200	26.982457	9.727463E-5	20.876314
2166.568085	-3.021200	3.283400	-9.918900	26.993679	9.328134E-5	20.883331
2167.572801	-2.995400	3.282500	-9.830900	26.992667	9.407340E-5	20.875676
2168.566898	-2.988200	3.282600	-9.807700	27.041655	9.635057E-5	20.902179
2169.567866	-3.013000	3.281300	-9.885700	27.065481	9.328134E-5	20.883942
2170.571023	-3.000000	3.281100	-9.842500	27.041439	9.532749E-5	20.869721
2171.573144	-2.995700	3.280300	-9.824800	27.046803	9.222526E-5	20.871322
2172.569714	-2.996300	3.280500	-9.828500	27.051992	9.341335E-5	20.886971
2173.569728	-3.017000	3.279400	-9.893300	27.046018	9.400739E-5	20.887602
2174.571409	-2.990500	3.280400	-9.809200	27.062967	9.173023E-5	20.864345
2175.569169	-2.987700	3.279500	-9.797100	27.083667	9.206025E-5	20.881369
2176.569480	-3.001900	3.278800	-9.841800	27.076005	9.347936E-5	20.870818
2177.574620	-2.999500	3.279600	-9.836000	27.052634	9.034413E-5	20.870074
2178.569073	-3.005700	3.279000	-9.854700	27.088840	9.037713E-5	20.861916
2179.570113	-2.995200	3.278500	-9.818600	27.074130	9.064115E-5	20.884106
2180.574578	-3.021100	3.276700	-9.898000	27.055128	9.262129E-5	20.867841
2181.570731	-3.004900	3.277100	-9.846900	27.053491	9.123519E-5	20.872833
2182.575374	-3.022200	3.276700	-9.901700	27.044242	9.110318E-5	20.875385
2183.575577	-3.006700	3.275500	-9.847800	27.048236	9.133420E-5	20.869919
2184.570628	-2.995200	3.277000	-9.813900	27.068169	9.235727E-5	20.886170
2185.574715	-2.997900	3.275300	-9.818500	27.057256	9.225827E-5	20.890368
2186.572370	-3.001000	3.274800	-9.826100	27.100609	8.836398E-5	20.883708
2187.577486	-2.979500	3.275500	-9.758300	27.106887	9.070715E-5	20.882911
2188.574108	-2.977700	3.275400	-9.752200	27.121458	8.892502E-5	20.879074
2189.574502	-2.977800	3.274200	-9.749600	27.079502	8.849599E-5	20.871017
2190.575036	-2.980200	3.274300	-9.757100	27.128339	8.938706E-5	20.893105
2191.572273	-2.999800	3.275000	-9.823500	27.181761	8.918904E-5	20.871921
2192.575406	-2.974600	3.274800	-9.740300	27.200992	8.961807E-5	20.923501
2193.575585	-3.001500	3.274300	-9.826900	27.217126	9.123519E-5	20.877619
2194.576510	-3.010800	3.271500	-9.848600	27.262208	8.813297E-5	20.870335
2195.576155	-3.011900	3.272500	-9.855300	27.256707	8.922204E-5	20.905102
2196.576234	-3.010600	3.272500	-9.851700	27.255418	8.714289E-5	20.887685
2197.574189	-3.014600	3.271000	-9.859500	27.276461	8.790195E-5	20.898894
2198.573792	-3.015800	3.270700	-9.862800	27.286217	8.658185E-5	20.894483
2199.576902	-3.006400	3.270500	-9.831600	27.273096	8.578979E-5	20.884605
2200.575469	-2.988400	3.270400	-9.772300	27.210179	8.621883E-5	20.909036
2201.576302	-2.990600	3.270200	-9.778800	27.234448	8.770393E-5	20.894567
2202.581271	-2.989100	3.268600	-9.769700	27.224630	8.536076E-5	20.894649
2203.583471	-3.015500	3.268500	-9.854900	27.159500	8.710989E-5	20.892203
2204.579953	-3.012100	3.267600	-9.841600	27.206030	8.542677E-5	20.888269
2205.578028	-3.017400	3.268200	-9.859700	27.226028	8.539376E-5	20.889418
2206.583293	-3.004500	3.268500	-9.819500	27.261461	8.592180E-5	20.906564
2207.578491	-3.008500	3.266000	-9.824900	27.314904	8.565778E-5	20.911484
2208.578917	-3.010900	3.266300	-9.833600	27.367105	8.324861E-5	20.885763
2209.582933	-3.004800	3.266100	-9.812900	27.319152	8.364464E-5	20.912439
2210.579537	-3.025800	3.265400	-9.878900	27.275521	8.268757E-5	20.907431
2211.578494	-3.009300	3.265000	-9.824900	27.286438	8.542677E-5	20.901343
2212.578524	-2.995200	3.265800	-9.781300	27.303064	8.506374E-5	20.903842
2213.577637	-2.999800	3.264800	-9.792900	27.283422	8.483272E-5	20.901154
2214.579181	-3.005700	3.263500	-9.807800	27.292675	8.446970E-5	20.894815
2215.577794	-3.013100	3.264600	-9.835500	27.325798	8.255556E-5	20.909641
2216.579345	-2.991300	3.263900	-9.762400	27.364380	8.258856E-5	20.905779
2217.583073	-3.015600	3.263500	-9.841000	27.423574	8.390866E-5	20.885198
2218.580200	-3.003600	3.263800	-9.801800	27.459743	8.347963E-5	20.886972
2219.578819	-3.020000	3.261800	-9.849900	27.426480	8.328161E-5	20.920835
2220.578958	-2.997100	3.263500	-9.779800	27.404656	8.050941E-5	20.895563
2221.585147	-3.001900	3.263200	-9.794800	27.335869	8.087243E-5	20.912185
2222.583598	-3.014600	3.261200	-9.830400	27.283554	7.981636E-5	20.915984
2223.585124	-3.015000	3.260500	-9.828500	27.214609	8.037740E-5	20.901164
2224.578924	-3.007600	3.261300	-9.807600	27.198360	7.935432E-5	20.904260
2225.584148	-2.983800	3.260100	-9.726600	27.266022	8.031139E-5	20.927272
2226.580400	-3.001100	3.259700	-9.782000	27.320633	8.126846E-5	20.923884
2227.580482	-3.029200	3.258600	-9.869500	27.296747	8.252256E-5	20.891325
2228.583600	-3.020000	3.258900	-9.840000	27.297293	8.024539E-5	20.925062
2229.580256	-3.004100	3.257000	-9.783700	27.297124	7.866127E-5	20.932478
2230.579574	-3.010800	3.258300	-9.808600	27.365299	8.209352E-5	20.900066
2231.581922	-3.030600	3.256000	-9.866700	27.433719	7.961834E-5	20.908205
2232.581048	-2.994800	3.257800	-9.755900	27.425564	7.912331E-5	20.926076
2233.581708	-3.013400	3.256500	-9.812200	27.390218	8.031139E-5	20.913753
2234.584558	-2.981300	3.256400	-9.708100	27.408949	7.951934E-5	20.921690
2235.580518	-2.995400	3.255700	-9.750900	27.441526	8.044340E-5	20.916058
2236.585279	-3.017200	3.254700	-9.819300	27.419003	7.767120E-5	20.931330
2237.583605	-2.992200	3.255700	-9.740100	27.360365	7.859527E-5	20.914068
2238.581405	-2.979700	3.255900	-9.701100	27.381057	7.770420E-5	20.920184
2239.583071	-2.980400	3.254600	-9.698700	27.384010	7.889229E-5	20.926473
2240.582595	-3.016800	3.254600	-9.816600	27.373697	7.757219E-5	20.927004
2241.589863	-3.003700	3.254100	-9.773300	27.302948	7.605408E-5	20.928379
2242.582753	-3.018700	3.253300	-9.819400	27.310243	7.598808E-5	20.917701
2243.584376	-3.005400	3.253600	-9.777300	27.338207	7.621909E-5	20.938716
2244.587105	-3.039200	3.250100	-9.876900	27.323820	7.770420E-5	20.928986
2245.586057	-2.978300	3.253500	-9.688700	27.364930	7.717616E-5	20.911548
2246.586673	-2.986800	3.251800	-9.711600	27.363969	7.555905E-5	20.931916
2247.589771	-3.003800	3.249900	-9.761400	27.379223	7.654912E-5	20.938251
2248.588058	-2.993300	3.250900	-9.730500	27.396866	7.684614E-5	20.931819
2249.586277	-2.981700	3.250300	-9.689900	27.352192	7.546004E-5	20.939034
2250.589651	-3.007100	3.249700	-9.771400	27.340658	7.899130E-5	20.934070
2251.585319	-2.984000	3.250000	-9.696800	27.336320	7.579006E-5	20.939188
2252.586475	-3.004400	3.249600	-9.761900	27.324839	7.450297E-5	20.933330
2253.589741	-3.006300	3.247400	-9.761600	27.340693	7.559205E-5	20.954017
2254.588398	-2.991000	3.250100	-9.719800	27.342832	7.367791E-5	20.933412
2255.584749	-3.006400	3.249300	-9.767400	27.312819	7.658212E-5	20.936885
2256.587537	-3.029500	3.247400	-9.837600	27.283376	7.479999E-5	20.952310
2257.587952	-3.006000	3.247100	-9.759900	27.301413	7.479999E-5	20.922094
2258.589956	-3.001100	3.246300	-9.740800	27.340664	7.503101E-5	20.945928
2259.590848	-3.025900	3.245700	-9.820600	27.373415	7.615309E-5	20.941416
2260.586987	-3.034000	3.244200	-9.841800	27.429780	7.334788E-5	20.940274
2261.592325	-2.998600	3.245700	-9.731700	27.499707	7.248982E-5	20.959888
2262.589590	-2.988900	3.245000	-9.697600	27.503234	7.239081E-5	20.947791
2263.590448	-3.012500	3.246800	-9.779800	27.498225	7.364491E-5	20.948915
2264.596509	-3.012600	3.243000	-9.769300	27.463952	7.255583E-5	20.942410
2265.590815	-3.003500	3.244000	-9.742700	27.469858	7.156575E-5	20.953092
2266.593757	-2.999200	3.243200	-9.726400	27.492580	7.159876E-5	20.939443
2267.600404	-3.009500	3.241400	-9.754100	27.469022	7.371091E-5	20.945614
2268.599962	-2.983000	3.243100	-9.673200	27.434003	6.955261E-5	20.965381
2269.599694	-3.003100	3.241400	-9.733800	27.407288	7.067469E-5	20.937561
2270.593970	-3.009400	3.240900	-9.751900	27.402953	7.156575E-5	20.948371
2271.600166	-2.983200	3.243000	-9.673600	27.440511	7.140074E-5	20.961024
2272.595094	-3.009800	3.240100	-9.750800	27.395394	6.889256E-5	20.951672
2273.595197	-2.967400	3.242300	-9.619700	27.436501	7.169776E-5	20.963628
2274.594882	-2.998400	3.241200	-9.717900	27.462030	6.961861E-5	20.951381
2275.597124	-2.985400	3.239800	-9.671200	27.484034	6.869454E-5	20.969249
2276.605716	-2.997700	3.238600	-9.707400	27.460648	7.285285E-5	20.945250
2277.594961	-3.011200	3.239600	-9.754800	27.509544	7.133474E-5	20.957931
2278.601887	-2.970200	3.238900	-9.618900	27.579665	7.153275E-5	20.974427
2279.599304	-2.987600	3.239900	-9.678700	27.540751	6.988263E-5	20.978895
2280.595657	-2.979500	3.237400	-9.645300	27.572554	6.796849E-5	20.953524
2281.596578	-3.011300	3.236600	-9.745500	27.552814	6.892556E-5	20.956423
2282.602121	-2.964200	3.237700	-9.596100	27.605697	6.760546E-5	20.977386
2283.597618	-2.990800	3.235900	-9.677200	27.631372	6.869454E-5	20.955808
2284.599318	-2.979000	3.235400	-9.637400	27.656400	6.849653E-5	20.979092
2285.599841	-2.995200	3.234300	-9.686700	27.643481	6.810050E-5	20.958035
2286.608517	-2.988300	3.235600	-9.668000	27.688674	6.783648E-5	20.984066
2287.600790	-3.000000	3.235200	-9.704900	27.646740	6.750646E-5	20.964159
2288.600558	-2.994200	3.234000	-9.682900	27.678336	6.740745E-5	20.979354
2289.598015	-3.021200	3.233400	-9.768200	27.593348	6.681341E-5	20.963067
2290.597761	-3.011100	3.233300	-9.735600	27.569890	6.555931E-5	20.979764
2291.604490	-3.014700	3.231500	-9.741000	27.566670	6.744045E-5	20.970361
2292.600780	-3.015000	3.232700	-9.745900	27.526838	6.598835E-5	20.962528
2293.599851	-2.996000	3.232200	-9.682600	27.462972	6.658239E-5	20.961336
2294.597212	-3.001400	3.231600	-9.698500	27.471459	6.575733E-5	20.977458
2295.608493	-3.010500	3.232600	-9.730900	27.489100	6.542730E-5	20.978611
2296.600137	-3.014700	3.230300	-9.737900	27.495427	6.621936E-5	20.980708
2297.599406	-3.024100	3.228900	-9.763000	27.526709	6.592234E-5	20.971880
2298.601051	-3.008800	3.229900	-9.717500	27.542239	6.509728E-5	20.973755
2299.612029	-2.993800	3.229800	-9.668900	27.583442	6.513028E-5	20.970167
2300.601578	-3.034200	3.228100	-9.793700	27.621890	6.404120E-5	20.986092
2301.599866	-3.017400	3.227600	-9.738500	27.641510	6.357917E-5	20.984498
2302.601045	-3.028100	3.228100	-9.773900	27.619267	6.437123E-5	20.991512
2303.600032	-2.998800	3.227400	-9.677600	27.621848	6.324914E-5	20.985575
2304.600221	-2.981300	3.228400	-9.623900	27.634974	6.381019E-5	21.000677
2305.606690	-2.999800	3.227100	-9.679800	27.625357	6.354617E-5	20.982943
2306.600891	-2.977900	3.226000	-9.605900	27.619163	6.308413E-5	20.990460
2307.605209	-3.016100	3.225900	-9.727200	27.653834	6.486626E-5	20.981251
2308.604906	-2.996800	3.225600	-9.665500	27.673678	6.249009E-5	21.007379
2309.602789	-3.000400	3.224700	-9.675000	27.618599	6.321614E-5	20.984204
2310.603707	-3.001800	3.225200	-9.680700	27.589115	6.315014E-5	20.987727
2311.615799	-3.007100	3.224000	-9.694100	27.558363	6.021292E-5	20.987605
2312.614935	-2.982100	3.224100	-9.613700	27.517292	6.216006E-5	21.000807
2313.607377	-3.009400	3.222300	-9.695600	27.494278	5.971789E-5	20.997568
2314.606595	-3.007600	3.222800	-9.692700	27.501947	6.272111E-5	20.997697
2315.610193	-2.988300	3.222000	-9.627800	27.484263	6.390919E-5	20.993657
2316.606437	-2.994800	3.222800	-9.651100	27.500591	6.077396E-5	20.998229
2317.607199	-3.014400	3.221900	-9.710300	27.456790	6.024592E-5	21.013902
2318.606060	-2.998700	3.223000	-9.663600	27.529692	6.031193E-5	21.000955
2319.614888	-3.005400	3.220600	-9.678000	27.551128	6.123600E-5	21.000711
2320.607445	-3.005100	3.221700	-9.681200	27.553288	6.371118E-5	21.001936
2321.618513	-2.991300	3.220000	-9.631300	27.551185	6.044394E-5	21.003139
2322.609435	-2.993700	3.219100	-9.635600	27.545284	6.176404E-5	20.999573
2323.612206	-3.025800	3.220100	-9.742500	27.577857	6.080697E-5	21.014801
2324.613430	-3.009300	3.219500	-9.687400	27.597428	6.400820E-5	21.022164
2325.615461	-3.000000	3.219500	-9.658400	27.595701	6.113699E-5	21.002885
2326.620462	-3.013400	3.218000	-9.696200	27.616410	5.786975E-5	21.005705
2327.614273	-2.990000	3.216500	-9.616800	27.636234	6.130200E-5	21.025174
2328.614361	-2.996100	3.216100	-9.634900	27.690030	6.163203E-5	21.014824
2329.614863	-2.977800	3.216000	-9.575600	27.663547	6.126900E-5	21.010935
2330.615641	-3.016500	3.215000	-9.697400	27.643188	6.044394E-5	21.009890
2331.616696	-3.014900	3.214000	-9.689200	27.693461	5.912384E-5	21.017802
2332.615793	-3.003300	3.213900	-9.651100	27.673028	6.176404E-5	21.032325
2333.616591	-3.030500	3.214500	-9.740100	27.731563	5.994890E-5	21.008256
2334.616547	-2.972200	3.214600	-9.553600	27.697296	5.912384E-5	21.020237
2335.616658	-2.968400	3.213200	-9.537200	27.627857	5.984990E-5	21.013902
2336.616411	-3.001500	3.213900	-9.645400	27.584929	5.819977E-5	21.044196
2337.616390	-3.001700	3.211800	-9.639300	27.532899	5.747372E-5	21.033099
2338.618247	-2.992200	3.211900	-9.610100	27.538065	5.684668E-5	21.019334
2339.621493	-3.001900	3.211700	-9.641100	27.574209	6.021292E-5	21.025353
2340.619065	-3.026500	3.210500	-9.715000	27.650274	5.767174E-5	21.022232
2341.622660	-3.008600	3.210000	-9.656600	27.742660	5.942086E-5	21.029850
2342.622802	-3.021300	3.209400	-9.695800	27.818198	5.948687E-5	21.030479
2343.621488	-3.011800	3.208400	-9.662300	27.880712	5.806777E-5	21.038865
2344.620676	-2.975800	3.209400	-9.549400	27.897550	5.783675E-5	21.037321
2345.621314	-3.002400	3.208300	-9.631500	27.904796	5.978389E-5	21.023753
2346.624886	-2.986200	3.207900	-9.578600	27.848987	5.760573E-5	21.032068
2347.621521	-2.991900	3.207800	-9.596600	27.802620	5.767174E-5	21.014330
2348.621010	-3.005200	3.208300	-9.640200	27.805701	5.753973E-5	21.028333
2349.624963	-2.997400	3.205800	-9.608000	27.833648	5.598861E-5	21.014736
2350.621698	-2.999100	3.206500	-9.616100	27.755395	5.394246E-5	21.028916
2351.622754	-2.986700	3.207100	-9.578300	27.712818	5.843079E-5	21.023529
2352.626946	-2.990200	3.204200	-9.580000	27.706375	5.542757E-5	21.032691
2353.625276	-3.012400	3.204400	-9.652500	27.748014	5.605462E-5	21.027178
2354.624808	-2.966500	3.204500	-9.504700	27.772794	5.833178E-5	21.011815
2355.629449	-3.013700	3.204000	-9.655300	27.833054	5.562559E-5	21.018405
2356.625149	-3.002000	3.205000	-9.620600	27.857431	5.513055E-5	21.002639
2357.628063	-2.998700	3.202200	-9.601600	27.817439	5.674767E-5	21.008382
2358.626755	-3.003800	3.202500	-9.619000	27.848813	5.499854E-5	21.021937
2359.625383	-2.996500	3.201200	-9.591500	27.862529	5.588961E-5	21.003028
2360.626181	-2.989800	3.201400	-9.570400	27.848104	5.420648E-5	21.006053
2361.625148	-2.996500	3.201400	-9.592500	27.861749	5.539457E-5	20.995606
2362.625345	-3.009800	3.199600	-9.629400	27.870058	5.489953E-5	21.009182
2363.626932	-3.008000	3.198400	-9.620000	27.875665	5.265537E-5	20.993017
2364.628872	-3.005500	3.198200	-9.611100	27.875594	5.225934E-5	21.016649
2365.627800	-3.014800	3.197300	-9.638400	27.882494	5.489953E-5	20.976659
2366.627545	-3.002600	3.198100	-9.602100	27.859684	5.414048E-5	20.985469
2367.631166	-2.999100	3.197700	-9.589100	27.874918	5.361244E-5	20.994162
2368.630014	-2.970900	3.198100	-9.500600	27.873630	5.430549E-5	21.000450
2369.628719	-2.983900	3.197200	-9.539200	27.878695	5.480053E-5	21.004125
2370.630583	-2.994400	3.196200	-9.570000	27.887846	5.321641E-5	20.989630
2371.631676	-3.020800	3.194400	-9.648700	27.828835	5.318341E-5	21.004679
2372.630679	-2.992600	3.194700	-9.559300	27.867867	5.522956E-5	21.009348
2373.630762	-3.004100	3.193600	-9.593200	27.843869	5.367844E-5	20.997999
2374.630827	-3.008700	3.194000	-9.609100	27.783917	5.285338E-5	21.000726
2375.630708	-3.002700	3.193700	-9.589100	27.777175	5.216033E-5	20.995364
2376.631927	-3.008700	3.191600	-9.602100	27.819436	5.159929E-5	20.992851
2377.631404	-3.026700	3.191800	-9.658500	27.853087	5.001517E-5	21.003956
2378.632155	-3.016000	3.192000	-9.625700	27.879377	5.041120E-5	20.997227
2379.630645	-3.006500	3.191300	-9.594100	27.802930	5.031220E-5	20.987619
2380.629977	-3.002200	3.189200	-9.574400	27.781261	5.070823E-5	20.979564
2381.633489	-2.998700	3.190000	-9.565400	27.723611	5.120326E-5	21.003574
2382.636742	-2.991300	3.189500	-9.539800	27.737701	5.037820E-5	20.978876
2383.632830	-3.012900	3.188900	-9.607000	27.738897	5.123626E-5	20.984346
2384.632150	-3.019100	3.187600	-9.623200	27.793131	4.915711E-5	20.978708
2385.635394	-3.002400	3.187300	-9.569000	27.811434	5.100525E-5	20.978162
2386.632094	-2.972800	3.188300	-9.477600	27.765266	4.806803E-5	20.972951
2387.632446	-3.020700	3.185800	-9.622300	27.757881	4.922312E-5	20.959832
2388.635680	-3.003900	3.185900	-9.569200	27.729811	5.120326E-5	20.976152
2389.631573	-2.986500	3.186100	-9.514300	27.737133	5.031220E-5	21.005801
2390.633604	-2.973800	3.186100	-9.473900	27.762209	4.928912E-5	20.965609
2391.636965	-2.997300	3.184100	-9.542700	27.725608	4.856307E-5	20.979983
2392.632991	-2.991400	3.183400	-9.522700	27.733601	4.753999E-5	20.978069
2393.633904	-2.980100	3.183200	-9.484400	27.829892	4.853007E-5	20.966868
2394.633328	-2.989000	3.182000	-9.510300	27.917648	4.707796E-5	20.962257
2395.636677	-3.002500	3.182200	-9.553600	27.886363	4.839806E-5	20.980553
2396.635067	-2.992800	3.181000	-9.519600	27.909076	4.767200E-5	20.983972
2397.635948	-2.996100	3.180600	-9.527900	27.867673	4.856307E-5	20.958426
2398.636456	-3.021300	3.179800	-9.606100	27.867902	4.506481E-5	20.972879
2399.636414	-2.982900	3.178700	-9.481100	27.883228	4.678094E-5	20.968390
2400.639723	-2.981100	3.180800	-9.481600	27.953104	4.572486E-5	20.964279
2401.636353	-2.978200	3.178400	-9.465100	27.939272	4.542784E-5	20.954625
2402.636448	-3.007100	3.177900	-9.555400	27.923705	4.793602E-5	20.963612
2403.640272	-2.972700	3.178800	-9.449300	27.863362	4.536183E-5	20.956932
2404.637302	-2.983500	3.177400	-9.479100	27.856966	4.625290E-5	20.951445
2405.637997	-3.003200	3.174600	-9.533200	27.867460	4.753999E-5	20.957738
2406.637618	-2.977000	3.174900	-9.450200	27.926823	4.664893E-5	20.965802
2407.637495	-3.016900	3.172400	-9.569600	27.898016	4.460278E-5	20.969049
2408.638991	-2.988400	3.173900	-9.484000	27.873372	4.638491E-5	20.957524
2409.639671	-3.002300	3.174800	-9.531000	27.945754	4.456978E-5	20.948823
2410.639400	-2.983400	3.172700	-9.464100	28.036282	4.486680E-5	20.979722
2411.641179	-2.990000	3.173100	-9.486800	28.056465	4.513082E-5	20.938879
2412.638570	-2.976700	3.171400	-9.439200	28.017673	4.440476E-5	20.970950
2413.643285	-2.999700	3.171900	-9.513200	28.014997	4.668193E-5	20.952137
2414.642366	-2.983100	3.170300	-9.456500	28.032755	4.318367E-5	20.953417
2415.641179	-2.995600	3.169700	-9.494000	28.037445	4.489980E-5	20.966670
2416.646419	-2.972200	3.168100	-9.415800	27.997385	4.618689E-5	20.955746
2417.644914	-3.010700	3.167400	-9.534400	27.956727	4.232561E-5	20.976933
2418.643133	-3.007300	3.167000	-9.523800	27.985742	4.496580E-5	20.954458
2419.643825	-3.009800	3.167300	-9.532300	27.985346	4.476779E-5	20.942207
2420.645526	-3.001200	3.166200	-9.501800	28.000178	4.483379E-5	20.968039
2421.643409	-2.983400	3.165300	-9.442300	28.071189	4.324968E-5	20.964603
2422.650233	-3.007300	3.163500	-9.512400	27.990169	4.173157E-5	20.966025
2423.647341	-3.003800	3.164100	-9.503900	27.985088	4.318367E-5	20.941947
2424.646013	-3.015400	3.163100	-9.536600	28.038746	4.117053E-5	20.961817
2425.646389	-2.997000	3.163000	-9.478600	28.070656	4.367871E-5	20.940361
2426.650434	-2.996400	3.162100	-9.473700	28.106532	4.037847E-5	20.940915
2427.647549	-3.009600	3.162400	-9.516400	28.059435	4.077450E-5	20.952298
2428.648175	-2.981100	3.161500	-9.423000	28.065483	4.014745E-5	20.934207
2429.648897	-2.975200	3.160700	-9.402700	28.095508	4.338169E-5	20.926974
2430.650107	-2.991700	3.160100	-9.453200	28.080118	4.070849E-5	20.941352
2431.649014	-3.004900	3.158700	-9.490200	28.039193	3.958641E-5	20.968430
2432.648212	-2.983000	3.157900	-9.418500	28.007116	4.060948E-5	20.946102
2433.650954	-2.985900	3.156000	-9.423200	27.963257	3.994944E-5	20.946051
2434.649664	-3.006200	3.157400	-9.491200	28.014557	3.754026E-5	20.947428
2435.652682	-3.006000	3.155700	-9.484900	27.990142	4.222660E-5	20.940870
2436.651021	-3.012600	3.153800	-9.500200	27.999992	4.113752E-5	20.934665
2437.652013	-3.023500	3.152500	-9.530600	27.959827	3.886036E-5	20.955874
2438.651220	-2.999500	3.154300	-9.461200	27.948083	3.985043E-5	20.961596
2439.652012	-3.000300	3.152500	-9.457600	28.005629	3.971842E-5	20.925641
2440.653802	-2.983000	3.151300	-9.399600	28.051004	3.978442E-5	20.935752
2441.654684	-3.001800	3.149900	-9.454400	28.086956	4.100551E-5	20.922159
2442.656022	-2.996100	3.149800	-9.436600	28.060337	3.833232E-5	20.936139
2443.654159	-2.999300	3.149600	-9.445500	28.054518	3.961941E-5	20.932653
2444.655081	-3.014600	3.149000	-9.491600	28.014013	3.757326E-5	20.913219
2445.656381	-3.013000	3.148100	-9.484500	28.095631	3.876135E-5	20.941795
2446.657036	-2.984400	3.147700	-9.393300	28.098637	3.856333E-5	20.940554
2447.656736	-2.987600	3.146600	-9.399600	28.091697	3.747425E-5	20.952058
2448.660344	-3.010700	3.145600	-9.469600	28.051935	3.585714E-5	20.945224
2449.659432	-3.010000	3.144300	-9.463400	28.092973	3.879435E-5	20.912096
2450.657070	-2.985400	3.144200	-9.386100	28.152469	3.602215E-5	20.942115
2451.658366	-3.010400	3.142200	-9.457800	28.189931	3.635217E-5	20.929571
2452.659495	-2.998300	3.142200	-9.420900	28.204215	3.579113E-5	20.945846
2453.659679	-3.004100	3.141600	-9.436900	28.188703	3.565912E-5	20.941134
2454.658469	-2.996200	3.139800	-9.405800	28.216940	3.945440E-5	20.924046
2455.658454	-3.014900	3.140600	-9.467900	28.229710	3.569212E-5	20.936428
2456.658401	-3.005600	3.139600	-9.435600	28.148186	3.664919E-5	20.926900
2457.659758	-3.029900	3.138300	-9.507800	28.076598	3.513108E-5	20.935912
2458.660182	-3.001400	3.138500	-9.418900	28.085356	3.364597E-5	20.925763
2459.658502	-3.025300	3.136400	-9.488000	28.124675	3.556011E-5	20.932153
2460.659741	-2.996300	3.136100	-9.395500	28.173958	3.499907E-5	20.949997
2461.660233	-2.978500	3.135300	-9.337600	28.178131	3.390999E-5	20.939026
2462.659644	-3.002400	3.134500	-9.409100	28.184654	3.641818E-5	20.931370
2463.660038	-3.020100	3.131600	-9.456600	28.236219	3.506508E-5	20.933971
2464.666060	-2.979500	3.133900	-9.336400	28.248668	3.351396E-5	20.927540
2465.661664	-2.987400	3.131500	-9.354600	28.266514	3.192985E-5	20.929860
2466.664442	-3.010600	3.130600	-9.424200	28.293687	3.315094E-5	20.924977
2467.660817	-2.987700	3.131300	-9.354300	28.336940	3.569212E-5	20.950033
2468.660434	-3.005200	3.129500	-9.404100	28.330182	3.466905E-5	20.946073
2469.660620	-3.012100	3.127800	-9.420800	28.332886	3.206186E-5	20.933151
2470.660954	-3.001600	3.127400	-9.386700	28.309962	3.047774E-5	20.895848
2471.660737	-2.992000	3.128200	-9.358300	28.231545	3.275491E-5	20.915992
2472.660202	-3.003300	3.125500	-9.385900	28.164672	3.130280E-5	20.939227
2473.663642	-3.003500	3.125300	-9.385800	28.214079	3.120379E-5	20.922588
2474.661170	-2.996800	3.123700	-9.359600	28.154936	3.268890E-5	20.918523
2475.663207	-3.003300	3.123900	-9.381500	28.159084	3.192985E-5	20.921750
2476.666892	-3.006300	3.122900	-9.388500	28.111939	3.067576E-5	20.925497
2477.665590	-2.990900	3.121800	-9.336500	28.199943	3.460304E-5	20.922581
2478.661078	-3.015600	3.120900	-9.409700	28.265205	3.216086E-5	20.937077
2479.666347	-3.006900	3.118800	-9.376400	28.182301	3.249089E-5	20.939905
2480.664619	-2.999200	3.119300	-9.354900	28.133468	3.123680E-5	20.930574
2481.661669	-2.990600	3.119200	-9.326400	28.131689	3.285392E-5	20.940162
2482.662341	-2.984200	3.117400	-9.302200	28.224601	3.133580E-5	20.924647
2483.667679	-3.028900	3.115000	-9.433800	28.226039	3.390999E-5	20.931310
2484.663753	-3.027800	3.113800	-9.427000	28.165509	3.087377E-5	20.924425
2485.663355	-2.995200	3.115200	-9.329300	28.110878	3.130280E-5	20.939601
2486.663389	-2.993800	3.113800	-9.321300	28.146278	2.793655E-5	20.915971
2487.664313	-3.003800	3.111900	-9.345300	28.148117	3.103878E-5	20.932045
2488.665664	-3.004900	3.110400	-9.345100	28.216342	3.060975E-5	20.921548
2489.663882	-3.005100	3.110900	-9.347900	28.199713	3.113779E-5	20.928987
2490.667724	-3.011900	3.108500	-9.361700	28.194557	2.859660E-5	20.916686
2491.665337	-2.982300	3.108000	-9.268100	28.228667	2.899263E-5	20.913569
2492.664454	-3.002800	3.106700	-9.327300	28.305234	2.876162E-5	20.914794
2493.666940	-3.005300	3.106200	-9.334600	28.363140	2.988370E-5	20.911459
2494.668396	-2.975500	3.106500	-9.242500	28.283531	3.126980E-5	20.921864
2495.666834	-2.982500	3.105700	-9.262100	28.259318	3.113779E-5	20.922142
2496.666748	-3.009800	3.103100	-9.338600	28.200503	2.889362E-5	20.917456
2497.666627	-3.036200	3.101500	-9.416300	28.126888	3.018072E-5	20.929640
2498.667198	-2.998600	3.102200	-9.301900	28.082638	2.905864E-5	20.933932
2499.666432	-3.003900	3.101400	-9.315000	28.151234	2.935566E-5	20.922856
2500.669368	-2.987600	3.100100	-9.260700	28.142090	2.750752E-5	20.896584
2501.666954	-2.984600	3.099800	-9.251100	28.210116	2.856360E-5	20.918599
2502.668228	-2.999600	3.096300	-9.287200	28.252752	3.093978E-5	20.908895
2503.672584	-2.980800	3.097200	-9.231000	28.257346	2.872861E-5	20.910200
2504.669028	-3.010800	3.095300	-9.318400	28.279951	3.021372E-5	20.928216
2505.670939	-2.994200	3.096300	-9.269000	28.300872	3.084077E-5	20.930314
2506.672399	-3.029100	3.092600	-9.366200	28.361478	2.965268E-5	20.901726
2507.671978	-3.000500	3.092900	-9.279000	28.412659	2.952067E-5	20.908217
2508.670762	-2.979400	3.093600	-9.216200	28.462796	2.757353E-5	20.910340
2509.676702	-3.009600	3.088900	-9.295100	28.442579	2.803556E-5	20.902785
2510.671420	-3.002100	3.089600	-9.274200	28.416490	2.882762E-5	20.916816
2511.674808	-3.002200	3.088100	-9.269300	28.468285	2.575839E-5	20.897851
2512.675160	-2.990000	3.088300	-9.233500	28.454385	2.843159E-5	20.899026
2513.672465	-3.002900	3.088100	-9.272600	28.423733	2.668246E-5	20.894239
2514.672153	-3.001500	3.085000	-9.258500	28.432113	2.661646E-5	20.908841
2515.672381	-3.009000	3.083100	-9.275400	28.467603	2.605542E-5	20.887208
2516.674044	-3.005000	3.082800	-9.262700	28.481883	2.744152E-5	20.911544
2517.674228	-2.988500	3.082700	-9.211500	28.423477	2.655045E-5	20.915790
2518.674026	-3.017900	3.080200	-9.294700	28.399672	2.724350E-5	20.908890
2519.674316	-3.017800	3.079200	-9.291300	28.343410	2.843159E-5	20.917671
2520.674433	-2.996800	3.078700	-9.225200	28.365126	2.892663E-5	20.907770
2521.674315	-2.998300	3.077000	-9.224800	28.426691	2.767254E-5	20.901485
2522.679626	-3.015100	3.075500	-9.271700	28.424046	2.810157E-5	20.919682
2523.676537	-2.996100	3.076600	-9.216300	28.394932	2.641844E-5	20.904117
2524.677536	-2.983600	3.073200	-9.168300	28.415980	2.377825E-5	20.893071
2525.679399	-2.982600	3.074100	-9.168100	28.461779	2.790355E-5	20.896042
2526.677618	-3.003300	3.072300	-9.226000	28.463517	2.437229E-5	20.889732
2527.678386	-3.010300	3.070500	-9.242400	28.373340	2.773854E-5	20.916513
2528.679569	-3.004800	3.069300	-9.221100	28.361277	2.585740E-5	20.902471
2529.678212	-3.024200	3.069200	-9.280900	28.398061	2.661646E-5	20.883562
2530.679291	-3.002400	3.066900	-9.207100	28.437148	2.427329E-5	20.886886
2531.677878	-2.996100	3.066900	-9.187500	28.461187	2.592341E-5	20.909668
2532.678553	-3.002300	3.065400	-9.201400	28.489592	2.549438E-5	20.912195
2533.678239	-3.003500	3.064800	-9.203600	28.446054	2.582440E-5	20.890164
2534.678203	-3.010700	3.062500	-9.220400	28.482926	2.414128E-5	20.877509
2535.680097	-3.010300	3.062000	-9.216600	28.369185	2.668246E-5	20.892418
2536.676965	-3.002300	3.060000	-9.186000	28.369807	2.806856E-5	20.880716
2537.688057	-2.995700	3.059400	-9.163800	28.408274	2.440530E-5	20.886259
2538.679484	-3.013400	3.055800	-9.207900	28.493203	2.457031E-5	20.889280
2539.679418	-2.972100	3.058700	-9.090600	28.572110	2.582440E-5	20.900941
2540.679910	-2.999500	3.055900	-9.165400	28.540396	2.707849E-5	20.863314
2541.680229	-2.995200	3.055100	-9.149300	28.533163	2.400927E-5	20.878789
2542.683749	-3.000400	3.053800	-9.161600	28.505569	2.688048E-5	20.894147
2543.679601	-2.983300	3.052600	-9.105500	28.475335	2.503234E-5	20.888830
2544.682528	-2.995100	3.051300	-9.138400	28.472961	2.457031E-5	20.868897
2545.685409	-3.022700	3.049500	-9.216400	28.508874	2.470232E-5	20.894156
2546.680643	-2.985900	3.049200	-9.103500	28.542037	2.734251E-5	20.887725
2547.682761	-3.007800	3.046600	-9.162500	28.452012	2.486733E-5	20.892370
2548.686580	-2.998300	3.046800	-9.134500	28.368767	2.420728E-5	20.878248
2549.681921	-2.992600	3.045200	-9.112400	28.357050	2.638544E-5	20.878777
2550.681818	-3.009100	3.043500	-9.157000	28.375595	2.595641E-5	20.882277
2551.685805	-2.993200	3.042900	-9.107200	28.383580	2.397626E-5	20.874671
2552.681905	-3.009700	3.040000	-9.149300	28.398653	2.410827E-5	20.887003
2553.679824	-2.977300	3.040200	-9.050900	28.450945	2.516435E-5	20.879917
2554.681709	-3.012700	3.038600	-9.152400	28.461042	2.262316E-5	20.885817
2555.683464	-2.999900	3.037300	-9.111100	28.394595	2.476832E-5	20.874857
2556.683764	-2.988500	3.036600	-9.073400	28.378124	2.536237E-5	20.880557
2557.682224	-3.009400	3.035100	-9.132600	28.355551	2.351423E-5	20.879164
2558.681777	-2.962200	3.035000	-8.989800	28.402049	2.546137E-5	20.881414
2559.682506	-3.011800	3.032500	-9.132700	28.418264	2.569239E-5	20.884939
2560.681590	-3.011800	3.030900	-9.127800	28.458638	2.615442E-5	20.867750
2561.683132	-2.993400	3.030000	-9.069400	28.528306	2.417428E-5	20.875795
2562.682422	-3.021900	3.027500	-9.147700	28.550430	2.282118E-5	20.863462
2563.682779	-2.996200	3.028800	-9.073500	28.492278	2.529636E-5	20.867013
2564.683965	-3.001000	3.024700	-9.076100	28.485571	2.549438E-5	20.884439
2565.682314	-2.995300	3.025800	-9.062500	28.460791	2.463631E-5	20.878927
2566.682922	-3.029200	3.022900	-9.156200	28.413559	2.216113E-5	20.867875
2567.683971	-2.980700	3.022100	-9.007400	28.394824	2.321721E-5	20.863709
2568.682988	-3.023000	3.021200	-9.132300	28.461743	2.173210E-5	20.862816
2569.683625	-3.007900	3.019600	-9.081600	28.448068	2.420728E-5	20.880339
2570.684326	-2.994000	3.018500	-9.035800	28.491811	2.476832E-5	20.877448
2571.684453	-2.992200	3.016800	-9.026000	28.523537	2.427329E-5	20.860087
2572.684141	-2.982300	3.016500	-8.995000	28.512413	2.219413E-5	20.872117
2573.685958	-2.995500	3.015100	-9.030500	28.454785	2.186411E-5	20.874301
2574.684260	-2.997400	3.013500	-9.031600	28.538298	2.331622E-5	20.880641
2575.684385	-2.992600	3.011000	-9.009900	28.634936	2.394326E-5	20.876500
2576.684464	-2.996400	3.010800	-9.020500	28.705781	2.565939E-5	20.876732
2577.686972	-2.973900	3.009500	-8.948500	28.691763	2.259016E-5	20.860243
2578.684455	-3.037500	3.007600	-9.134900	28.590803	2.338222E-5	20.857182
2579.687851	-2.991100	3.007500	-8.994700	28.554501	2.424028E-5	20.847175
2580.686483	-2.990600	3.005600	-8.986600	28.581216	2.235914E-5	20.868863
2581.685383	-2.980300	3.004200	-8.951900	28.608823	2.173210E-5	20.848778
2582.684048	-2.995100	3.001800	-8.990200	28.656406	2.292019E-5	20.855926
2583.687673	-2.980400	3.001800	-8.945800	28.634931	2.348123E-5	20.870805
2584.690245	-3.012500	3.000300	-9.037500	28.565950	2.480132E-5	20.872455
2585.684032	-2.979800	2.999500	-8.936800	28.429709	2.285418E-5	20.843835
2586.687779	-3.011500	2.997800	-9.027200	28.441165	2.166609E-5	20.854897
2587.686428	-3.009400	2.995800	-9.014700	28.450361	2.262316E-5	20.852778
2588.684636	-2.997900	2.993900	-8.974800	28.459393	2.397626E-5	20.833425
2589.685862	-3.014500	2.992000	-9.018800	28.475898	2.321721E-5	20.845777
2590.685705	-2.999400	2.991800	-8.973400	28.551461	2.331622E-5	20.849803
2591.689384	-2.990400	2.990200	-8.941000	28.557561	2.209513E-5	20.868748
2592.688823	-2.980100	2.989600	-8.908900	28.619090	2.341522E-5	20.839205
2593.687279	-3.022100	2.985600	-9.021600	28.660774	2.305220E-5	20.844204
2594.688242	-2.996800	2.986500	-8.949200	28.699306	2.391026E-5	20.865943
2595.687124	-2.980400	2.985300	-8.896100	28.720274	2.272217E-5	20.872364
2596.688340	-3.009800	2.982200	-8.975100	28.710563	2.328321E-5	20.854050
2597.688140	-3.011900	2.981300	-8.977900	28.726624	2.351423E-5	20.851735
2598.692425	-2.979900	2.979300	-8.877100	28.695064	2.249115E-5	20.867361
2599.689492	-3.009400	2.978200	-8.961400	28.647107	2.186411E-5	20.858413
2600.692936	-3.015000	2.976600	-8.973600	28.617849	2.325021E-5	20.846015
2601.691880	-2.978800	2.976900	-8.865900	28.623849	2.463631E-5	20.844946
2602.688853	-2.983600	2.975100	-8.875500	28.552814	2.331622E-5	20.864915
2603.688504	-3.019100	2.971300	-8.969300	28.556731	2.351423E-5	20.855584
2604.691900	-3.005300	2.970600	-8.926700	28.537142	2.226014E-5	20.834435
2605.690992	-2.991900	2.969400	-8.882700	28.611108	2.166609E-5	20.840175
2606.690776	-2.969400	2.969700	-8.817500	28.662973	2.189711E-5	20.872971
2607.690837	-3.011000	2.964900	-8.926300	28.694544	2.430629E-5	20.846450
2608.692719	-2.979100	2.966000	-8.833800	28.677277	2.245815E-5	20.866989
2609.691246	-2.998700	2.963000	-8.884400	28.724036	2.351423E-5	20.865249
2610.690992	-2.998700	2.961900	-8.881400	28.758084	2.298619E-5	20.861138
2611.692583	-2.975900	2.962300	-8.814600	28.750357	2.127006E-5	20.847666
2612.691347	-3.011800	2.959800	-8.914000	28.782967	2.173210E-5	20.838314
2613.692644	-2.999800	2.957500	-8.871300	28.763002	2.341522E-5	20.827213
2614.694867	-2.980000	2.956700	-8.810200	28.826947	2.202912E-5	20.863650
2615.692779	-2.999600	2.955500	-8.864400	28.800699	2.371224E-5	20.857124
2616.694393	-2.971900	2.953400	-8.776200	28.764780	2.381125E-5	20.858400
2617.696251	-2.978900	2.951000	-8.790000	28.711908	2.196312E-5	20.848292
2618.692368	-2.981700	2.949300	-8.792100	28.675520	2.209513E-5	20.851470
2619.693780	-3.015800	2.946600	-8.884600	28.770494	2.239215E-5	20.871742
2620.693660	-2.988200	2.947000	-8.804800	28.836322	2.229314E-5	20.865982
2621.693057	-3.047800	2.943600	-8.970400	28.891496	2.136907E-5	20.867510
2622.695238	-2.998800	2.944600	-8.829700	28.905747	2.476832E-5	20.837298
2623.696300	-3.025000	2.941700	-8.897800	28.892078	2.358023E-5	20.859088
2624.696399	-2.994700	2.941000	-8.806100	28.847544	2.374525E-5	20.851209
2625.698536	-2.993200	2.939800	-8.798600	28.808237	2.097304E-5	20.867088
2626.698829	-3.012700	2.936300	-8.845000	28.796225	2.054401E-5	20.849772
2627.697854	-2.994700	2.936500	-8.792800	28.704639	2.077503E-5	20.850453
2628.697012	-2.989900	2.934400	-8.772900	28.647783	2.199612E-5	20.855301
2629.698032	-2.987100	2.933200	-8.760800	28.644298	2.206212E-5	20.861747
2630.701356	-2.972300	2.931500	-8.712600	28.671853	2.288718E-5	20.858681
2631.698349	-2.982000	2.930000	-8.736100	28.651044	2.252416E-5	20.861904
2632.709376	-3.022100	2.927100	-8.844100	28.630806	2.532936E-5	20.878504
2633.699324	-2.995400	2.926400	-8.765100	28.616738	1.942193E-5	20.856276
2634.700008	-3.000200	2.925100	-8.774900	28.637658	2.242515E-5	20.866914
2635.698698	-3.030100	2.921900	-8.852400	28.691801	2.156709E-5	20.870712
2636.699023	-2.997100	2.920600	-8.752800	28.730257	2.160009E-5	20.878152
2637.699512	-2.990400	2.920300	-8.732600	28.762051	2.136907E-5	20.865608
2638.700968	-2.999900	2.918200	-8.753300	28.731259	2.311820E-5	20.850714
2639.700629	-2.990900	2.916600	-8.722900	28.787230	2.100605E-5	20.861574
2640.700064	-3.006900	2.915900	-8.766400	28.820579	2.113806E-5	20.864822
2641.701774	-2.991000	2.913200	-8.712300	28.719902	2.341522E-5	20.854447
2642.702033	-2.982200	2.910400	-8.678400	28.734695	2.272217E-5	20.857968
2643.700961	-2.985200	2.909500	-8.684300	28.803035	2.156709E-5	20.860425
2644.701708	-2.974000	2.908100	-8.646300	28.850229	2.318421E-5	20.868137
2645.704078	-2.975800	2.905900	-8.646200	28.849789	2.173210E-5	20.869116
2646.703268	-2.975800	2.904000	-8.641000	28.788128	2.196312E-5	20.887607
2647.701714	-2.978900	2.902300	-8.645100	28.765168	2.070902E-5	20.875386
2648.705783	-2.988700	2.900500	-8.667800	28.794213	2.041200E-5	20.867185
2649.706328	-3.000700	2.899100	-8.698800	28.821494	2.242515E-5	20.877122
2650.701300	-2.982100	2.899300	-8.644800	28.833386	2.199612E-5	20.876774
2651.705045	-2.976300	2.895400	-8.616700	28.870550	2.252416E-5	20.883392
2652.700505	-3.009000	2.892900	-8.704200	28.891039	2.183111E-5	20.885541
2653.704977	-2.986000	2.891700	-8.633900	28.929914	2.358023E-5	20.858325
2654.701729	-2.982400	2.890400	-8.618300	28.995827	2.179810E-5	20.859298
2655.702812	-2.983900	2.889400	-8.620300	29.042472	2.219413E-5	20.876422
2656.703949	-3.027400	2.885900	-8.735800	29.101400	2.146808E-5	20.891226
2657.702916	-2.988500	2.885000	-8.620900	29.128948	2.262316E-5	20.873942
2658.702198	-3.018700	2.881900	-8.699200	29.028690	2.334922E-5	20.880554
2659.703654	-3.025700	2.881100	-8.716700	29.025627	2.173210E-5	20.891217
2660.704265	-2.992100	2.879700	-8.615500	29.014383	2.278818E-5	20.862347
2661.702754	-2.983500	2.878300	-8.586000	29.040051	2.331622E-5	20.887259
2662.706270	-3.001600	2.875500	-8.630000	29.115343	2.193011E-5	20.886785
2663.704103	-2.996200	2.872200	-8.604600	29.180655	2.229314E-5	20.897120
2664.704079	-2.985800	2.872200	-8.575000	29.158545	2.031299E-5	20.874842
2665.708835	-2.993500	2.869400	-8.588400	29.093444	2.090704E-5	20.890322
2666.703960	-2.988000	2.866800	-8.564900	29.122744	2.212813E-5	20.899456
2667.706326	-2.993400	2.867300	-8.582200	29.085845	2.338222E-5	20.890726
2668.707359	-3.019300	2.864400	-8.647800	29.039958	2.219413E-5	20.873416
2669.706079	-3.001900	2.862400	-8.591800	28.982449	1.895989E-5	20.884225
2670.709064	-3.004600	2.860200	-8.592300	28.981043	2.348123E-5	20.873326
2671.707066	-2.988100	2.857300	-8.536500	28.983376	2.344822E-5	20.866194
2672.706933	-2.994500	2.856000	-8.551100	29.017862	2.150108E-5	20.880550
2673.705961	-2.993600	2.854600	-8.544400	29.045352	2.199612E-5	20.901133
2674.706557	-2.981100	2.851100	-8.498100	29.112650	2.457031E-5	20.886915
2675.706118	-2.990900	2.849500	-8.521700	29.183187	2.222714E-5	20.873595
2676.706306	-3.003800	2.847800	-8.553600	29.233042	2.516435E-5	20.898229
2677.707163	-2.998900	2.847800	-8.538900	29.247088	2.410827E-5	20.887728
2678.707580	-2.967100	2.844700	-8.439900	29.292826	2.457031E-5	20.884985
2679.707885	-3.036000	2.840500	-8.622900	29.293132	2.268917E-5	20.887189
2680.708086	-3.020700	2.839400	-8.575700	29.344168	2.245815E-5	20.871297
2681.708396	-2.979700	2.839200	-8.459000	29.248811	2.285418E-5	20.889465
2682.706908	-2.986900	2.837600	-8.474300	29.264373	2.064302E-5	20.898509
2683.708861	-3.034400	2.834300	-8.598900	29.236914	2.354723E-5	20.895493
2684.710629	-2.995900	2.830800	-8.479900	29.200030	2.196312E-5	20.882507
2685.709495	-3.022100	2.829400	-8.550100	29.200715	2.265617E-5	20.907851
2686.708589	-3.005400	2.826900	-8.495200	29.166678	2.090704E-5	20.914328
2687.710029	-3.009300	2.823600	-8.495800	29.122622	2.430629E-5	20.891274
2688.709048	-3.017100	2.822000	-8.513100	29.128720	2.130307E-5	20.886039
2689.708703	-2.978200	2.821200	-8.401400	29.181281	2.196312E-5	20.883054
2690.711063	-2.992000	2.817400	-8.428600	29.187178	2.176510E-5	20.907012
2691.708223	-3.003500	2.814700	-8.453300	29.173463	2.480132E-5	20.915950
2692.710352	-2.967800	2.814000	-8.350200	29.155173	2.305220E-5	20.912218
2693.715700	-2.970500	2.810500	-8.347100	29.154202	2.176510E-5	20.894171
2694.710259	-3.008400	2.807500	-8.444400	29.076144	2.222714E-5	20.901339
2695.710555	-2.968200	2.806400	-8.329000	29.097211	2.407527E-5	20.911660
2696.713051	-2.999900	2.802300	-8.405100	29.139097	2.163309E-5	20.900761
2697.708908	-2.963800	2.800800	-8.299700	29.142491	2.381125E-5	20.892802
2698.709809	-2.998900	2.797500	-8.388400	29.196093	2.473532E-5	20.905564
2699.710358	-2.998700	2.795000	-8.380000	29.232949	2.252416E-5	20.907143
2700.719976	-3.017300	2.792200	-8.424300	29.260639	2.384425E-5	20.909918
2701.711919	-3.013300	2.790900	-8.408500	29.317028	2.024699E-5	20.910796
2702.711301	-2.992900	2.787100	-8.340500	29.295642	2.358023E-5	20.898727
2703.713628	-2.995400	2.783400	-8.336300	29.267669	2.011498E-5	20.898511
2704.710989	-3.003600	2.781100	-8.352400	29.175599	2.549438E-5	20.907671
2705.711132	-2.996200	2.779100	-8.326100	29.149279	2.136907E-5	20.921451
2706.717502	-3.022600	2.775200	-8.387600	29.172241	2.249115E-5	20.923252
2707.711473	-2.977100	2.772800	-8.253800	29.228389	2.070902E-5	20.909186
2708.711574	-3.045900	2.769000	-8.433400	29.297037	2.242515E-5	20.913408
2709.713073	-3.034200	2.766600	-8.393700	29.316953	2.275517E-5	20.918306
2710.715335	-3.024500	2.763900	-8.357900	29.265150	2.054401E-5	20.914937
2711.715662	-3.023800	2.759700	-8.344300	29.188443	2.414128E-5	20.918716
2712.713931	-3.034300	2.757500	-8.365800	29.191322	2.308520E-5	20.918298
2713.713521	-3.031500	2.755200	-8.351500	29.199112	2.239215E-5	20.909080
2714.715741	-2.986500	2.752000	-8.218300	29.232544	2.334922E-5	20.912424
2715.716762	-2.959100	2.749300	-8.134000	29.310005	2.179810E-5	20.926476
2716.714586	-2.997300	2.746800	-8.231000	29.327318	2.331622E-5	20.940604
2717.712549	-2.992700	2.741900	-8.205100	29.322004	2.301919E-5	20.945204
2718.716856	-2.996600	2.740000	-8.209600	29.333821	2.282118E-5	20.909229
2719.715376	-3.020100	2.735700	-8.260800	29.357670	2.384425E-5	20.931366
2720.714786	-2.991400	2.732400	-8.173000	29.380828	2.361324E-5	20.920569
2721.717089	-3.037700	2.728900	-8.287800	29.381649	2.321721E-5	20.893424
2722.716477	-3.004700	2.725200	-8.187500	29.416937	2.212813E-5	20.928513
2723.715105	-2.995300	2.723800	-8.157600	29.445664	2.183111E-5	20.930441
2724.718151	-3.007800	2.720000	-8.180400	29.393051	2.268917E-5	20.936680
2725.715918	-2.991000	2.717000	-8.125600	29.456764	2.321721E-5	20.931673
2726.722429	-3.023000	2.711900	-8.197500	29.472369	2.598941E-5	20.925591
2727.717551	-2.983700	2.709300	-8.082000	29.508219	2.542837E-5	20.933752
2728.714943	-2.991300	2.705000	-8.089900	29.598365	2.321721E-5	20.926475
2729.715169	-2.983300	2.701200	-8.057400	29.675405	2.400927E-5	20.937758
2730.715710	-3.027000	2.696500	-8.160800	29.739735	2.282118E-5	20.935286
2731.716397	-3.020900	2.693000	-8.133200	29.774647	2.351423E-5	20.932080
2732.719720	-2.976900	2.688700	-8.003100	29.701734	2.321721E-5	20.957188
2733.717476	-3.008600	2.684100	-8.074900	29.593420	2.239215E-5	20.939032
2734.718456	-3.018100	2.680900	-8.090300	29.559310	2.318421E-5	20.942578
2735.722594	-2.992700	2.677300	-8.012100	29.548698	2.278818E-5	20.926193
2736.719151	-2.986500	2.671700	-7.978100	29.479407	2.315120E-5	20.942166
2737.724413	-3.003900	2.668500	-8.015100	29.561484	2.404227E-5	20.944296
2738.720860	-3.042100	2.661700	-8.095700	29.641869	2.282118E-5	20.951363
2739.720535	-3.013800	2.659100	-8.013500	29.661353	2.325021E-5	20.930704
2740.720773	-3.002000	2.654800	-7.968800	29.615793	2.183111E-5	20.944041
2741.721874	-3.009400	2.649000	-7.970500	29.587233	2.196312E-5	20.947966
2742.724449	-2.987000	2.644800	-7.899100	29.602214	2.301919E-5	20.937466
2743.722470	-2.988100	2.641300	-7.891900	29.648708	2.529636E-5	20.959679
2744.721829	-2.985400	2.636100	-7.868900	29.602746	2.529636E-5	20.944166
2745.723827	-3.001000	2.631500	-7.896000	29.641194	2.496634E-5	20.952579
2746.725475	-3.013800	2.626000	-7.913100	29.652658	2.466931E-5	20.944222
2747.728155	-3.018600	2.620800	-7.910300	29.643263	2.252416E-5	20.966990
2748.726418	-2.984000	2.616700	-7.806900	29.661511	2.311820E-5	20.939872
2749.726897	-2.983000	2.612700	-7.792600	29.740947	2.374525E-5	20.958317
2750.729490	-3.005500	2.606300	-7.832100	29.702935	2.420728E-5	20.959821
2751.727548	-3.010900	2.601100	-7.830200	29.677664	2.523036E-5	20.929131
2752.731851	-3.003900	2.595600	-7.796000	29.627370	2.526336E-5	20.937222
2753.727370	-2.990300	2.590700	-7.745800	29.704433	2.509835E-5	20.949478
2754.727710	-2.993600	2.584000	-7.733800	29.644734	2.546137E-5	20.958043
2755.727552	-2.979700	2.579900	-7.686200	29.686598	2.410827E-5	20.946671
2756.728121	-3.013200	2.573200	-7.752200	29.697195	2.443830E-5	20.956879
2757.727810	-2.982000	2.567900	-7.656500	29.769450	2.460331E-5	20.945804
2758.727406	-2.986700	2.561200	-7.649000	29.841849	2.249115E-5	20.960008
2759.727142	-3.019400	2.556200	-7.717000	29.862740	2.559338E-5	20.960210
2760.729378	-3.002100	2.549800	-7.653400	29.898338	2.549438E-5	20.970026
2761.729981	-2.983800	2.543700	-7.589400	29.986465	2.509835E-5	20.959798
2762.730833	-3.019800	2.538100	-7.663200	29.872162	2.473532E-5	20.961650
2763.733825	-3.007300	2.530700	-7.609700	29.848732	2.371224E-5	20.965050
2764.733566	-3.018700	2.525300	-7.622500	29.840443	2.559338E-5	20.960960
2765.733176	-3.017400	2.519100	-7.600200	29.882274	2.483433E-5	20.956200
2766.733527	-3.008100	2.512900	-7.557700	29.895176	2.338222E-5	20.960675
2767.734431	-3.000400	2.507100	-7.521200	29.926041	2.222714E-5	20.973778
2768.736925	-2.988300	2.501400	-7.474200	29.904718	2.694648E-5	20.978354
2769.736892	-3.051800	2.492300	-7.605900	29.816540	2.608842E-5	20.983322
