LabVIEW Measurement	
Writer_Version	2
Reader_Version	2
Separator	Tab
Decimal_Separator	.
Multi_Headings	No
X_Columns	One
Time_Pref	Absolute
Operator	admin
Description	Clolumns are: time, Current, Voltage, Power, Battery Temp, and Chamber Temp
Date	2024/08/16
Time	13:07:17.8513970375061035156
***End_of_Header***	
	
Channels	6						
Samples	1	1	1	1	1	1	
Date	2024/09/13	2024/09/13	2024/09/13	2024/09/13	2024/09/13	2024/09/13	
Time	02:26:41.161296844482421875	02:26:41.167308807373046875	02:26:41.1723070144653320312	02:26:41.1449809074401855469	02:26:41.1449809074401855469	02:26:41.1449809074401855469	
X_Dimension	Time	Time	Time	Time	Time	Time	
X0	0.0000000000000000E+0	0.0000000000000000E+0	0.0000000000000000E+0	0.0000000000000000E+0	0.0000000000000000E+0	0.0000000000000000E+0	
Delta_X	1.000000	1.000000	1.000000	1.000000	1.000000	1.000000	
***End_of_Header***							
X_Value	Untitled	Untitled 1	Untitled 2	Untitled 3	Untitled 4	Untitled 5	Comment
0.000000	0.026461	4.083500	0.108050	20.789715	0.000458	20.842819
1.000040	-3.009300	3.914000	-11.778000	20.772796	0.000455	20.830642
1.999875	-3.006300	3.908900	-11.751000	20.785647	0.000454	20.860561
3.000303	-3.030000	3.902300	-11.823000	20.784748	0.000455	20.866301
4.001033	-3.015800	3.899700	-11.760000	20.809578	0.000453	20.848932
5.004485	-3.003800	3.898000	-11.708000	20.785346	0.000454	20.849830
6.001812	-3.022600	3.894700	-11.771000	20.790662	0.000453	20.857516
7.006497	-2.995400	3.893100	-11.660000	20.797749	0.000453	20.880723
8.001316	-3.019500	3.892400	-11.752000	20.827347	0.000454	20.858165
9.002769	-2.985100	3.889700	-11.610000	20.819286	0.000451	20.849631
10.004742	-2.988900	3.890200	-11.625000	20.819161	0.000452	20.865152
11.012951	-2.985500	3.888200	-11.607000	20.829816	0.000451	20.855419
12.013566	-2.995200	3.885000	-11.636000	20.846112	0.000453	20.857491
13.007267	-2.957300	3.886700	-11.493000	20.857066	0.000449	20.845212
14.005908	-2.989800	3.883600	-11.610000	20.875206	0.000450	20.852448
15.010310	-2.974200	3.882900	-11.547000	20.853423	0.000448	20.848681
16.007578	-2.982000	3.881400	-11.573000	20.872188	0.000449	20.848955
17.006790	-2.996600	3.881100	-11.629000	20.894819	0.000447	20.861156
18.007527	-3.009700	3.879900	-11.677000	20.894072	0.000446	20.848082
19.004533	-3.006400	3.879000	-11.661000	20.894970	0.000446	20.861782
20.006926	-3.007300	3.877300	-11.659000	20.923966	0.000446	20.857116
21.009356	-2.987100	3.876600	-11.579000	20.913809	0.000446	20.890104
22.007681	-2.984200	3.876600	-11.568000	20.927383	0.000444	20.861481
23.009126	-2.990600	3.877000	-11.592000	20.944401	0.000446	20.878974
24.010345	-2.991300	3.875200	-11.591000	20.936715	0.000446	20.883615
25.007748	-3.014500	3.874900	-11.680000	20.959146	0.000443	20.880919
26.008352	-2.988700	3.873600	-11.575000	20.950587	0.000446	20.874256
27.012111	-2.980100	3.873100	-11.540000	20.973145	0.000444	20.871687
28.009415	-2.988900	3.873100	-11.575000	20.969676	0.000444	20.862054
29.011139	-3.014900	3.872100	-11.673000	20.962962	0.000447	20.867667
30.008412	-2.980700	3.872900	-11.543000	20.994153	0.000444	20.858086
31.017991	-2.967900	3.872900	-11.494000	20.970124	0.000444	20.871510
32.010248	-3.011100	3.871500	-11.657000	21.005531	0.000444	20.886533
33.009672	-2.967200	3.872200	-11.488000	21.024617	0.000443	20.879071
34.016682	-2.984100	3.871500	-11.553000	21.024842	0.000442	20.877874
35.010332	-3.002900	3.869800	-11.620000	21.030630	0.000444	20.877025
36.009029	-3.024100	3.868200	-11.697000	21.056452	0.000442	20.886257
37.009302	-2.969200	3.869800	-11.490000	21.043905	0.000441	20.874181
38.010146	-3.002800	3.868500	-11.616000	21.053583	0.000443	20.890973
39.010067	-3.013400	3.868800	-11.657000	21.067155	0.000442	20.868514
40.013810	-3.001800	3.867700	-11.608000	21.090284	0.000442	20.867941
41.010746	-2.978400	3.868300	-11.519000	21.092080	0.000441	20.880642
42.009748	-3.001000	3.868300	-11.607000	21.112586	0.000440	20.872230
43.015095	-2.984900	3.867200	-11.542000	21.114058	0.000442	20.881763
44.012197	-2.993600	3.866400	-11.573000	21.115929	0.000440	20.893117
45.016610	-3.022200	3.867700	-11.687000	21.133294	0.000443	20.854539
46.017927	-3.007900	3.866500	-11.629000	21.136986	0.000443	20.863921
47.011913	-2.989300	3.866100	-11.556000	21.145542	0.000441	20.884806
48.017192	-2.985800	3.865500	-11.539000	21.160735	0.000443	20.885306
49.013856	-2.995500	3.865700	-11.579000	21.155297	0.000443	20.876073
50.020473	-2.983600	3.865500	-11.531000	21.172610	0.000441	20.861624
51.015275	-3.020900	3.864500	-11.673000	21.186406	0.000440	20.861200
52.019382	-2.998400	3.866000	-11.591000	21.173832	0.000441	20.865691
53.019396	-2.981700	3.865800	-11.526000	21.168394	0.000442	20.860252
54.015993	-2.981900	3.863700	-11.520000	21.198605	0.000443	20.868187
55.019884	-2.993100	3.864600	-11.566000	21.219933	0.000443	20.858703
56.018207	-2.993600	3.864000	-11.566000	21.209231	0.000441	20.864119
57.015642	-3.019000	3.863000	-11.661000	21.217764	0.000441	20.859853
58.023538	-3.007200	3.863100	-11.616000	21.221305	0.000441	20.864343
59.017861	-3.004300	3.862800	-11.604000	21.250692	0.000442	20.861973
60.017053	-2.989100	3.863700	-11.547000	21.253785	0.000439	20.862222
61.021334	-2.981500	3.863100	-11.517000	21.266307	0.000442	20.866214
62.016932	-2.990100	3.863800	-11.552000	21.277034	0.000439	20.847549
63.018205	-2.995300	3.861700	-11.565000	21.289506	0.000439	20.869982
64.023540	-2.999800	3.861500	-11.583000	21.280300	0.000441	20.846550
65.018830	-3.002400	3.860400	-11.589000	21.301778	0.000438	20.841958
66.021399	-3.007800	3.860700	-11.612000	21.303499	0.000441	20.839412
67.023011	-2.982200	3.861200	-11.514000	21.307990	0.000440	20.829681
68.019569	-3.013300	3.861200	-11.634000	21.323778	0.000441	20.851640
69.020148	-2.995300	3.861400	-11.565000	21.333831	0.000439	20.851740
70.026562	-2.994000	3.861200	-11.560000	21.333781	0.000440	20.850267
71.022134	-2.975000	3.860700	-11.485000	21.330090	0.000441	20.856531
72.024407	-3.002200	3.861600	-11.593000	21.355956	0.000439	20.832150
73.024789	-3.008100	3.861800	-11.615000	21.358949	0.000443	20.836568
74.022863	-3.011100	3.860200	-11.623000	21.389829	0.000439	20.838065
75.023807	-2.980100	3.860900	-11.504000	21.363290	0.000440	20.861298
76.030621	-2.982000	3.861500	-11.514000	21.384540	0.000441	20.821868
77.024909	-2.989000	3.859600	-11.536000	21.376183	0.000443	20.835792
78.023469	-3.006900	3.859600	-11.604000	21.408733	0.000442	20.827107
79.025665	-3.011600	3.858600	-11.619000	21.413448	0.000441	20.837040
80.026733	-2.989800	3.859900	-11.540000	21.439187	0.000439	20.836241
81.030901	-2.998200	3.857000	-11.563000	21.429285	0.000442	20.831550
82.029837	-2.988100	3.858900	-11.528000	21.436194	0.000444	20.832772
83.033803	-3.002100	3.858300	-11.582000	21.474977	0.000441	20.838860
84.026282	-3.003500	3.858000	-11.587000	21.467295	0.000440	20.824536
85.026913	-3.027000	3.857900	-11.677000	21.474453	0.000444	20.850190
86.026825	-2.987000	3.858500	-11.525000	21.480962	0.000443	20.802650
87.029510	-2.997400	3.857800	-11.562000	21.500092	0.000443	20.825110
88.028944	-2.981900	3.857900	-11.503000	21.498297	0.000443	20.838486
89.033864	-3.005600	3.857300	-11.593000	21.522812	0.000443	20.826508
90.028811	-3.018400	3.857000	-11.641000	21.517226	0.000444	20.838461
91.031729	-2.999700	3.857400	-11.570000	21.509394	0.000443	20.829677
92.030095	-2.997300	3.858000	-11.563000	21.518498	0.000444	20.828828
93.032106	-3.015300	3.856300	-11.627000	21.533090	0.000444	20.836791
94.031397	-2.979300	3.857800	-11.493000	21.542716	0.000444	20.820819
95.031004	-2.988300	3.857400	-11.526000	21.549276	0.000445	20.841134
96.030582	-2.999500	3.857400	-11.569000	21.562416	0.000445	20.834368
97.031634	-3.022000	3.855500	-11.649000	21.538301	0.000446	20.819247
98.033786	-3.013100	3.856100	-11.617000	21.575161	0.000444	20.837164
99.033077	-3.003600	3.855400	-11.579000	21.588403	0.000442	20.833346
100.033662	-2.991200	3.855500	-11.531000	21.603168	0.000445	20.818724
101.037277	-2.997900	3.854200	-11.553000	21.618703	0.000445	20.839959
102.033316	-2.995900	3.854600	-11.547000	21.612419	0.000448	20.809490
103.037730	-3.011400	3.854400	-11.605000	21.624889	0.000446	20.805847
104.035382	-2.998800	3.855000	-11.560000	21.646210	0.000446	20.809166
105.035612	-3.004700	3.854800	-11.582000	21.651645	0.000446	20.818399
106.034656	-2.990500	3.854800	-11.527000	21.648878	0.000447	20.833172
107.036097	-2.984600	3.855000	-11.504000	21.658129	0.000446	20.821093
108.035788	-2.977600	3.854200	-11.475000	21.638826	0.000445	20.827381
109.041953	-3.010700	3.852600	-11.598000	21.676009	0.000446	20.810064
110.036746	-3.018700	3.852500	-11.629000	21.685135	0.000448	20.814455
111.036872	-3.019900	3.853000	-11.635000	21.680871	0.000447	20.809240
112.038973	-2.989600	3.854000	-11.521000	21.683041	0.000447	20.823265
113.038493	-2.998100	3.853600	-11.553000	21.699349	0.000449	20.826783
114.040138	-3.010900	3.852600	-11.598000	21.709773	0.000449	20.797862
115.037468	-2.986600	3.854200	-11.510000	21.720468	0.000450	20.799082
116.039422	-2.993100	3.852100	-11.529000	21.744704	0.000450	20.791095
117.040251	-3.004700	3.852000	-11.573000	21.759692	0.000451	20.802303
118.039626	-2.992800	3.853200	-11.531000	21.771785	0.000450	20.819147
119.040498	-2.997000	3.851900	-11.543000	21.751313	0.000449	20.798184
120.039778	-2.996500	3.853000	-11.544000	21.766649	0.000450	20.811636
121.039991	-3.002700	3.852400	-11.566000	21.759916	0.000448	20.798259
122.039835	-3.000700	3.851500	-11.556000	21.780588	0.000448	20.820370
123.041278	-2.976500	3.852400	-11.466000	21.789813	0.000447	20.789774
124.043187	-2.996800	3.851000	-11.540000	21.797816	0.000451	20.798733
125.045868	-3.010500	3.850400	-11.590000	21.815069	0.000451	20.819795
126.043725	-3.004800	3.850900	-11.571000	21.822225	0.000450	20.789973
127.043119	-2.972000	3.851200	-11.445000	21.838085	0.000450	20.832873
128.043086	-2.998700	3.851000	-11.547000	21.824445	0.000450	20.804997
129.043530	-3.011200	3.850800	-11.594000	21.852794	0.000453	20.808716
130.047209	-3.005500	3.849500	-11.568000	21.854814	0.000451	20.808367
131.045367	-3.016500	3.849600	-11.612000	21.854089	0.000451	20.809537
132.044410	-2.968400	3.849700	-11.427000	21.869099	0.000451	20.801802
133.044207	-3.005500	3.850000	-11.570000	21.868675	0.000453	20.826982
134.044100	-2.988100	3.849600	-11.500000	21.862766	0.000451	20.808739
135.045581	-2.978000	3.849100	-11.460000	21.861595	0.000450	20.798558
136.044664	-3.004900	3.847900	-11.561000	21.869846	0.000454	20.805869
137.043685	-2.989000	3.849300	-11.504000	21.908091	0.000453	20.790097
138.046734	-3.004200	3.849300	-11.563000	21.917939	0.000449	20.805644
139.044065	-2.989000	3.850100	-11.507000	21.927289	0.000454	20.797934
140.051080	-3.014100	3.848600	-11.599000	21.927114	0.000456	20.804397
141.046391	-3.016600	3.847800	-11.607000	21.935317	0.000454	20.804547
142.045977	-2.993700	3.848700	-11.520000	21.947334	0.000453	20.791446
143.045419	-2.998200	3.847400	-11.534000	21.948431	0.000452	20.784484
144.045743	-3.005700	3.846800	-11.562000	21.972439	0.000454	20.805670
145.045719	-2.995400	3.848100	-11.526000	21.948855	0.000455	20.794865
146.048799	-2.985100	3.847700	-11.485000	21.964063	0.000455	20.808191
147.047567	-2.977900	3.847200	-11.456000	21.971493	0.000456	20.782438
148.050077	-2.985100	3.848700	-11.487000	21.967877	0.000454	20.814854
149.051822	-2.996600	3.847300	-11.527000	22.006694	0.000455	20.788752
150.047393	-2.990800	3.846100	-11.502000	22.005098	0.000455	20.800905
151.052853	-3.010200	3.845800	-11.575000	22.024943	0.000459	20.795167
152.052591	-3.005100	3.846600	-11.559000	22.028333	0.000458	20.779121
153.051176	-3.015900	3.846400	-11.600000	22.033518	0.000459	20.793320
154.050282	-2.996200	3.846000	-11.522000	22.041595	0.000459	20.810415
155.051599	-2.979200	3.845700	-11.455000	22.061066	0.000460	20.809992
156.053703	-3.000000	3.845900	-11.537000	22.048900	0.000459	20.808718
157.053485	-2.972300	3.845500	-11.429000	22.055532	0.000460	20.785486
158.052955	-2.989900	3.846300	-11.499000	22.071511	0.000459	20.800060
159.053191	-2.993000	3.845000	-11.507000	22.084323	0.000460	20.776851
160.052253	-3.003800	3.845300	-11.549000	22.089808	0.000463	20.798938
161.053569	-2.959100	3.846500	-11.381000	22.123061	0.000461	20.780546
162.056362	-2.998300	3.844300	-11.526000	22.105638	0.000461	20.789181
163.056767	-3.003400	3.844500	-11.546000	22.125804	0.000461	20.815534
164.057129	-3.011100	3.844400	-11.575000	22.149808	0.000462	20.797367
165.057608	-3.002400	3.844200	-11.541000	22.140111	0.000461	20.789081
166.056295	-3.007700	3.843800	-11.560000	22.176529	0.000461	20.785239
167.060686	-3.013500	3.842800	-11.579000	22.152775	0.000465	20.762404
168.057930	-3.005300	3.843900	-11.551000	22.161598	0.000463	20.786885
169.057782	-3.006200	3.843200	-11.552000	22.165385	0.000464	20.781194
170.056700	-3.034400	3.842500	-11.658000	22.182636	0.000463	20.792775
171.056607	-2.994800	3.842800	-11.508000	22.196169	0.000465	20.792575
172.057375	-3.012800	3.841600	-11.573000	22.214090	0.000462	20.802931
173.059582	-2.996000	3.843900	-11.515000	22.218752	0.000465	20.775831
174.057430	-2.981900	3.842200	-11.456000	22.252822	0.000462	20.792874
175.056991	-2.989700	3.843100	-11.489000	22.241183	0.000466	20.760357
176.059513	-2.980800	3.843400	-11.456000	22.223312	0.000467	20.787982
177.057189	-2.996500	3.841700	-11.510000	22.245744	0.000464	20.759708
178.062445	-3.006300	3.842400	-11.550000	22.236596	0.000466	20.770937
179.058865	-3.003000	3.841700	-11.534000	22.225531	0.000468	20.785937
180.060781	-3.016400	3.841200	-11.586000	22.230440	0.000467	20.779472
181.061762	-3.010000	3.840300	-11.558000	22.231362	0.000466	20.769964
182.058877	-3.020700	3.839400	-11.596000	22.264785	0.000468	20.780195
183.059085	-3.003000	3.839900	-11.531000	22.258853	0.000471	20.781843
184.059919	-3.025600	3.839700	-11.616000	22.286269	0.000467	20.793173
185.058279	-2.966500	3.842000	-11.396000	22.282081	0.000468	20.783763
186.059981	-3.000300	3.839400	-11.518000	22.293221	0.000471	20.785909
187.060428	-2.991600	3.839700	-11.486000	22.315428	0.000469	20.778274
188.063255	-3.019100	3.838500	-11.588000	22.302566	0.000464	20.771085
189.061060	-3.003600	3.839800	-11.533000	22.294891	0.000471	20.785685
190.061037	-3.012600	3.840200	-11.568000	22.310943	0.000471	20.788007
191.062512	-2.991200	3.838500	-11.480000	22.295091	0.000471	20.795368
192.061148	-2.985700	3.839000	-11.461000	22.320585	0.000469	20.767317
193.065158	-3.020300	3.837800	-11.591000	22.321805	0.000473	20.768537
194.062956	-2.996500	3.838000	-11.499000	22.334292	0.000473	20.781516
195.062439	-3.012000	3.837600	-11.557000	22.342517	0.000474	20.774579
196.062964	-2.985800	3.839700	-11.464000	22.362902	0.000471	20.765119
197.064730	-3.024900	3.837300	-11.606000	22.349220	0.000472	20.765644
198.066074	-3.013400	3.837500	-11.563000	22.356546	0.000472	20.779618
199.064492	-3.006200	3.836000	-11.531000	22.397641	0.000472	20.756284
200.063009	-3.012500	3.838000	-11.561000	22.414486	0.000474	20.775525
201.065321	-2.999100	3.837100	-11.507000	22.410697	0.000475	20.762247
202.068142	-2.987800	3.838000	-11.465000	22.407409	0.000474	20.769386
203.066020	-2.988800	3.837200	-11.467000	22.425027	0.000472	20.763320
204.069742	-2.991400	3.837100	-11.478000	22.424180	0.000476	20.763894
205.065286	-3.003300	3.835700	-11.519000	22.458193	0.000477	20.764292
206.065364	-3.004700	3.834800	-11.521000	22.435617	0.000472	20.772029
207.066733	-3.003800	3.836200	-11.521000	22.451541	0.000476	20.762846
208.065252	-2.993200	3.836600	-11.483000	22.457295	0.000476	20.764815
209.067003	-2.977400	3.836000	-11.421000	22.459289	0.000474	20.769657
210.065902	-2.993500	3.834200	-11.476000	22.467014	0.000477	20.754633
211.064881	-2.972200	3.836000	-11.400000	22.489715	0.000478	20.762195
212.066842	-2.997700	3.835600	-11.497000	22.472222	0.000477	20.769333
213.065669	-2.998800	3.834400	-11.498000	22.496642	0.000476	20.757278
214.065368	-3.004600	3.833800	-11.518000	22.502273	0.000478	20.761970
215.067340	-3.018300	3.834300	-11.572000	22.493975	0.000478	20.773574
216.066839	-2.995900	3.833800	-11.485000	22.503370	0.000477	20.767336
217.067904	-3.009400	3.833100	-11.534000	22.550389	0.000479	20.740457
218.072753	-3.008000	3.832700	-11.528000	22.557914	0.000478	20.772650
219.069923	-2.999500	3.833200	-11.497000	22.565614	0.000481	20.763766
220.073661	-2.991200	3.834000	-11.468000	22.581262	0.000480	20.752411
221.070486	-3.003300	3.832300	-11.509000	22.575082	0.000479	20.777991
222.070258	-2.998000	3.832700	-11.490000	22.560606	0.000478	20.757328
223.070429	-2.973700	3.832600	-11.396000	22.544410	0.000480	20.755806
224.070598	-2.997900	3.832400	-11.488000	22.551113	0.000479	20.748294
225.072914	-3.003700	3.830800	-11.505000	22.572242	0.000478	20.763292
226.071680	-3.001400	3.830800	-11.497000	22.580091	0.000481	20.754084
227.069948	-3.007500	3.831300	-11.521000	22.560531	0.000481	20.755831
228.069906	-2.982800	3.831300	-11.427000	22.575506	0.000481	20.744750
229.071514	-2.998100	3.830700	-11.485000	22.564517	0.000480	20.778790
230.070495	-2.990600	3.831200	-11.456000	22.565140	0.000483	20.765189
231.072241	-2.975200	3.830900	-11.397000	22.570472	0.000482	20.765787
232.072277	-2.992800	3.830600	-11.463000	22.584749	0.000481	20.747844
233.070537	-3.006000	3.829300	-11.510000	22.609268	0.000481	20.759125
234.075317	-2.990700	3.829100	-11.451000	22.612108	0.000483	20.750590
235.073940	-2.999400	3.830200	-11.488000	22.609643	0.000482	20.754284
236.073942	-2.986300	3.830600	-11.439000	22.645146	0.000484	20.746696
237.074761	-3.014800	3.828800	-11.542000	22.647214	0.000484	20.750665
238.075096	-3.016700	3.828300	-11.548000	22.695225	0.000483	20.752288
239.076150	-2.999700	3.828100	-11.482000	22.685136	0.000486	20.723214
240.074116	-3.022800	3.828600	-11.572000	22.673350	0.000483	20.748868
241.078138	-2.978400	3.828700	-11.402000	22.695997	0.000485	20.748793
242.076976	-2.984600	3.828600	-11.425000	22.711445	0.000485	20.752413
243.076423	-2.991500	3.827600	-11.449000	22.718893	0.000486	20.751813
244.077342	-2.999900	3.827300	-11.481000	22.717972	0.000485	20.734294
245.077626	-2.997800	3.828300	-11.475000	22.747344	0.000485	20.752812
246.080896	-2.997200	3.828500	-11.474000	22.741514	0.000485	20.729901
247.080489	-3.021500	3.827300	-11.563000	22.753498	0.000486	20.740009
248.077966	-2.995900	3.828200	-11.468000	22.779483	0.000487	20.731425
249.078333	-3.008600	3.826600	-11.512000	22.779506	0.000487	20.735717
250.079430	-2.991200	3.826500	-11.445000	22.792909	0.000487	20.751515
251.079051	-2.966000	3.827400	-11.351000	22.814110	0.000487	20.749993
252.079620	-2.987300	3.826400	-11.429000	22.823427	0.000489	20.741782
253.078466	-2.989000	3.826200	-11.435000	22.800806	0.000491	20.749468
254.078847	-3.012000	3.826000	-11.523000	22.794304	0.000489	20.716400
255.079602	-2.989800	3.827200	-11.442000	22.795551	0.000489	20.745626
256.079733	-2.984600	3.826000	-11.418000	22.785511	0.000488	20.722291
257.082827	-3.008200	3.825700	-11.508000	22.780304	0.000490	20.732249
258.080815	-3.009500	3.824000	-11.507000	22.761894	0.000490	20.731350
259.079291	-2.968700	3.825700	-11.357000	22.772606	0.000490	20.729752
260.079751	-3.011200	3.824300	-11.515000	22.810996	0.000491	20.735019
261.082819	-2.987000	3.824600	-11.423000	22.808157	0.000491	20.734546
262.082452	-3.000900	3.823100	-11.472000	22.814682	0.000493	20.730651
263.080518	-2.983900	3.824200	-11.410000	22.817297	0.000491	20.736116
264.088146	-3.003600	3.823000	-11.482000	22.853545	0.000491	20.743505
265.080606	-2.994200	3.823000	-11.446000	22.836480	0.000492	20.721192
266.080931	-2.990600	3.822300	-11.429000	22.839893	0.000491	20.740734
267.083205	-3.005200	3.822400	-11.486000	22.875615	0.000492	20.740011
268.082277	-2.978900	3.822500	-11.386000	22.885404	0.000492	20.731325
269.079908	-3.007600	3.822500	-11.495000	22.906403	0.000493	20.728181
270.081126	-2.981400	3.823700	-11.398000	22.901472	0.000493	20.749320
271.080888	-2.991900	3.822100	-11.435000	22.896190	0.000492	20.736441
272.081512	-2.993400	3.821600	-11.439000	22.909169	0.000494	20.740910
273.082832	-2.999600	3.821800	-11.462000	22.902767	0.000493	20.733073
274.081061	-2.976100	3.822200	-11.374000	22.927925	0.000495	20.732200
275.082383	-3.004800	3.820200	-11.477000	22.915271	0.000495	20.719521
276.081196	-3.009400	3.820300	-11.496000	22.928947	0.000496	20.726111
277.082595	-3.009900	3.819900	-11.497000	22.936219	0.000495	20.732923
278.090135	-2.986600	3.820700	-11.410000	22.961129	0.000495	20.713308
279.083376	-3.015400	3.820000	-11.517000	22.969048	0.000497	20.710336
280.083148	-3.008000	3.820500	-11.491000	22.926506	0.000496	20.718449
281.083873	-2.998400	3.819800	-11.452000	22.925957	0.000497	20.723115
282.084055	-2.995800	3.819100	-11.441000	22.933928	0.000496	20.735843
283.084489	-2.986500	3.820500	-11.409000	22.924961	0.000498	20.709788
284.088899	-2.980100	3.820600	-11.385000	22.947703	0.000496	20.717874
285.084439	-2.985700	3.819100	-11.402000	22.947404	0.000497	20.707143
286.083931	-2.965300	3.820000	-11.327000	22.968876	0.000499	20.720596
287.089777	-2.963600	3.818900	-11.317000	22.972735	0.000499	20.734421
288.086605	-3.004000	3.817800	-11.468000	22.989449	0.000500	20.719871
289.087220	-2.986600	3.818300	-11.402000	23.005987	0.000499	20.722217
290.094768	-2.996500	3.818400	-11.441000	22.999187	0.000496	20.713981
291.087347	-2.999000	3.817900	-11.449000	23.022152	0.000500	20.726560
292.087035	-3.004900	3.817200	-11.469000	23.067953	0.000500	20.729778
293.086200	-3.021200	3.816200	-11.528000	23.089871	0.000499	20.719497
294.090013	-2.998000	3.816600	-11.441000	23.077343	0.000501	20.706943
295.087658	-3.015800	3.816600	-11.509000	23.049722	0.000500	20.722890
296.085721	-3.014800	3.815600	-11.502000	23.049824	0.000502	20.723466
297.086683	-2.987500	3.816000	-11.399000	23.048502	0.000500	20.725935
298.087712	-3.023200	3.815000	-11.532000	23.072911	0.000503	20.713408
299.087271	-3.011100	3.815000	-11.487000	23.067904	0.000504	20.723564
300.086883	-3.017300	3.814300	-11.508000	23.047183	0.000504	20.722716
301.088288	-3.009200	3.814500	-11.477000	23.079485	0.000501	20.710037
302.087399	-3.029900	3.813600	-11.553000	23.089946	0.000503	20.719572
303.090077	-3.003400	3.814300	-11.455000	23.114876	0.000503	20.722267
304.090367	-3.016100	3.813900	-11.502000	23.093831	0.000503	20.716352
305.091831	-3.028800	3.813500	-11.549000	23.099983	0.000504	20.713508
306.088094	-2.994500	3.815800	-11.425000	23.100083	0.000504	20.735895
307.088490	-3.006100	3.814300	-11.465000	23.096795	0.000506	20.731176
308.087188	-3.020400	3.813400	-11.517000	23.099635	0.000507	20.732600
309.086058	-3.018000	3.812300	-11.505000	23.121352	0.000503	20.729231
310.101623	-2.992900	3.813100	-11.411000	23.117765	0.000507	20.731801
311.091801	-2.987000	3.813400	-11.390000	23.110942	0.000504	20.730654
312.091659	-3.005600	3.812600	-11.457000	23.117741	0.000503	20.731303
313.088322	-3.000000	3.811700	-11.435000	23.168221	0.000508	20.724988
314.092172	-2.976400	3.812300	-11.346000	23.157612	0.000507	20.726211
315.089602	-2.999000	3.811400	-11.429000	23.170487	0.000508	20.752391
316.093590	-3.005100	3.811300	-11.452000	23.159206	0.000506	20.724015
317.090965	-2.967800	3.811500	-11.311000	23.159779	0.000508	20.725538
318.091619	-3.035000	3.810100	-11.562000	23.178556	0.000505	20.720172
319.091907	-3.006800	3.810400	-11.455000	23.167374	0.000507	20.740735
320.094575	-2.995900	3.811100	-11.416000	23.180076	0.000505	20.725962
321.093626	-3.000400	3.810300	-11.431000	23.186625	0.000505	20.716877
322.091889	-2.989800	3.811100	-11.393000	23.210781	0.000507	20.746776
323.091813	-2.994100	3.810700	-11.409000	23.244524	0.000509	20.741710
324.091316	-3.010600	3.809000	-11.466000	23.257746	0.000508	20.732675
325.092669	-2.990200	3.809800	-11.391000	23.237700	0.000510	20.720646
326.093648	-3.011000	3.808600	-11.467000	23.227216	0.000508	20.720571
327.095791	-3.021800	3.809100	-11.509000	23.217728	0.000510	20.734297
328.093127	-3.002300	3.809000	-11.434000	23.199973	0.000510	20.732151
329.092881	-3.008200	3.808000	-11.454000	23.186450	0.000509	20.731402
330.102153	-3.006400	3.808100	-11.447000	23.232445	0.000510	20.734821
331.095017	-2.988500	3.808500	-11.380000	23.262824	0.000512	20.728755
332.094530	-2.988200	3.807800	-11.377000	23.253637	0.000510	20.732350
333.092217	-3.027900	3.805900	-11.523000	23.238097	0.000511	20.723888
334.093163	-3.006000	3.807000	-11.443000	23.250348	0.000511	20.739961
335.102067	-2.989000	3.806500	-11.377000	23.240313	0.000511	20.727058
336.093658	-2.992500	3.806800	-11.391000	23.288123	0.000510	20.723289
337.095476	-3.019800	3.805600	-11.491000	23.306674	0.000513	20.734295
338.094835	-3.001700	3.804600	-11.419000	23.292183	0.000511	20.739212
339.098051	-2.996700	3.805500	-11.402000	23.302541	0.000510	20.747698
340.096815	-3.018300	3.805200	-11.485000	23.334637	0.000510	20.745726
341.096768	-3.037900	3.803400	-11.554000	23.320691	0.000512	20.745973
342.100366	-2.982600	3.805200	-11.349000	23.315165	0.000513	20.753712
343.098399	-2.997400	3.805900	-11.407000	23.295121	0.000513	20.748322
344.116430	-3.005300	3.805000	-11.433000	23.325474	0.000511	20.752189
345.099011	-3.000200	3.804900	-11.415000	23.322287	0.000512	20.748521
346.098601	-3.006300	3.804400	-11.436000	23.319323	0.000514	20.727058
347.097837	-3.018600	3.802900	-11.478000	23.353660	0.000513	20.715003
348.098490	-3.016300	3.803200	-11.471000	23.347859	0.000513	20.741433
349.099651	-2.997100	3.803800	-11.400000	23.349478	0.000514	20.751117
350.099473	-2.993500	3.803700	-11.385000	23.340316	0.000517	20.765168
351.101374	-2.988100	3.802500	-11.361000	23.358044	0.000514	20.738364
352.100301	-2.997600	3.802300	-11.397000	23.379979	0.000513	20.746599
353.102546	-3.018000	3.800500	-11.469000	23.407193	0.000516	20.764394
354.100149	-3.017500	3.800600	-11.468000	23.435900	0.000516	20.759976
355.101896	-3.024100	3.801200	-11.493000	23.454772	0.000515	20.747597
356.101257	-3.006100	3.801500	-11.426000	23.471975	0.000514	20.738288
357.101257	-3.008500	3.801000	-11.435000	23.496599	0.000516	20.762023
358.102952	-3.037600	3.800500	-11.542000	23.476282	0.000518	20.744028
359.106713	-3.013400	3.801300	-11.454000	23.472723	0.000517	20.749469
360.103581	-2.999900	3.800200	-11.400000	23.482931	0.000515	20.766814
361.102906	-3.007900	3.800800	-11.431000	23.464856	0.000519	20.756757
362.109700	-2.982300	3.800400	-11.333000	23.411899	0.000517	20.759627
363.105030	-2.990200	3.800200	-11.363000	23.446382	0.000517	20.771905
364.108186	-2.996100	3.800200	-11.385000	23.421111	0.000517	20.758428
365.105439	-3.015300	3.799000	-11.454000	23.444242	0.000516	20.762647
366.107704	-2.993300	3.798600	-11.370000	23.469561	0.000519	20.774750
367.107219	-3.008400	3.798000	-11.425000	23.468044	0.000518	20.740985
368.107371	-2.989700	3.798100	-11.354000	23.466573	0.000518	20.752314
369.108772	-3.005200	3.797700	-11.412000	23.499311	0.000518	20.754784
370.107637	-3.022700	3.796900	-11.476000	23.485668	0.000518	20.747746
371.107942	-2.988200	3.798900	-11.351000	23.496076	0.000518	20.752963
372.107186	-2.987500	3.797800	-11.345000	23.460647	0.000519	20.757280
373.109152	-3.001800	3.796100	-11.395000	23.505933	0.000517	20.750990
374.109289	-2.984600	3.797700	-11.334000	23.510489	0.000520	20.774049
375.111637	-2.998600	3.796100	-11.382000	23.558937	0.000519	20.733946
376.109429	-3.000200	3.795600	-11.386000	23.561800	0.000518	20.766689
377.109306	-2.994000	3.796700	-11.366000	23.537601	0.000518	20.767561
378.112239	-3.016200	3.796500	-11.450000	23.552264	0.000521	20.759026
379.113211	-3.017400	3.795300	-11.451000	23.573673	0.000521	20.766738
380.114682	-2.996700	3.794700	-11.371000	23.586444	0.000523	20.751090
381.112926	-2.989900	3.794700	-11.345000	23.598095	0.000519	20.772254
382.110724	-2.989900	3.796000	-11.349000	23.638770	0.000521	20.778891
383.112694	-2.986600	3.794800	-11.333000	23.629213	0.000522	20.769785
384.113597	-2.994800	3.795100	-11.364000	23.603273	0.000520	20.771281
385.114915	-2.998600	3.794200	-11.377000	23.630831	0.000519	20.772354
386.114769	-3.010600	3.792900	-11.418000	23.599091	0.000522	20.766140
387.114205	-3.004000	3.794700	-11.398000	23.629139	0.000523	20.759752
388.114744	-3.006400	3.792700	-11.402000	23.644199	0.000523	20.774376
389.116473	-3.007300	3.793400	-11.407000	23.618160	0.000523	20.750643
390.115780	-2.992400	3.793000	-11.350000	23.589309	0.000523	20.760126
391.116642	-3.013800	3.791600	-11.426000	23.584877	0.000523	20.784607
392.114711	-3.012700	3.790700	-11.420000	23.612734	0.000522	20.767015
393.115450	-2.993700	3.792400	-11.352000	23.622242	0.000524	20.765167
394.119801	-2.996100	3.792900	-11.363000	23.653883	0.000522	20.777920
395.116508	-2.981800	3.790600	-11.302000	23.644497	0.000523	20.767088
396.120896	-2.997900	3.791100	-11.364000	23.654504	0.000524	20.765267
397.116867	-2.978300	3.791200	-11.291000	23.657019	0.000524	20.764469
398.117233	-2.994900	3.791600	-11.354000	23.680245	0.000524	20.766417
399.117286	-2.985300	3.791300	-11.317000	23.695203	0.000524	20.790897
400.118826	-2.985900	3.791300	-11.320000	23.711556	0.000526	20.775049
401.124934	-3.013000	3.790400	-11.420000	23.683330	0.000524	20.775675
402.120505	-3.013000	3.788600	-11.414000	23.706728	0.000524	20.777321
403.118941	-3.001800	3.790000	-11.375000	23.699186	0.000523	20.784933
404.120625	-3.013000	3.789600	-11.418000	23.711407	0.000525	20.793867
405.124180	-3.010400	3.788100	-11.402000	23.720743	0.000526	20.770983
406.120179	-2.980900	3.789200	-11.293000	23.720593	0.000528	20.789799
407.122446	-3.002100	3.789200	-11.375000	23.753946	0.000526	20.771556
408.121382	-3.004500	3.788200	-11.380000	23.732093	0.000525	20.815554
409.121125	-2.995100	3.788000	-11.345000	23.734955	0.000524	20.786656
410.122185	-2.988100	3.789200	-11.322000	23.710437	0.000526	20.781514
411.122536	-2.972000	3.787900	-11.257000	23.701700	0.000526	20.784135
412.122834	-2.993900	3.786300	-11.335000	23.718551	0.000527	20.796762
413.122265	-3.001300	3.785600	-11.361000	23.722285	0.000529	20.793867
414.121987	-2.979400	3.787600	-11.284000	23.749689	0.000528	20.784833
415.122782	-3.000300	3.785700	-11.358000	23.746928	0.000527	20.788702
416.122557	-2.996800	3.786600	-11.347000	23.762186	0.000526	20.795466
417.121997	-3.008400	3.785400	-11.387000	23.759897	0.000526	20.803601
418.123685	-3.012200	3.785100	-11.400000	23.770624	0.000528	20.798236
419.122945	-3.015700	3.784900	-11.413000	23.795165	0.000526	20.802453
420.122679	-3.001300	3.785400	-11.360000	23.811991	0.000528	20.798935
421.126441	-2.997100	3.785000	-11.344000	23.829836	0.000526	20.771783
422.125309	-3.019100	3.783200	-11.421000	23.810449	0.000527	20.806872
423.131009	-2.992100	3.784600	-11.323000	23.832698	0.000526	20.806895
424.125128	-2.997000	3.783700	-11.338000	23.807860	0.000528	20.786732
425.124638	-3.006400	3.783700	-11.374000	23.820926	0.000526	20.804101
426.129122	-3.008000	3.783500	-11.379000	23.807237	0.000528	20.801281
427.126910	-3.010200	3.782800	-11.386000	23.815451	0.000528	20.803827
428.143307	-3.007500	3.783200	-11.377000	23.822668	0.000529	20.805373
429.127789	-3.011600	3.782500	-11.390000	23.856915	0.000527	20.810789
430.127586	-2.997800	3.783600	-11.342000	23.880035	0.000528	20.796988
431.125690	-2.999800	3.782700	-11.347000	23.896685	0.000529	20.800408
432.127912	-3.021000	3.781000	-11.422000	23.868688	0.000529	20.798412
433.133230	-2.988400	3.782900	-11.303000	23.872519	0.000530	20.815530
434.128035	-3.000400	3.781700	-11.345000	23.848802	0.000530	20.814982
435.128337	-3.009500	3.782100	-11.381000	23.878493	0.000531	20.805399
436.128047	-2.990400	3.780800	-11.305000	23.888050	0.000528	20.796965
437.128459	-3.008900	3.780700	-11.374000	23.890415	0.000529	20.796016
438.128187	-3.049400	3.778900	-11.522000	23.896463	0.000528	20.817254
439.130840	-3.008200	3.779800	-11.369000	23.909900	0.000529	20.807495
440.129978	-3.000300	3.780300	-11.341000	23.895568	0.000530	20.777476
441.128861	-2.984700	3.780300	-11.282000	23.863388	0.000530	20.792624
442.130979	-2.993100	3.779600	-11.311000	23.857664	0.000529	20.808221
443.135753	-2.987500	3.779900	-11.291000	23.844472	0.000531	20.816330
444.131443	-3.003300	3.777800	-11.345000	23.835986	0.000528	20.822520
445.132466	-2.999600	3.778500	-11.332000	23.858609	0.000528	20.816281
446.129553	-2.983200	3.778400	-11.271000	23.873170	0.000532	20.825191
447.131034	-2.988100	3.777100	-11.285000	23.893353	0.000531	20.817455
448.132302	-3.012600	3.777100	-11.378000	23.921426	0.000531	20.821423
449.130826	-2.999300	3.776900	-11.328000	23.934392	0.000533	20.811666
450.134957	-3.028100	3.776800	-11.436000	23.905597	0.000531	20.808396
451.133507	-3.003900	3.778100	-11.349000	23.911098	0.000532	20.837145
452.132625	-3.011800	3.775800	-11.371000	23.947755	0.000532	20.833126
453.135770	-3.031700	3.774200	-11.441000	23.921078	0.000532	20.812065
454.133345	-3.020700	3.774600	-11.400000	23.903633	0.000531	20.804055
455.138110	-3.025400	3.775500	-11.421000	23.934467	0.000531	20.828336
456.144635	-2.999500	3.774800	-11.322000	23.942033	0.000531	20.844457
457.134442	-3.009500	3.775800	-11.362000	23.927623	0.000531	20.828585
458.134061	-3.001200	3.775700	-11.331000	23.923865	0.000531	20.823869
459.133415	-3.013100	3.773900	-11.370000	23.955895	0.000532	20.833228
460.136034	-2.999300	3.775500	-11.324000	23.968040	0.000532	20.843984
461.134444	-3.029600	3.773500	-11.431000	23.940516	0.000532	20.841988
462.134012	-2.992200	3.773700	-11.291000	23.955870	0.000533	20.843160
463.135421	-2.994400	3.774700	-11.302000	23.984216	0.000533	20.841240
464.136762	-2.999200	3.773000	-11.315000	24.004695	0.000530	20.835225
465.133968	-2.981500	3.773500	-11.250000	23.981427	0.000533	20.850297
466.135319	-2.976300	3.773500	-11.230000	23.993073	0.000533	20.835898
467.135431	-2.982500	3.772400	-11.250000	24.001810	0.000532	20.849400
468.135906	-2.982200	3.773100	-11.251000	24.014923	0.000534	20.829835
469.137342	-2.968300	3.773300	-11.199000	24.011141	0.000534	20.834103
470.135677	-2.976600	3.772800	-11.229000	24.039484	0.000535	20.860629
471.137491	-2.997800	3.771400	-11.304000	24.083105	0.000534	20.833729
472.138357	-2.991000	3.772000	-11.281000	24.083032	0.000535	20.860680
473.139756	-2.999800	3.771300	-11.312000	24.080691	0.000534	20.839842
474.135802	-3.008400	3.769700	-11.340000	24.085644	0.000533	20.854292
475.134943	-2.997700	3.769700	-11.298000	24.111744	0.000534	20.834002
476.136669	-2.983100	3.770500	-11.247000	24.103286	0.000531	20.850649
477.139381	-2.987600	3.770300	-11.264000	24.068722	0.000534	20.853442
478.143290	-3.013700	3.770400	-11.361000	24.089675	0.000533	20.850749
479.137327	-2.992900	3.770700	-11.284000	24.078652	0.000533	20.826418
480.139959	-2.987300	3.770000	-11.261000	24.121349	0.000534	20.855963
481.138794	-2.991700	3.770300	-11.279000	24.105723	0.000534	20.841240
482.140694	-2.999200	3.768600	-11.302000	24.098632	0.000534	20.846929
483.138005	-2.993900	3.767500	-11.280000	24.089747	0.000533	20.855088
484.138116	-2.991800	3.769400	-11.276000	24.100175	0.000535	20.850373
485.140160	-3.024600	3.767000	-11.392000	24.135432	0.000534	20.849699
486.140555	-3.005500	3.768600	-11.325000	24.169694	0.000533	20.855140
487.140334	-3.007800	3.767600	-11.331000	24.168849	0.000532	20.847180
488.142078	-3.007100	3.767300	-11.327000	24.151978	0.000534	20.841639
489.139182	-2.997100	3.767300	-11.290000	24.157751	0.000533	20.852644
490.141468	-3.018900	3.766300	-11.369000	24.166783	0.000535	20.859332
491.145625	-3.017200	3.765300	-11.360000	24.150785	0.000535	20.869363
492.140694	-2.984600	3.767700	-11.243000	24.155337	0.000535	20.881990
493.143558	-3.009800	3.765000	-11.331000	24.179920	0.000533	20.876774
494.149797	-3.011700	3.766200	-11.342000	24.145932	0.000532	20.854540
495.143060	-3.018400	3.764600	-11.362000	24.178924	0.000536	20.849225
496.140279	-2.983800	3.765000	-11.233000	24.201366	0.000535	20.879319
497.143390	-3.005200	3.763400	-11.309000	24.159293	0.000533	20.882163
498.144733	-3.007300	3.764000	-11.319000	24.164096	0.000534	20.852844
499.143155	-3.000400	3.764500	-11.294000	24.194848	0.000533	20.879419
500.142407	-3.001000	3.763000	-11.292000	24.196812	0.000536	20.878070
501.142853	-3.010200	3.763400	-11.328000	24.217289	0.000533	20.888651
502.143103	-3.011600	3.764300	-11.336000	24.185543	0.000534	20.885258
503.142144	-2.994500	3.764700	-11.272000	24.176185	0.000534	20.860227
504.150338	-3.011400	3.762100	-11.329000	24.177653	0.000536	20.866915
505.145167	-3.030400	3.761800	-11.399000	24.186189	0.000537	20.877372
506.143197	-3.002400	3.763000	-11.297000	24.172603	0.000534	20.892193
507.143886	-3.006600	3.762700	-11.313000	24.197707	0.000536	20.896036
508.143354	-2.999300	3.763500	-11.287000	24.211341	0.000535	20.878419
509.145019	-2.979400	3.762800	-11.210000	24.216267	0.000535	20.880040
510.144712	-2.978500	3.762800	-11.207000	24.214749	0.000538	20.889896
511.147526	-2.996300	3.761000	-11.268000	24.204174	0.000535	20.875498
512.145592	-3.015800	3.761400	-11.343000	24.191759	0.000537	20.884381
513.145205	-2.989700	3.761500	-11.244000	24.231093	0.000536	20.863618
514.148883	-2.999200	3.761700	-11.281000	24.253833	0.000534	20.886900
515.147535	-3.027600	3.760400	-11.384000	24.280653	0.000534	20.863545
516.145103	-2.999200	3.759300	-11.274000	24.289112	0.000535	20.871080
517.145805	-3.010900	3.760300	-11.320000	24.303440	0.000537	20.890194
518.148213	-3.003200	3.760000	-11.290000	24.305630	0.000537	20.883857
519.151784	-3.019200	3.757900	-11.345000	24.276795	0.000533	20.868209
520.150018	-2.993400	3.759400	-11.253000	24.281695	0.000533	20.891615
521.149161	-3.016100	3.759200	-11.338000	24.292369	0.000536	20.877193
522.147563	-2.996500	3.757800	-11.259000	24.310481	0.000535	20.858378
523.148561	-2.987200	3.758500	-11.226000	24.293438	0.000534	20.880161
524.150415	-3.003700	3.758500	-11.288000	24.279755	0.000534	20.892987
525.149541	-2.996900	3.758300	-11.262000	24.230469	0.000534	20.875794
526.146956	-2.999500	3.756400	-11.266000	24.215790	0.000533	20.896630
527.157329	-2.992600	3.758800	-11.247000	24.278710	0.000537	20.863966
528.147369	-3.000800	3.757000	-11.273000	24.302319	0.000534	20.885750
529.147517	-2.983500	3.756000	-11.206000	24.317917	0.000534	20.855406
530.149494	-3.016300	3.756500	-11.329000	24.335406	0.000537	20.883854
531.150811	-2.990900	3.756500	-11.234000	24.382895	0.000536	20.868906
532.153117	-3.006500	3.755800	-11.290000	24.371253	0.000533	20.854383
533.148310	-2.994700	3.756500	-11.248000	24.353489	0.000533	20.873546
534.153522	-2.997800	3.754900	-11.255000	24.377917	0.000535	20.871499
535.149457	-3.007100	3.755600	-11.293000	24.321596	0.000537	20.874269
536.155104	-3.013100	3.754400	-11.310000	24.329706	0.000534	20.851111
537.151302	-2.999500	3.755600	-11.264000	24.345403	0.000536	20.863537
538.150653	-3.020800	3.753200	-11.337000	24.389235	0.000534	20.845395
539.151751	-2.983300	3.755700	-11.203000	24.383737	0.000536	20.861691
540.151186	-2.999600	3.753800	-11.258000	24.364309	0.000535	20.846469
541.153153	-2.991400	3.755200	-11.232000	24.368686	0.000536	20.854653
542.151199	-3.007200	3.754100	-11.288000	24.394657	0.000535	20.863162
543.154350	-3.034200	3.753000	-11.387000	24.375551	0.000535	20.864858
544.151959	-3.006200	3.752300	-11.279000	24.364159	0.000535	20.844896
545.154309	-3.010600	3.752700	-11.297000	24.350897	0.000534	20.849610
546.152386	-2.974800	3.751700	-11.160000	24.327513	0.000534	20.862662
547.153930	-2.985200	3.753200	-11.202000	24.362740	0.000535	20.838257
548.169903	-2.987000	3.751800	-11.206000	24.372689	0.000535	20.832591
549.154972	-2.992300	3.751400	-11.225000	24.388436	0.000536	20.843172
550.154027	-2.999900	3.751900	-11.254000	24.401993	0.000535	20.843022
551.154190	-2.988400	3.751600	-11.210000	24.415626	0.000535	20.848638
552.157832	-2.998400	3.750500	-11.245000	24.414803	0.000533	20.846390
553.154459	-3.016500	3.750100	-11.312000	24.439106	0.000533	20.813400
554.154650	-3.013200	3.749900	-11.298000	24.436469	0.000532	20.842996
555.156694	-3.004200	3.750200	-11.266000	24.464305	0.000534	20.830619
556.153573	-2.994200	3.750200	-11.228000	24.491940	0.000535	20.838905
557.159542	-3.011600	3.749200	-11.290000	24.474055	0.000534	20.826651
558.154754	-3.006400	3.749000	-11.270000	24.446047	0.000534	20.852131
559.155757	-2.989300	3.748200	-11.204000	24.429777	0.000536	20.833912
560.155145	-2.998200	3.748200	-11.236000	24.467289	0.000534	20.854475
561.155256	-3.000700	3.748300	-11.247000	24.399306	0.000535	20.834162
562.163062	-3.000400	3.748600	-11.247000	24.392016	0.000533	20.833488
563.158936	-3.039000	3.745400	-11.381000	24.400151	0.000532	20.816993
564.156573	-3.007300	3.747200	-11.267000	24.385178	0.000532	20.842748
565.157826	-3.016500	3.747600	-11.303000	24.436097	0.000534	20.837407
566.157110	-3.002600	3.747600	-11.252000	24.412465	0.000534	20.843096
567.157083	-3.005400	3.746500	-11.259000	24.422440	0.000531	20.838878
568.158484	-3.020800	3.745600	-11.314000	24.414307	0.000532	20.827400
569.165659	-2.993300	3.746400	-11.213000	24.433360	0.000535	20.808109
570.158485	-2.997300	3.746000	-11.227000	24.444530	0.000531	20.835436
571.162690	-2.982200	3.745400	-11.168000	24.459655	0.000534	20.823584
572.156800	-2.985700	3.745200	-11.180000	24.434704	0.000531	20.838381
573.165294	-3.012600	3.744700	-11.281000	24.435253	0.000531	20.828500
574.158888	-2.982500	3.745900	-11.171000	24.418287	0.000532	20.808161
575.161554	-2.982100	3.745100	-11.167000	24.417542	0.000533	20.829223
576.157767	-2.999400	3.743900	-11.229000	24.419034	0.000531	20.824083
577.157423	-3.004000	3.744200	-11.246000	24.422394	0.000531	20.813703
578.168168	-2.991900	3.744600	-11.202000	24.462989	0.000533	20.817446
579.162185	-2.981500	3.744900	-11.164000	24.472740	0.000532	20.830073
580.161415	-3.014900	3.744100	-11.287000	24.485500	0.000532	20.816323
581.158696	-3.026600	3.742500	-11.326000	24.446000	0.000533	20.816997
582.162678	-2.986500	3.744800	-11.183000	24.463662	0.000534	20.805793
583.160014	-2.992700	3.743300	-11.201000	24.502590	0.000531	20.820666
584.163273	-2.984800	3.743600	-11.173000	24.500626	0.000532	20.805420
585.159105	-3.011200	3.743000	-11.270000	24.470055	0.000533	20.820742
586.159865	-3.008300	3.741900	-11.256000	24.452493	0.000531	20.796959
587.160723	-2.986600	3.741800	-11.173000	24.454211	0.000535	20.807691
588.160731	-3.006000	3.741800	-11.247000	24.460206	0.000533	20.829353
589.162621	-2.989500	3.741700	-11.185000	24.473539	0.000533	20.822341
590.161682	-2.997300	3.741800	-11.214000	24.496299	0.000534	20.809140
591.161224	-2.989200	3.740900	-11.181000	24.485030	0.000534	20.801627
592.161820	-2.982100	3.740800	-11.155000	24.495329	0.000532	20.826184
593.161978	-3.013800	3.740900	-11.274000	24.503290	0.000531	20.789127
594.161179	-3.021000	3.739300	-11.295000	24.545546	0.000533	20.817773
595.161511	-3.012200	3.740500	-11.266000	24.539208	0.000531	20.806197
596.160311	-2.999200	3.739400	-11.214000	24.542466	0.000530	20.818475
597.161646	-3.019400	3.739800	-11.291000	24.562064	0.000532	20.817277
598.163531	-2.997200	3.739500	-11.207000	24.578830	0.000533	20.800434
599.161059	-2.996800	3.738700	-11.203000	24.578332	0.000532	20.807521
600.165541	-3.001700	3.740000	-11.225000	24.593828	0.000533	20.806948
601.170351	-3.001600	3.737300	-11.217000	24.599847	0.000534	20.810142
602.172776	-2.989700	3.738400	-11.176000	24.606115	0.000530	20.807897
603.162068	-2.995200	3.737500	-11.194000	24.582687	0.000530	20.811890
604.162345	-2.985200	3.739000	-11.161000	24.553835	0.000531	20.832253
605.167922	-2.981000	3.738200	-11.143000	24.540703	0.000529	20.810069
606.165798	-2.992700	3.737700	-11.185000	24.560576	0.000532	20.807249
607.164178	-2.989800	3.737500	-11.173000	24.562914	0.000532	20.804853
608.164007	-3.010400	3.736100	-11.245000	24.546074	0.000531	20.794121
609.168497	-2.998100	3.736300	-11.201000	24.504414	0.000531	20.784564
610.163466	-2.986300	3.737000	-11.159000	24.504439	0.000532	20.789805
611.167781	-3.015700	3.734900	-11.263000	24.520184	0.000533	20.785688
612.164781	-3.003200	3.735100	-11.216000	24.542047	0.000531	20.806202
613.169102	-3.010600	3.735400	-11.245000	24.558784	0.000529	20.823943
614.163089	-2.998100	3.733900	-11.193000	24.617632	0.000533	20.800961
615.174194	-2.991700	3.735200	-11.174000	24.573112	0.000533	20.805602
616.166011	-2.985100	3.734900	-11.148000	24.590273	0.000531	20.806699
617.166660	-2.993000	3.735100	-11.178000	24.583434	0.000530	20.785139
618.165292	-2.990700	3.733500	-11.165000	24.584304	0.000529	20.802607
619.166786	-3.029200	3.731600	-11.302000	24.597461	0.000530	20.812489
620.167655	-2.977900	3.734900	-11.121000	24.586020	0.000530	20.781095
621.165450	-3.014400	3.733400	-11.253000	24.632654	0.000530	20.805602
622.167656	-3.008500	3.733300	-11.231000	24.613254	0.000531	20.801310
623.166340	-2.999600	3.732700	-11.195000	24.620864	0.000531	20.814635
624.166219	-3.010100	3.731900	-11.233000	24.619271	0.000530	20.784114
625.168336	-2.996800	3.732300	-11.184000	24.610243	0.000527	20.806823
626.180084	-3.029800	3.731400	-11.304000	24.640461	0.000529	20.806324
627.172721	-2.994300	3.731600	-11.173000	24.649936	0.000529	20.803504
628.167579	-3.013400	3.730300	-11.241000	24.649986	0.000531	20.807822
629.170025	-2.999600	3.731400	-11.191000	24.616611	0.000528	20.810842
630.177189	-3.002500	3.731100	-11.201000	24.587013	0.000529	20.801058
631.167873	-3.034200	3.728700	-11.313000	24.609521	0.000528	20.797090
632.172214	-3.005000	3.731000	-11.211000	24.629965	0.000531	20.797689
633.174147	-2.992100	3.730700	-11.161000	24.634218	0.000528	20.776826
634.172045	-2.974100	3.730800	-11.095000	24.676994	0.000530	20.794145
635.169127	-2.991300	3.729400	-11.155000	24.683933	0.000525	20.789729
636.175507	-2.983500	3.731000	-11.130000	24.702484	0.000528	20.790801
637.176322	-2.985200	3.730700	-11.136000	24.691267	0.000527	20.797088
638.176053	-2.978500	3.731600	-11.114000	24.655828	0.000530	20.775751
639.171477	-2.988200	3.728400	-11.140000	24.633993	0.000526	20.780394
640.172405	-2.981900	3.728900	-11.118000	24.623671	0.000526	20.793744
641.171474	-2.995100	3.728400	-11.165000	24.623621	0.000526	20.776150
642.179403	-3.003400	3.728100	-11.196000	24.661497	0.000526	20.782862
643.185094	-3.011500	3.727500	-11.224000	24.702731	0.000526	20.795316
644.176098	-3.021500	3.728200	-11.264000	24.697510	0.000527	20.780593
645.184453	-3.006600	3.728800	-11.210000	24.682388	0.000526	20.782962
646.175814	-2.996600	3.727100	-11.168000	24.691813	0.000527	20.781515
647.176549	-3.005700	3.726400	-11.199000	24.678185	0.000527	20.786332
648.179757	-2.997100	3.726700	-11.168000	24.661001	0.000526	20.800382
649.179923	-3.008700	3.725200	-11.207000	24.650479	0.000524	20.800256
650.180429	-3.003200	3.726900	-11.192000	24.714742	0.000525	20.774651
651.185901	-3.010900	3.725100	-11.216000	24.733468	0.000526	20.770210
652.181255	-3.014800	3.725300	-11.230000	24.711582	0.000524	20.782387
653.181934	-3.000100	3.724500	-11.174000	24.698627	0.000524	20.786930
654.181586	-2.986500	3.725600	-11.126000	24.712203	0.000526	20.762621
655.181596	-3.004900	3.725400	-11.193000	24.725085	0.000524	20.778867
656.180877	-2.996800	3.724500	-11.161000	24.700864	0.000524	20.777795
657.177798	-3.000200	3.724700	-11.174000	24.685022	0.000523	20.780864
658.178490	-3.010100	3.723300	-11.207000	24.718246	0.000525	20.778168
659.183262	-3.006200	3.723400	-11.193000	24.722846	0.000525	20.786104
660.182107	-2.986600	3.724300	-11.122000	24.646224	0.000522	20.782235
661.190782	-2.985700	3.723600	-11.117000	24.650129	0.000526	20.782834
662.183241	-2.996400	3.722600	-11.154000	24.611952	0.000525	20.781037
663.181875	-2.986300	3.722400	-11.115000	24.652615	0.000525	20.772527
664.185711	-3.027400	3.721700	-11.265000	24.633539	0.000524	20.780412
665.186606	-3.023800	3.722100	-11.254000	24.605784	0.000526	20.777692
666.188467	-2.995500	3.723300	-11.153000	24.597775	0.000523	20.761596
667.186301	-2.988800	3.722800	-11.125000	24.631374	0.000525	20.784404
668.188075	-2.993600	3.721700	-11.140000	24.658359	0.000524	20.778764
669.192217	-3.003500	3.720800	-11.175000	24.662187	0.000525	20.776917
670.189721	-3.009200	3.721600	-11.197000	24.685416	0.000524	20.772724
671.186184	-2.989100	3.721800	-11.123000	24.742016	0.000522	20.750338
672.186513	-2.991800	3.722300	-11.136000	24.714487	0.000522	20.811380
673.184162	-2.995300	3.721000	-11.145000	24.698049	0.000524	20.771651
674.189420	-3.005000	3.721100	-11.181000	24.709040	0.000524	20.767033
675.186081	-2.980800	3.720300	-11.089000	24.661888	0.000523	20.769978
676.190587	-2.998000	3.719500	-11.150000	24.682504	0.000523	20.771699
677.186960	-2.992000	3.719000	-11.127000	24.741219	0.000524	20.763289
678.186405	-2.994000	3.719400	-11.136000	24.748232	0.000522	20.775543
679.191361	-2.960600	3.721100	-11.016000	24.754947	0.000523	20.766634
680.188181	-3.022100	3.718500	-11.237000	24.737463	0.000524	20.767581
681.191254	-3.008100	3.718500	-11.185000	24.706178	0.000524	20.783128
682.187671	-2.988500	3.719300	-11.114000	24.691108	0.000522	20.786023
683.188186	-2.987300	3.718700	-11.108000	24.725428	0.000522	20.744597
684.188623	-2.996600	3.718600	-11.142000	24.718389	0.000520	20.751284
685.188213	-3.003000	3.717300	-11.163000	24.744451	0.000522	20.764636
686.191681	-2.990000	3.717800	-11.115000	24.749101	0.000521	20.778311
687.190851	-3.008300	3.717000	-11.181000	24.775037	0.000518	20.755501
688.191872	-2.996000	3.716700	-11.134000	24.794732	0.000521	20.759619
689.190003	-2.983300	3.715200	-11.082000	24.815546	0.000517	20.746842
690.189720	-2.971200	3.718900	-11.049000	24.821986	0.000521	20.765634
691.190901	-2.996800	3.715100	-11.132000	24.764195	0.000519	20.744146
692.192009	-2.978000	3.716500	-11.067000	24.737214	0.000520	20.769701
693.190018	-3.019700	3.714700	-11.217000	24.747981	0.000520	20.737832
694.192968	-2.998400	3.715200	-11.139000	24.799581	0.000517	20.723706
695.192461	-2.995800	3.715600	-11.130000	24.787273	0.000519	20.738856
696.195370	-2.978900	3.714700	-11.065000	24.777699	0.000518	20.756750
697.198098	-2.983900	3.715300	-11.085000	24.772351	0.000518	20.758021
698.194018	-2.978500	3.714400	-11.063000	24.767528	0.000519	20.750335
699.193821	-3.008900	3.714000	-11.174000	24.806867	0.000519	20.753780
700.196785	-2.985100	3.713800	-11.086000	24.826312	0.000519	20.767130
701.197091	-2.994700	3.713600	-11.120000	24.809005	0.000520	20.740752
702.196764	-2.977400	3.713900	-11.057000	24.792594	0.000519	20.754628
703.195811	-2.980900	3.713900	-11.070000	24.819399	0.000518	20.750235
704.195869	-3.007700	3.712600	-11.165000	24.811492	0.000517	20.732816
705.195137	-3.017700	3.712500	-11.202000	24.770985	0.000519	20.748589
706.195742	-3.015800	3.711600	-11.193000	24.777052	0.000517	20.746617
707.196321	-3.012200	3.711900	-11.180000	24.817386	0.000518	20.761966
708.195816	-3.017400	3.712800	-11.202000	24.832728	0.000517	20.737533
709.195021	-3.000900	3.711500	-11.137000	24.845261	0.000519	20.727351
710.198924	-2.997000	3.711900	-11.124000	24.836060	0.000516	20.723332
711.197121	-3.003900	3.712300	-11.150000	24.785108	0.000516	20.749960
712.200285	-2.984300	3.712200	-11.077000	24.798935	0.000516	20.753406
713.196903	-3.008400	3.710200	-11.161000	24.791973	0.000516	20.748789
714.204266	-2.998600	3.711000	-11.126000	24.806270	0.000515	20.726152
715.200535	-3.018200	3.709700	-11.195000	24.800900	0.000514	20.725504
716.198370	-3.000800	3.711500	-11.135000	24.827406	0.000514	20.740727
717.202098	-3.010500	3.710700	-11.171000	24.807090	0.000516	20.744520
718.199214	-3.003000	3.709600	-11.139000	24.815322	0.000514	20.724805
719.198694	-3.001700	3.709000	-11.132000	24.823974	0.000515	20.746766
720.197959	-2.967000	3.710900	-11.009000	24.875198	0.000515	20.741276
721.198627	-3.004700	3.708800	-11.142000	24.887854	0.000515	20.739279
722.201503	-3.003400	3.709400	-11.140000	24.892952	0.000514	20.731119
723.200118	-2.990800	3.709000	-11.091000	24.843345	0.000513	20.747714
724.199766	-3.004100	3.707300	-11.135000	24.800725	0.000513	20.727226
725.203969	-3.011300	3.706600	-11.161000	24.751836	0.000514	20.744545
726.202367	-2.994600	3.708600	-11.105000	24.754173	0.000512	20.731243
727.200799	-3.008700	3.706700	-11.152000	24.767228	0.000514	20.750509
728.202923	-3.002500	3.708100	-11.133000	24.772874	0.000514	20.752856
729.200603	-2.964500	3.707200	-10.989000	24.812312	0.000514	20.757348
730.201187	-2.978300	3.706700	-11.038000	24.840162	0.000513	20.736933
731.201101	-2.994900	3.707600	-11.103000	24.842275	0.000513	20.734312
732.201894	-2.984400	3.707500	-11.064000	24.853241	0.000514	20.712600
733.204802	-2.996200	3.704800	-11.100000	24.857992	0.000514	20.736335
734.204758	-2.996800	3.706300	-11.106000	24.889768	0.000512	20.734562
735.209065	-3.030400	3.705700	-11.228000	24.903444	0.000513	20.752082
736.200774	-3.025400	3.705200	-11.208000	24.940019	0.000514	20.724306
737.207370	-3.011100	3.705100	-11.155000	24.908741	0.000510	20.735113
738.203701	-3.052100	3.703900	-11.303000	24.904340	0.000512	20.751085
739.205105	-2.999900	3.704700	-11.113000	24.892182	0.000511	20.743623
740.203228	-3.000000	3.705000	-11.114000	24.876989	0.000513	20.752083
741.203805	-2.996900	3.705400	-11.104000	24.861522	0.000513	20.730869
742.209425	-3.010500	3.704200	-11.151000	24.844067	0.000512	20.756025
743.203837	-3.007300	3.702600	-11.134000	24.852645	0.000511	20.721960
744.205870	-2.994000	3.704300	-11.089000	24.886213	0.000510	20.720562
745.205558	-2.996400	3.705200	-11.102000	24.864406	0.000513	20.736609
746.202594	-3.016500	3.702400	-11.167000	24.842676	0.000510	20.726653
747.205686	-3.008200	3.702400	-11.136000	24.854462	0.000511	20.760768
748.212217	-2.987600	3.702900	-11.061000	24.867466	0.000510	20.728774
749.208598	-2.996700	3.702200	-11.093000	24.880444	0.000510	20.731842
750.206277	-3.028400	3.701500	-11.208000	24.891909	0.000511	20.720114
751.214968	-3.025600	3.700500	-11.195000	24.923138	0.000509	20.717794
752.208220	-3.010700	3.702200	-11.145000	24.961378	0.000511	20.746219
753.207078	-3.012900	3.701700	-11.152000	24.953024	0.000508	20.729773
754.206052	-3.013800	3.701200	-11.154000	24.930647	0.000508	20.722011
755.210752	-3.028400	3.699900	-11.203000	24.967718	0.000509	20.743100
756.210565	-2.987700	3.701600	-11.059000	24.963069	0.000507	20.737485
757.207359	-3.021900	3.701300	-11.185000	24.983856	0.000506	20.722787
758.214048	-3.012300	3.699100	-11.142000	24.932041	0.000507	20.730997
759.209329	-2.998800	3.700900	-11.097000	24.867916	0.000507	20.738709
760.211793	-3.016600	3.700000	-11.161000	24.841063	0.000507	20.736415
761.214686	-3.009000	3.699700	-11.131000	24.824950	0.000508	20.724984
762.210436	-3.016100	3.699300	-11.157000	24.819801	0.000507	20.718869
763.208973	-2.988500	3.699900	-11.056000	24.857350	0.000506	20.738537
764.215474	-3.005300	3.699200	-11.116000	24.865929	0.000506	20.727231
765.212453	-2.993000	3.699200	-11.070000	24.895543	0.000505	20.707165
766.211460	-3.013700	3.698500	-11.145000	24.897357	0.000505	20.738386
767.211386	-2.998200	3.699100	-11.090000	24.919486	0.000506	20.730724
768.211438	-3.010000	3.698400	-11.132000	24.910785	0.000507	20.743328
769.211073	-2.981800	3.698800	-11.028000	24.878908	0.000505	20.744052
770.211015	-3.018200	3.696400	-11.155000	24.845639	0.000503	20.726308
771.213902	-2.980800	3.698000	-11.022000	24.860856	0.000506	20.718346
772.214761	-2.999200	3.698400	-11.092000	24.906307	0.000504	20.731247
773.211024	-2.998300	3.697300	-11.084000	24.934775	0.000504	20.727103
774.214114	-2.998200	3.695700	-11.079000	24.905537	0.000502	20.719568
775.211935	-3.007400	3.697100	-11.118000	24.955487	0.000501	20.746471
776.215769	-3.008700	3.695500	-11.118000	24.970629	0.000505	20.723261
777.210572	-3.016200	3.695700	-11.146000	25.015331	0.000502	20.724509
778.218380	-2.983500	3.695800	-11.025000	25.008718	0.000502	20.729250
779.213441	-2.996000	3.694000	-11.065000	25.037035	0.000503	20.723061
780.213097	-2.982200	3.695900	-11.021000	25.032386	0.000503	20.719343
781.212357	-2.964400	3.696200	-10.956000	24.991910	0.000501	20.730872
782.216074	-2.989500	3.694600	-11.044000	25.007226	0.000501	20.742927
783.215016	-3.001600	3.694400	-11.088000	25.014484	0.000502	20.736462
784.214782	-3.015400	3.694300	-11.138000	24.992035	0.000502	20.747119
785.217714	-2.986700	3.693300	-11.030000	24.979453	0.000499	20.757725
786.216359	-2.987400	3.694600	-11.036000	25.010779	0.000503	20.727052
787.217780	-2.990000	3.695200	-11.047000	25.044491	0.000502	20.750936
788.215904	-2.997800	3.693600	-11.072000	25.016720	0.000502	20.746293
789.216802	-3.010000	3.692500	-11.113000	25.022364	0.000503	20.743897
790.216288	-3.006500	3.692600	-11.101000	24.968138	0.000501	20.744470
791.215699	-3.025700	3.691300	-11.168000	24.931715	0.000498	20.733041
792.217657	-2.999100	3.692900	-11.075000	24.953620	0.000500	20.736061
793.220747	-3.007500	3.691900	-11.102000	25.003218	0.000500	20.739852
794.216762	-2.998800	3.691600	-11.069000	24.996605	0.000500	20.739378
795.223327	-3.005200	3.690900	-11.091000	25.044462	0.000498	20.743794
796.217548	-3.006300	3.690500	-11.093000	25.030068	0.000497	20.762537
797.218898	-3.008100	3.690900	-11.102000	25.004908	0.000498	20.719262
798.229543	-2.993800	3.690300	-11.047000	25.016691	0.000498	20.732513
799.219403	-2.993300	3.692200	-11.051000	24.969105	0.000498	20.744018
800.218667	-2.985700	3.690600	-11.018000	24.936037	0.000499	20.754924
801.225962	-3.008700	3.689600	-11.100000	24.939592	0.000496	20.741422
802.219091	-2.998100	3.690500	-11.064000	24.933476	0.000497	20.755672
803.220158	-2.998600	3.690100	-11.063000	24.947872	0.000497	20.754001
804.221107	-3.003000	3.688800	-11.077000	24.905056	0.000495	20.748010
805.221559	-2.998300	3.689100	-11.060000	24.907889	0.000496	20.743741
806.221467	-3.010600	3.687100	-11.100000	24.935214	0.000498	20.733235
807.223964	-3.005400	3.689000	-11.086000	24.928277	0.000496	20.744764
808.222577	-2.995600	3.688400	-11.049000	24.969525	0.000496	20.737801
809.221467	-2.993000	3.688700	-11.040000	24.960500	0.000496	20.728742
810.223286	-3.008900	3.688000	-11.095000	25.026409	0.000495	20.746061
811.223033	-3.001100	3.688400	-11.068000	24.991751	0.000493	20.741144
812.224503	-2.991100	3.687400	-11.028000	24.947793	0.000493	20.754396
813.227357	-3.022800	3.687200	-11.144000	24.942672	0.000495	20.748307
814.223742	-2.992500	3.687300	-11.034000	24.907564	0.000494	20.742941
815.222104	-2.986100	3.686800	-11.009000	24.890234	0.000495	20.742617
816.223457	-2.997200	3.685300	-11.045000	24.914301	0.000494	20.743064
817.223559	-3.008900	3.687100	-11.094000	24.976409	0.000494	20.742340
818.226731	-2.984100	3.685800	-10.998000	24.996696	0.000494	20.762704
819.224044	-2.986400	3.685700	-11.006000	25.015568	0.000493	20.759836
820.223740	-2.992200	3.685600	-11.027000	25.028744	0.000493	20.754570
821.228311	-3.015100	3.685400	-11.111000	25.019370	0.000493	20.748953
822.227730	-3.009000	3.684600	-11.085000	25.034262	0.000491	20.735451
823.227087	-2.992200	3.684600	-11.024000	25.028966	0.000493	20.769017
824.227972	-3.001800	3.684400	-11.059000	25.024565	0.000490	20.766496
825.225507	-3.001700	3.684400	-11.059000	25.020189	0.000492	20.753569
826.223959	-3.000300	3.684200	-11.053000	25.060887	0.000491	20.754592
827.224485	-3.018800	3.683300	-11.118000	25.040649	0.000491	20.748976
828.224854	-3.021900	3.683800	-11.131000	25.023719	0.000490	20.759008
829.229138	-3.024100	3.682200	-11.134000	25.024688	0.000490	20.757611
830.228868	-2.998200	3.682100	-11.039000	25.029736	0.000491	20.763626
831.225782	-2.975800	3.683100	-10.960000	25.017155	0.000489	20.757636
832.230401	-2.985700	3.681400	-10.990000	25.027794	0.000489	20.760729
833.228665	-2.997600	3.683200	-11.039000	25.030926	0.000490	20.754863
834.228530	-2.976700	3.682100	-10.958000	24.978790	0.000491	20.757533
835.226839	-2.987500	3.682000	-10.999000	25.003504	0.000490	20.758157
836.224423	-2.988300	3.680300	-10.996000	25.061704	0.000487	20.768215
837.226502	-2.977100	3.681100	-10.957000	25.102624	0.000488	20.763772
838.226205	-2.995000	3.681700	-11.026000	25.067744	0.000489	20.761001
839.231798	-2.984700	3.682600	-10.991000	25.045866	0.000488	20.767015
840.227185	-2.968000	3.681400	-10.926000	25.063368	0.000488	20.785058
841.228455	-2.996400	3.679900	-11.026000	25.071323	0.000487	20.765543
842.225724	-2.980600	3.679900	-10.967000	25.062696	0.000488	20.766840
843.233012	-3.009300	3.679800	-11.072000	25.058818	0.000489	20.750144
844.226357	-2.969200	3.680500	-10.926000	25.064286	0.000487	20.750892
845.227409	-2.982500	3.679100	-10.972000	25.100558	0.000487	20.787304
846.228057	-3.001400	3.677900	-11.039000	25.028785	0.000486	20.769310
847.226885	-3.009000	3.678600	-11.067000	24.998254	0.000487	20.776596
848.232863	-2.992300	3.678100	-11.004000	25.026870	0.000487	20.776871
849.232279	-2.997200	3.678600	-11.025000	25.066573	0.000486	20.770732
850.228705	-3.016000	3.677200	-11.089000	25.028361	0.000486	20.769358
851.228786	-3.005500	3.677300	-11.051000	25.070226	0.000483	20.778666
852.225967	-3.004000	3.676400	-11.044000	25.064684	0.000484	20.757455
853.228280	-2.996500	3.677300	-11.018000	25.064658	0.000483	20.757429
854.227855	-3.008300	3.676800	-11.060000	25.021424	0.000483	20.758601
855.228461	-3.007400	3.678400	-11.061000	25.012474	0.000486	20.790395
856.231623	-2.991200	3.677100	-10.998000	25.036566	0.000483	20.784707
857.234155	-3.001800	3.676200	-11.034000	25.068560	0.000483	20.785529
858.228073	-2.999600	3.676600	-11.027000	25.086062	0.000483	20.788873
859.232654	-2.997400	3.676700	-11.020000	25.028135	0.000484	20.775770
860.227407	-2.986200	3.676500	-10.978000	25.020552	0.000482	20.787599
861.239216	-2.989300	3.674800	-10.984000	25.024133	0.000482	20.781236
862.229887	-2.985100	3.676600	-10.974000	25.040741	0.000482	20.795536
863.230445	-2.993300	3.675100	-11.000000	25.057348	0.000483	20.781386
864.234733	-3.013700	3.674500	-11.073000	25.054986	0.000483	20.790869
865.230484	-2.997600	3.675700	-11.017000	25.079870	0.000485	20.794037
866.241132	-3.008300	3.674000	-11.051000	25.076863	0.000480	20.782009
867.237971	-3.022100	3.673000	-11.100000	25.081388	0.000481	20.810734
868.236968	-2.984900	3.672800	-10.963000	25.108137	0.000480	20.803446
869.234776	-2.989200	3.673800	-10.981000	25.142144	0.000483	20.779739
870.232599	-2.984600	3.673400	-10.963000	25.145053	0.000481	20.777443
871.237419	-2.994400	3.672600	-10.996000	25.127426	0.000480	20.773024
872.238184	-2.992200	3.672800	-10.988000	25.074925	0.000480	20.796659
873.245352	-2.977000	3.673300	-10.934000	25.076640	0.000479	20.777518
874.236165	-2.985000	3.671700	-10.959000	25.084844	0.000480	20.797608
875.235031	-3.000300	3.671300	-11.015000	25.093544	0.000480	20.784530
876.235774	-2.997100	3.672500	-11.006000	25.095583	0.000478	20.798905
877.245307	-2.997200	3.670700	-11.001000	25.128944	0.000480	20.793040
878.235725	-2.997100	3.671100	-11.001000	25.140354	0.000479	20.808288
879.238641	-2.996400	3.672000	-11.002000	25.162006	0.000479	20.802049
880.241961	-3.007500	3.670700	-11.039000	25.182267	0.000477	20.799629
881.242050	-2.977700	3.671700	-10.932000	25.140107	0.000477	20.798082
882.239945	-2.991600	3.670300	-10.979000	25.119995	0.000476	20.789746
883.246406	-3.003900	3.669800	-11.022000	25.120640	0.000476	20.800351
884.238831	-3.012400	3.670200	-11.055000	25.140727	0.000476	20.787799
885.239057	-3.003400	3.669700	-11.021000	25.108883	0.000476	20.788549
886.239066	-3.014400	3.668800	-11.059000	25.095758	0.000476	20.788175
887.240546	-3.003400	3.668100	-11.016000	25.087678	0.000475	20.792392
888.241025	-3.008800	3.669200	-11.038000	25.108162	0.000473	20.790195
889.247179	-3.013100	3.669100	-11.054000	25.128970	0.000475	20.809662
890.240082	-2.997000	3.669400	-10.996000	25.150921	0.000476	20.804197
891.240544	-2.995500	3.667400	-10.985000	25.172074	0.000474	20.809311
892.248256	-3.001400	3.667800	-11.009000	25.175704	0.000475	20.795886
893.244744	-3.015800	3.667000	-11.058000	25.193081	0.000474	20.793417
894.244873	-3.001400	3.668600	-11.010000	25.185821	0.000474	20.803197
895.244706	-3.004700	3.666200	-11.015000	25.155768	0.000473	20.799579
896.240689	-3.018000	3.665100	-11.060000	25.137671	0.000473	20.819345
897.241238	-3.025000	3.665700	-11.088000	25.133246	0.000471	20.805419
898.244209	-2.992600	3.666800	-10.972000	25.106623	0.000472	20.818047
899.248405	-2.999400	3.665600	-10.994000	25.093620	0.000472	20.793141
900.246890	-3.003100	3.664900	-11.006000	25.088226	0.000472	20.820443
901.243996	-2.988000	3.666200	-10.954000	25.095758	0.000473	20.823736
902.243510	-3.008800	3.664800	-11.026000	25.069679	0.000473	20.810360
903.250738	-3.004700	3.663700	-11.007000	25.110699	0.000471	20.822140
904.247258	-3.005400	3.662900	-11.008000	25.172672	0.000472	20.806593
905.246767	-2.980100	3.665700	-10.924000	25.212195	0.000469	20.827779
906.244892	-2.991700	3.663200	-10.958000	25.266830	0.000470	20.820991
907.251638	-2.986400	3.664100	-10.942000	25.270932	0.000470	20.820368
908.251822	-2.994000	3.664000	-10.969000	25.269068	0.000472	20.820867
909.250530	-3.000300	3.662900	-10.989000	25.272448	0.000468	20.834692
910.257287	-3.015200	3.662400	-11.042000	25.262655	0.000470	20.817748
911.249554	-3.028300	3.662200	-11.089000	25.276825	0.000470	20.825810
912.252786	-3.004200	3.663100	-11.004000	25.267627	0.000467	20.820369
913.250584	-2.998300	3.662200	-10.979000	25.232082	0.000468	20.816451
914.255210	-2.968700	3.662400	-10.871000	25.237253	0.000467	20.831125
915.252268	-2.990700	3.661600	-10.949000	25.260469	0.000467	20.828829
916.253694	-3.010600	3.660900	-11.020000	25.233550	0.000468	20.834520
917.254782	-3.008600	3.661600	-11.016000	25.242399	0.000467	20.821593
918.253798	-3.021300	3.659800	-11.057000	25.223061	0.000467	20.812609
919.252125	-3.016400	3.660800	-11.042000	25.228628	0.000466	20.832897
920.257216	-2.994000	3.660800	-10.960000	25.241355	0.000465	20.832872
921.261120	-3.011600	3.660300	-11.023000	25.269293	0.000466	20.829628
922.260014	-3.003800	3.660600	-10.995000	25.307920	0.000466	20.854659
923.259581	-3.016200	3.659200	-11.036000	25.299070	0.000465	20.850515
924.255987	-3.006800	3.659700	-11.003000	25.316320	0.000466	20.821843
925.257210	-3.016400	3.659800	-11.038000	25.326660	0.000464	20.829854
926.254481	-3.005800	3.658400	-10.996000	25.258433	0.000462	20.826311
927.257400	-2.998000	3.660100	-10.972000	25.246152	0.000462	20.833421
928.255639	-3.024000	3.657300	-11.059000	25.190549	0.000464	20.832126
929.255608	-3.012400	3.659300	-11.023000	25.164646	0.000465	20.830303
930.258350	-2.982400	3.658200	-10.909000	25.178790	0.000462	20.853036
931.257696	-2.998700	3.657200	-10.965000	25.212844	0.000463	20.844076
932.269206	-2.987700	3.658800	-10.931000	25.234844	0.000462	20.844827
933.270843	-2.997800	3.657400	-10.963000	25.215206	0.000460	20.848345
934.257589	-2.988000	3.657100	-10.926000	25.216126	0.000463	20.843104
935.258421	-2.969200	3.658700	-10.862000	25.226267	0.000462	20.843802
936.258723	-2.992300	3.656000	-10.939000	25.248141	0.000462	20.855806
937.263446	-3.021800	3.655500	-11.045000	25.253982	0.000461	20.838437
938.261863	-3.009500	3.654900	-10.999000	25.250253	0.000460	20.839435
939.261799	-3.007600	3.655300	-10.993000	25.267181	0.000459	20.855008
940.258273	-2.999100	3.655100	-10.961000	25.268151	0.000460	20.859300
941.263785	-3.018900	3.654400	-11.032000	25.275208	0.000462	20.853584
942.261527	-3.013500	3.654300	-11.011000	25.291043	0.000460	20.858577
943.262090	-3.003000	3.654300	-10.972000	25.319650	0.000461	20.845100
944.261996	-2.989400	3.654700	-10.925000	25.286842	0.000457	20.847721
945.261883	-3.007800	3.655200	-10.994000	25.281770	0.000460	20.846896
946.262425	-2.977400	3.653100	-10.875000	25.281200	0.000459	20.823565
947.266194	-2.985500	3.653500	-10.907000	25.207574	0.000460	20.849691
948.261671	-3.004800	3.654400	-10.980000	25.158306	0.000457	20.860447
949.264039	-2.971400	3.652900	-10.853000	25.178068	0.000458	20.863217
950.268039	-2.977700	3.653700	-10.879000	25.192808	0.000457	20.863790
951.263847	-3.004600	3.653300	-10.976000	25.219654	0.000457	20.861818
952.268115	-2.999000	3.652200	-10.952000	25.257337	0.000458	20.868357
953.264250	-2.988400	3.652300	-10.913000	25.298151	0.000458	20.867135
954.264655	-2.991900	3.652500	-10.926000	25.323178	0.000456	20.857651
955.264510	-3.007400	3.650300	-10.977000	25.385488	0.000456	20.855257
956.266549	-3.014600	3.650700	-11.005000	25.349500	0.000455	20.861794
957.265999	-3.004600	3.649900	-10.966000	25.336949	0.000455	20.874322
958.264244	-2.983200	3.651600	-10.893000	25.371297	0.000455	20.846697
959.264310	-2.998400	3.649600	-10.941000	25.296361	0.000454	20.869606
960.264606	-2.988400	3.649700	-10.906000	25.287116	0.000455	20.842780
961.265126	-2.989600	3.649300	-10.909000	25.257114	0.000453	20.864814
962.264952	-3.013900	3.648700	-10.995000	25.286966	0.000452	20.876767
963.264768	-2.991600	3.648600	-10.915000	25.305111	0.000454	20.871278
964.265088	-2.994200	3.649200	-10.926000	25.306028	0.000453	20.876466
965.266056	-3.002400	3.647300	-10.950000	25.286892	0.000451	20.894709
966.267812	-3.008600	3.648500	-10.976000	25.280702	0.000453	20.879487
967.264565	-3.009500	3.648900	-10.979000	25.240088	0.000452	20.893711
968.275150	-3.000400	3.648500	-10.946000	25.264993	0.000453	20.882207
969.265065	-3.015300	3.645900	-10.992000	25.265639	0.000451	20.883803
970.265684	-2.976400	3.647100	-10.854000	25.283859	0.000451	20.866062
971.267228	-2.989800	3.646300	-10.901000	25.320321	0.000452	20.879911
972.268057	-3.007500	3.646200	-10.965000	25.340404	0.000451	20.871153
973.271144	-2.983500	3.645900	-10.876000	25.354297	0.000450	20.882731
974.268289	-2.984700	3.646500	-10.882000	25.322807	0.000449	20.871976
975.270689	-2.972600	3.647300	-10.841000	25.339560	0.000450	20.877417
976.268593	-2.989400	3.645500	-10.897000	25.353852	0.000450	20.891767
977.269439	-2.995600	3.644100	-10.915000	25.340008	0.000451	20.885927
978.271081	-2.976000	3.645800	-10.849000	25.296910	0.000451	20.898603
979.269513	-3.002700	3.645300	-10.944000	25.308590	0.000449	20.893736
980.269937	-3.006700	3.644800	-10.958000	25.278244	0.000450	20.886501
981.270213	-3.014200	3.643400	-10.980000	25.284631	0.000449	20.884854
982.270232	-3.006500	3.644200	-10.955000	25.269594	0.000447	20.887300
983.276639	-2.983300	3.643300	-10.869000	25.272228	0.000447	20.869083
984.271623	-2.993700	3.643800	-10.907000	25.250281	0.000446	20.901573
985.276430	-2.996500	3.642900	-10.914000	25.243173	0.000446	20.883533
986.271889	-3.010500	3.641900	-10.963000	25.265418	0.000448	20.892116
987.272884	-2.997600	3.642800	-10.919000	25.294898	0.000446	20.898005
988.274065	-2.994400	3.640900	-10.902000	25.310705	0.000445	20.894436
989.278461	-2.998800	3.641300	-10.918000	25.300962	0.000445	20.911205
990.274899	-2.991000	3.641400	-10.890000	25.270912	0.000445	20.905217
991.274898	-2.981000	3.641400	-10.854000	25.308245	0.000444	20.881062
992.277050	-2.995900	3.641600	-10.908000	25.328874	0.000442	20.873326
993.276909	-2.985600	3.641500	-10.871000	25.349577	0.000444	20.882733
994.275206	-2.980800	3.642000	-10.855000	25.330389	0.000444	20.901872
995.278923	-2.992500	3.640500	-10.892000	25.289505	0.000444	20.890695
996.275654	-2.994700	3.639700	-10.899000	25.296712	0.000442	20.884655
997.274710	-2.986300	3.639400	-10.868000	25.318734	0.000443	20.896808
998.275546	-2.993900	3.639900	-10.897000	25.348186	0.000442	20.880388
999.275547	-2.996000	3.637900	-10.898000	25.319802	0.000441	20.891717
1000.283523	-3.018400	3.638700	-10.982000	25.280159	0.000444	20.875149
1001.276145	-2.997100	3.637600	-10.902000	25.274369	0.000443	20.892567
1002.276424	-3.009000	3.637900	-10.946000	25.261593	0.000441	20.892542
1003.275124	-3.007000	3.638100	-10.939000	25.326118	0.000443	20.867714
1004.277780	-3.006000	3.636600	-10.930000	25.345255	0.000441	20.869386
1005.276297	-2.990100	3.637300	-10.875000	25.371079	0.000440	20.873030
1006.275283	-2.983100	3.637000	-10.849000	25.401921	0.000443	20.874601
1007.277093	-3.002100	3.636500	-10.916000	25.426923	0.000442	20.857033
1008.277634	-2.984200	3.636400	-10.851000	25.450582	0.000441	20.865144
1009.281323	-2.984200	3.635500	-10.848000	25.446332	0.000440	20.854713
1010.280777	-3.000800	3.635300	-10.908000	25.384077	0.000439	20.866641
1011.276914	-2.985400	3.635900	-10.853000	25.380771	0.000439	20.893666
1012.276621	-3.002200	3.635400	-10.913000	25.335613	0.000439	20.865394
1013.281116	-2.987600	3.635800	-10.861000	25.329424	0.000439	20.858232
1014.277289	-3.030000	3.633200	-11.008000	25.327983	0.000439	20.865320
1015.280700	-3.012600	3.633300	-10.944000	25.368619	0.000438	20.884309
1016.277485	-3.020700	3.633600	-10.975000	25.363027	0.000437	20.857833
1017.278169	-3.013100	3.632900	-10.945000	25.334146	0.000438	20.867240
1018.282214	-3.000600	3.633600	-10.902000	25.364693	0.000436	20.868040
1019.280674	-2.997700	3.633000	-10.890000	25.366010	0.000439	20.853242
1020.283301	-3.004700	3.632300	-10.913000	25.354676	0.000437	20.863198
1021.281003	-2.967100	3.633700	-10.781000	25.365314	0.000436	20.888103
1022.281412	-2.979900	3.631800	-10.821000	25.351844	0.000435	20.854665
1023.280129	-2.983300	3.633300	-10.838000	25.338969	0.000434	20.877772
1024.281323	-2.984300	3.633200	-10.842000	25.323757	0.000437	20.858232
1025.281036	-2.995600	3.631100	-10.875000	25.290477	0.000437	20.860379
1026.283627	-2.995800	3.630600	-10.875000	25.255804	0.000435	20.860180
1027.282948	-3.009400	3.628900	-10.920000	25.279242	0.000437	20.859531
1028.282069	-2.997000	3.630900	-10.881000	25.363972	0.000435	20.838869
1029.282025	-2.993800	3.631700	-10.872000	25.393748	0.000433	20.870188
1030.281959	-2.980100	3.631700	-10.822000	25.357983	0.000434	20.857984
1031.284884	-2.982400	3.629100	-10.823000	25.367677	0.000432	20.855390
1032.287898	-3.007800	3.630300	-10.919000	25.367901	0.000429	20.860356
1033.283200	-3.005900	3.628200	-10.904000	25.377519	0.000431	20.860056
1034.287597	-2.996000	3.629400	-10.872000	25.354878	0.000427	20.848229
1035.282162	-3.001900	3.627500	-10.889000	25.354752	0.000430	20.848577
1036.285292	-3.004900	3.628100	-10.901000	25.307778	0.000429	20.857836
1037.288669	-2.990200	3.627700	-10.847000	25.331315	0.000430	20.842588
1038.281592	-2.992000	3.628200	-10.855000	25.308126	0.000431	20.847280
1039.286243	-2.998300	3.627500	-10.875000	25.354902	0.000432	20.860106
1040.282214	-2.991200	3.627700	-10.849000	25.346079	0.000428	20.848403
1041.281125	-2.993700	3.626800	-10.857000	25.360593	0.000430	20.840218
1042.281144	-2.974700	3.626700	-10.787000	25.395413	0.000430	20.855739
1043.284374	-3.009000	3.626400	-10.911000	25.383210	0.000431	20.844909
1044.284668	-2.963400	3.626000	-10.745000	25.346377	0.000426	20.839219
1045.283935	-2.992500	3.625400	-10.848000	25.328407	0.000426	20.840142
1046.291796	-3.016200	3.625700	-10.935000	25.281901	0.000426	20.854140
1047.291049	-3.014000	3.625300	-10.926000	25.309468	0.000425	20.828239
1048.293452	-2.995900	3.625200	-10.859000	25.309270	0.000425	20.850325
1049.286485	-3.002200	3.625300	-10.882000	25.304769	0.000425	20.835375
1050.285632	-2.998900	3.625700	-10.873000	25.326542	0.000425	20.849175
1051.288286	-2.996800	3.624200	-10.860000	25.354329	0.000425	20.839617
1052.292636	-3.003800	3.624000	-10.885000	25.366954	0.000425	20.830957
1053.285851	-3.014700	3.623100	-10.922000	25.325025	0.000423	20.824894
1054.295308	-2.992900	3.622500	-10.840000	25.366457	0.000422	20.841837
1055.284719	-3.011200	3.622300	-10.907000	25.345606	0.000422	20.837971
1056.285965	-3.015700	3.622900	-10.924000	25.372969	0.000424	20.828463
1057.284731	-3.003400	3.621400	-10.875000	25.401179	0.000423	20.818382
1058.286269	-3.008100	3.622000	-10.894000	25.358952	0.000422	20.827665
1059.289379	-2.978700	3.621400	-10.786000	25.337802	0.000422	20.838196
1060.285398	-3.011400	3.620100	-10.901000	25.352291	0.000421	20.842313
1061.285869	-2.970200	3.621600	-10.756000	25.405602	0.000424	20.839892
1062.285446	-2.994100	3.620000	-10.837000	25.377146	0.000421	20.817958
1063.291370	-2.994200	3.619400	-10.836000	25.410250	0.000420	20.822275
1064.285594	-2.991500	3.620900	-10.830000	25.395663	0.000421	20.819008
1065.285541	-2.996100	3.619300	-10.843000	25.373195	0.000420	20.830586
1066.288191	-3.017500	3.618500	-10.918000	25.386443	0.000420	20.830138
1067.289033	-3.003400	3.618100	-10.865000	25.371928	0.000418	20.838322
1068.290692	-2.991600	3.618500	-10.824000	25.389077	0.000418	20.832783
1069.289537	-3.009500	3.616600	-10.884000	25.390868	0.000423	20.824624
1070.297269	-3.007300	3.617700	-10.878000	25.395341	0.000415	20.828641
1071.288479	-3.016100	3.616400	-10.906000	25.423649	0.000419	20.829565
1072.296299	-3.022400	3.616300	-10.929000	25.482025	0.000420	20.823701
1073.288387	-3.006900	3.617400	-10.876000	25.483864	0.000418	20.830288
1074.290162	-3.006300	3.616900	-10.872000	25.447533	0.000416	20.837427
1075.288125	-3.000200	3.617300	-10.852000	25.528247	0.000420	20.805159
1076.290925	-3.025900	3.616600	-10.943000	25.562789	0.000417	20.803813
1077.295136	-2.979300	3.616700	-10.775000	25.513910	0.000418	20.817314
1078.289289	-2.981500	3.617100	-10.784000	25.488313	0.000416	20.815316
1079.292723	-2.958100	3.616900	-10.698000	25.434012	0.000416	20.826696
1080.296499	-3.000200	3.613600	-10.840000	25.399467	0.000415	20.830888
1081.294141	-3.008400	3.614700	-10.873000	25.428745	0.000412	20.823777
1082.292295	-3.005400	3.614800	-10.862000	25.400338	0.000413	20.808529
1083.296914	-3.035000	3.613800	-10.967000	25.402102	0.000413	20.820258
1084.292882	-3.022600	3.612900	-10.919000	25.360125	0.000415	20.805135
1085.297275	-3.029800	3.614100	-10.948000	25.386496	0.000412	20.834458
1086.293139	-3.019100	3.613000	-10.907000	25.371184	0.000414	20.823351
1087.293470	-3.003300	3.612400	-10.848000	25.372205	0.000415	20.814419
1088.296538	-2.991900	3.612700	-10.808000	25.391665	0.000411	20.829218
1089.300105	-3.010600	3.612600	-10.875000	25.413636	0.000412	20.820933
1090.300746	-3.005000	3.612100	-10.854000	25.418282	0.000410	20.817064
1091.293783	-2.992200	3.611400	-10.805000	25.399072	0.000411	20.810577
1092.293730	-3.014500	3.611400	-10.885000	25.390049	0.000410	20.812423
1093.298529	-2.995800	3.610700	-10.816000	25.399470	0.000411	20.800545
1094.307339	-2.958100	3.612300	-10.684000	25.456331	0.000410	20.817339
1095.296630	-2.987400	3.611700	-10.789000	25.447483	0.000410	20.814144
1096.296828	-2.994500	3.610400	-10.810000	25.420892	0.000409	20.807357
1097.294567	-3.002300	3.608900	-10.834000	25.418059	0.000409	20.810202
1098.295593	-2.980400	3.610300	-10.759000	25.472262	0.000409	20.794456
1099.296057	-2.991700	3.609900	-10.799000	25.464855	0.000407	20.806933
1100.295169	-3.001000	3.609200	-10.830000	25.452231	0.000409	20.818438
1101.298716	-2.991400	3.609600	-10.796000	25.472012	0.000407	20.807008
1102.309682	-3.017400	3.607800	-10.886000	25.496193	0.000408	20.816591
1103.296638	-3.005400	3.607600	-10.841000	25.519578	0.000407	20.815419
1104.299521	-3.002800	3.606700	-10.829000	25.494851	0.000409	20.836580
1105.297444	-3.012200	3.606800	-10.862000	25.482749	0.000406	20.786496
1106.301715	-2.996800	3.607200	-10.809000	25.488092	0.000407	20.813198
1107.299942	-2.991400	3.607400	-10.790000	25.432101	0.000405	20.800121
1108.297958	-3.000800	3.606600	-10.822000	25.386248	0.000405	20.812873
1109.298234	-3.009300	3.607100	-10.854000	25.400439	0.000405	20.805786
1110.305903	-3.005400	3.604900	-10.834000	25.407274	0.000404	20.807433
1111.300705	-3.017700	3.604700	-10.876000	25.463815	0.000403	20.806837
1112.303281	-3.012700	3.605200	-10.860000	25.429642	0.000406	20.818514
1113.298430	-2.993800	3.605600	-10.793000	25.414134	0.000405	20.791088
1114.299553	-3.011300	3.604700	-10.854000	25.433594	0.000406	20.811103
1115.311730	-3.001300	3.603800	-10.815000	25.411526	0.000403	20.805064
1116.301527	-3.003100	3.603200	-10.819000	25.392662	0.000405	20.811253
1117.300259	-3.013700	3.604800	-10.863000	25.382076	0.000402	20.814373
1118.300060	-3.008800	3.602900	-10.839000	25.382274	0.000402	20.810305
1119.302118	-3.000300	3.604800	-10.814000	25.425793	0.000402	20.790941
1120.306229	-2.993000	3.604400	-10.786000	25.413018	0.000400	20.798502
1121.300769	-3.002100	3.601900	-10.812000	25.448805	0.000402	20.801247
1122.300357	-3.012000	3.602300	-10.849000	25.465779	0.000400	20.818766
1123.300697	-3.020200	3.602100	-10.878000	25.497041	0.000399	20.799426
1124.302142	-2.984800	3.602800	-10.753000	25.504795	0.000399	20.801048
1125.303260	-3.005300	3.601700	-10.823000	25.441774	0.000402	20.791341
1126.303544	-3.004800	3.601800	-10.821000	25.459168	0.000399	20.792213
1127.304960	-2.991800	3.599800	-10.769000	25.425993	0.000397	20.807264
1128.301502	-3.011100	3.600000	-10.839000	25.379269	0.000400	20.795434
1129.308689	-3.028800	3.598400	-10.898000	25.407751	0.000397	20.815972
1130.305807	-3.026900	3.599700	-10.895000	25.395821	0.000397	20.801149
1131.302057	-3.011400	3.598900	-10.837000	25.428502	0.000395	20.803619
1132.305871	-2.989500	3.599800	-10.760000	25.489836	0.000398	20.807837
1133.312360	-3.020100	3.599800	-10.870000	25.513543	0.000396	20.819790
1134.303436	-3.005600	3.598600	-10.815000	25.514065	0.000395	20.812254
1135.309418	-3.019400	3.598200	-10.863000	25.529868	0.000394	20.802994
1136.304770	-2.997100	3.597800	-10.782000	25.473855	0.000395	20.786099
1137.306065	-2.987600	3.597400	-10.746000	25.500322	0.000394	20.799875
1138.305121	-3.010000	3.597400	-10.827000	25.506237	0.000394	20.796806
1139.304957	-3.001100	3.596800	-10.793000	25.479571	0.000393	20.795158
1140.308427	-3.007800	3.596300	-10.817000	25.479546	0.000394	20.813625
1141.310597	-2.990900	3.597800	-10.760000	25.488270	0.000393	20.795359
1142.305513	-2.988600	3.596100	-10.747000	25.474301	0.000392	20.801246
1143.306187	-3.025600	3.594200	-10.874000	25.433396	0.000391	20.792412
1144.313434	-3.010200	3.595400	-10.822000	25.426262	0.000390	20.787619
1145.305163	-2.961000	3.596900	-10.650000	25.428874	0.000390	20.796406
1146.308564	-3.033200	3.593000	-10.897000	25.402777	0.000391	20.797227
1147.317467	-2.977800	3.595000	-10.704000	25.402951	0.000389	20.814472
1148.318128	-2.979600	3.594600	-10.709000	25.405485	0.000389	20.803266
1149.317764	-2.998300	3.593900	-10.775000	25.434984	0.000390	20.803490
1150.307642	-2.985700	3.593600	-10.729000	25.480761	0.000391	20.778809
1151.307167	-2.969500	3.593700	-10.670000	25.508941	0.000391	20.790513
1152.308067	-2.997200	3.592100	-10.766000	25.491594	0.000388	20.783524
1153.310485	-3.009700	3.592000	-10.810000	25.528226	0.000388	20.805612
1154.311313	-3.024400	3.592100	-10.863000	25.499498	0.000387	20.761115
1155.325608	-2.988700	3.592200	-10.735000	25.496763	0.000388	20.807207
1156.319305	-3.011800	3.591100	-10.815000	25.480163	0.000386	20.782476
1157.312986	-3.009000	3.590200	-10.802000	25.462890	0.000387	20.789313
1158.310608	-3.007200	3.592000	-10.800000	25.394720	0.000388	20.775861
1159.314559	-3.011500	3.590700	-10.812000	25.397206	0.000386	20.785470
1160.315813	-2.996800	3.592200	-10.764000	25.428768	0.000387	20.791084
1161.313829	-3.013500	3.591000	-10.820000	25.432322	0.000385	20.791333
1162.323150	-3.015700	3.589800	-10.825000	25.484386	0.000387	20.772966
1163.316841	-2.991100	3.590400	-10.738000	25.508290	0.000384	20.795075
1164.319809	-2.978400	3.589500	-10.689000	25.525810	0.000385	20.790858
1165.313129	-2.979200	3.589200	-10.692000	25.530034	0.000382	20.787039
1166.321130	-2.983900	3.588800	-10.707000	25.539354	0.000384	20.772217
1167.318910	-2.988700	3.588800	-10.725000	25.559059	0.000383	20.782997
1168.329373	-2.981300	3.589100	-10.700000	25.567905	0.000382	20.783346
1169.312146	-2.996300	3.588800	-10.752000	25.542558	0.000385	20.751726
1170.315768	-3.000900	3.587400	-10.764000	25.566188	0.000383	20.779251
1171.317051	-2.990000	3.588000	-10.727000	25.568823	0.000382	20.770043
1172.316051	-2.980700	3.587500	-10.693000	25.567382	0.000384	20.772389
1173.317153	-2.997100	3.586300	-10.747000	25.561816	0.000384	20.787188
1174.316297	-2.983900	3.586900	-10.702000	25.621180	0.000381	20.777107
1175.319456	-2.992300	3.586300	-10.730000	25.586714	0.000382	20.800339
1176.316020	-2.974800	3.586300	-10.668000	25.566263	0.000382	20.774585
1177.324761	-2.976400	3.584900	-10.669000	25.541339	0.000378	20.753347
1178.318819	-3.005100	3.584900	-10.772000	25.498076	0.000379	20.770593
1179.325004	-2.964000	3.585300	-10.626000	25.448845	0.000380	20.765726
1180.321547	-3.001400	3.584700	-10.758000	25.453120	0.000379	20.783295
1181.321868	-3.006900	3.584000	-10.776000	25.496957	0.000378	20.774685
1182.317350	-3.002700	3.584400	-10.761000	25.499418	0.000380	20.767673
1183.324705	-2.987900	3.584600	-10.710000	25.532916	0.000379	20.771441
1184.327440	-2.980400	3.582800	-10.677000	25.604631	0.000376	20.758590
1185.327117	-3.004600	3.583100	-10.764000	25.641653	0.000379	20.758314
1186.326265	-3.007500	3.582800	-10.775000	25.620929	0.000377	20.764527
1187.323842	-2.984400	3.582700	-10.691000	25.626074	0.000376	20.768272
1188.329370	-2.996900	3.582000	-10.734000	25.656014	0.000376	20.788385
1189.319441	-3.004500	3.581600	-10.760000	25.648735	0.000375	20.747883
1190.320208	-2.974100	3.581400	-10.649000	25.676364	0.000378	20.758089
1191.322589	-2.987900	3.581100	-10.699000	25.643814	0.000375	20.772813
1192.321948	-3.003800	3.581800	-10.757000	25.625005	0.000376	20.750602
1193.322444	-2.998400	3.579400	-10.732000	25.534902	0.000374	20.768220
1194.323287	-3.016100	3.579500	-10.795000	25.485028	0.000373	20.767921
1195.323575	-2.997100	3.578700	-10.725000	25.471759	0.000375	20.764079
1196.327478	-3.027000	3.578100	-10.831000	25.505356	0.000373	20.749928
1197.324741	-3.004900	3.579600	-10.755000	25.555951	0.000373	20.779401
1198.333143	-2.979100	3.579000	-10.661000	25.551627	0.000373	20.748506
1199.325551	-2.980700	3.579500	-10.668000	25.564797	0.000372	20.749404
1200.325414	-2.999400	3.578800	-10.732000	25.553018	0.000369	20.763654
1201.327962	-3.020700	3.576800	-10.804000	25.573219	0.000372	20.745534
1202.328907	-3.001800	3.577700	-10.738000	25.573618	0.000370	20.772014
1203.325134	-3.000100	3.577400	-10.731000	25.600231	0.000369	20.739471
1204.326226	-3.005900	3.575800	-10.748000	25.562361	0.000370	20.762131
1205.328678	-2.994300	3.576700	-10.709000	25.573368	0.000369	20.753271
1206.327492	-3.007500	3.575800	-10.753000	25.583183	0.000368	20.769293
1207.330149	-3.036500	3.574400	-10.853000	25.585966	0.000369	20.755492
1208.337809	-2.992700	3.576600	-10.703000	25.611386	0.000369	20.752097
1209.328731	-3.007400	3.574600	-10.750000	25.628182	0.000370	20.786037
1210.332250	-2.995000	3.575300	-10.707000	25.602291	0.000367	20.763352
1211.329710	-2.974700	3.574000	-10.631000	25.606119	0.000368	20.754869
1212.334758	-2.995000	3.573100	-10.700000	25.620231	0.000369	20.771887
1213.331643	-3.022100	3.574100	-10.800000	25.645228	0.000366	20.739619
1214.331552	-3.008200	3.574400	-10.752000	25.644980	0.000366	20.761656
1215.332303	-3.025600	3.572300	-10.807000	25.595657	0.000364	20.750051
1216.331160	-3.021000	3.571900	-10.790000	25.574511	0.000366	20.744935
1217.332880	-2.996600	3.573500	-10.707000	25.559675	0.000366	20.755166
1218.335942	-2.992800	3.572800	-10.691000	25.612380	0.000365	20.766372
1219.331783	-2.999100	3.572100	-10.712000	25.619982	0.000363	20.750774
1220.333390	-2.997700	3.571400	-10.705000	25.674373	0.000364	20.766995
1221.335286	-2.985400	3.571500	-10.662000	25.682548	0.000364	20.751972
1222.332926	-2.976000	3.571000	-10.627000	25.637550	0.000364	20.750874
1223.335438	-2.969900	3.572600	-10.609000	25.653726	0.000362	20.743886
1224.333431	-3.008900	3.569900	-10.739000	25.651365	0.000365	20.768543
1225.337831	-3.030000	3.570100	-10.816000	25.645898	0.000363	20.748827
1226.332780	-3.006500	3.569300	-10.730000	25.655985	0.000364	20.752320
1227.335447	-3.019200	3.567800	-10.771000	25.636780	0.000362	20.748678
1228.337236	-2.999400	3.569400	-10.706000	25.573590	0.000361	20.762503
1229.334363	-2.978600	3.570200	-10.634000	25.542379	0.000360	20.759133
1230.338070	-2.985400	3.568100	-10.651000	25.551375	0.000360	20.770064
1231.333854	-2.982900	3.568700	-10.644000	25.534228	0.000362	20.758534
1232.334268	-2.995000	3.568000	-10.685000	25.497673	0.000360	20.751221
1233.333577	-2.971400	3.568400	-10.602000	25.459652	0.000360	20.759508
1234.334670	-3.004200	3.566900	-10.715000	25.464771	0.000359	20.741414
1235.335654	-2.999400	3.565800	-10.694000	25.505600	0.000359	20.769614
1236.345198	-2.997000	3.567600	-10.691000	25.525406	0.000359	20.736871
1237.335798	-3.010900	3.566200	-10.737000	25.524436	0.000360	20.767667
1238.333741	-3.004600	3.565400	-10.712000	25.543123	0.000358	20.764148
1239.338781	-2.996300	3.566600	-10.685000	25.608599	0.000357	20.767317
1240.336512	-2.994600	3.565500	-10.677000	25.598635	0.000356	20.751145
1241.338895	-2.991800	3.566100	-10.669000	25.591653	0.000359	20.756935
1242.337718	-2.997800	3.564900	-10.686000	25.600748	0.000356	20.753741
1243.337611	-3.006400	3.565200	-10.717000	25.611779	0.000357	20.747751
1244.337329	-2.980800	3.565100	-10.626000	25.540513	0.000357	20.753466
1245.341430	-2.998700	3.563100	-10.684000	25.526969	0.000356	20.757882
1246.336413	-3.011300	3.563400	-10.730000	25.528957	0.000356	20.768414
1247.339975	-3.026000	3.563200	-10.781000	25.522098	0.000354	20.759629
1248.342884	-3.017300	3.563500	-10.751000	25.526421	0.000353	20.746900
1249.339776	-3.013900	3.562700	-10.737000	25.528161	0.000354	20.745803
1250.342576	-3.003200	3.562000	-10.697000	25.588272	0.000355	20.754488
1251.339836	-3.033700	3.560800	-10.801000	25.570802	0.000356	20.763022
1252.340850	-2.995600	3.562000	-10.668000	25.538845	0.000356	20.763645
1253.340901	-2.987500	3.562100	-10.640000	25.554849	0.000353	20.763596
1254.342012	-2.995700	3.561100	-10.667000	25.540213	0.000354	20.751267
1255.341790	-2.980700	3.561500	-10.614000	25.575994	0.000353	20.749744
1256.343359	-2.986400	3.562700	-10.639000	25.606185	0.000354	20.743080
1257.342492	-3.005200	3.560400	-10.699000	25.603201	0.000352	20.758102
1258.341874	-2.994400	3.560600	-10.661000	25.611353	0.000350	20.766764
1259.343398	-2.974900	3.560300	-10.591000	25.558648	0.000350	20.766463
1260.348496	-3.013100	3.558400	-10.722000	25.580640	0.000351	20.760574
1261.349659	-2.990900	3.558200	-10.642000	25.584567	0.000351	20.741283
1262.343065	-3.000200	3.558300	-10.675000	25.600370	0.000350	20.748146
1263.343844	-3.008800	3.558400	-10.705000	25.611303	0.000352	20.761498
1264.343244	-2.989100	3.558200	-10.634000	25.608743	0.000350	20.749917
1265.344191	-3.017800	3.556300	-10.731000	25.640175	0.000348	20.749243
1266.351041	-2.997500	3.557300	-10.663000	25.634113	0.000348	20.744576
1267.348523	-2.976200	3.558300	-10.590000	25.641841	0.000348	20.744277
1268.355344	-2.995600	3.557000	-10.655000	25.633193	0.000350	20.756456
1269.347694	-3.002800	3.556900	-10.680000	25.638411	0.000347	20.767387
1270.347455	-3.012300	3.556100	-10.711000	25.644425	0.000348	20.773427
1271.344737	-2.983100	3.556100	-10.607000	25.687434	0.000347	20.759251
1272.347281	-3.010200	3.555700	-10.703000	25.669693	0.000347	20.765614
1273.347109	-3.007100	3.556400	-10.694000	25.625043	0.000348	20.759650
1274.344153	-3.016700	3.555000	-10.723000	25.673817	0.000346	20.771179
1275.345901	-3.015900	3.553500	-10.716000	25.639776	0.000346	20.764016
1276.345892	-2.985200	3.553700	-10.607000	25.670860	0.000348	20.774847
1277.348711	-2.991600	3.554200	-10.631000	25.620345	0.000344	20.779588
1278.346104	-3.000700	3.553100	-10.660000	25.588764	0.000345	20.784854
1279.346598	-3.010100	3.551800	-10.690000	25.609312	0.000342	20.760447
1280.351851	-2.993500	3.552800	-10.634000	25.612842	0.000345	20.787699
1281.349782	-2.992500	3.552400	-10.630000	25.623850	0.000345	20.771254
1282.347966	-3.026100	3.552000	-10.748000	25.647180	0.000343	20.781410
1283.354940	-2.990300	3.551500	-10.619000	25.656325	0.000344	20.766412
1284.349741	-2.997000	3.550900	-10.641000	25.665196	0.000343	20.757778
1285.349224	-2.998500	3.551000	-10.647000	25.615500	0.000343	20.792740
1286.359341	-2.997800	3.550900	-10.644000	25.605113	0.000343	20.780412
1287.351248	-3.013000	3.550000	-10.695000	25.616667	0.000342	20.782058
1288.354594	-2.992300	3.550300	-10.623000	25.614828	0.000342	20.774996
1289.351898	-2.990200	3.550100	-10.614000	25.574027	0.000342	20.779063
1290.352945	-3.000800	3.550000	-10.652000	25.520154	0.000340	20.780911
1291.354588	-2.990700	3.549800	-10.615000	25.515978	0.000340	20.777191
1292.351826	-2.961400	3.550200	-10.513000	25.561279	0.000341	20.779063
1293.353324	-3.045300	3.546300	-10.798000	25.571591	0.000341	20.790842
1294.352546	-2.995200	3.548600	-10.628000	25.644646	0.000340	20.745672
1295.352531	-2.994700	3.549900	-10.630000	25.640844	0.000340	20.758924
1296.356137	-3.004200	3.547100	-10.655000	25.639129	0.000340	20.803669
1297.352537	-3.017300	3.545800	-10.697000	25.599969	0.000338	20.770977
1298.355738	-3.014000	3.546600	-10.688000	25.575121	0.000338	20.771626
1299.354106	-2.995300	3.546200	-10.621000	25.613833	0.000336	20.772573
1300.352755	-2.976100	3.546000	-10.552000	25.618803	0.000338	20.786574
1301.352307	-2.982600	3.546300	-10.576000	25.607720	0.000335	20.793936
1302.354208	-2.992000	3.546900	-10.611000	25.590128	0.000337	20.793811
1303.354763	-3.015500	3.543900	-10.685000	25.622306	0.000338	20.791041
1304.355819	-3.013800	3.544900	-10.683000	25.606180	0.000339	20.779112
1305.354221	-2.990800	3.546300	-10.605000	25.649415	0.000337	20.772749
1306.354785	-3.015500	3.544000	-10.686000	25.674757	0.000335	20.779235
1307.356654	-3.008300	3.543200	-10.659000	25.708002	0.000335	20.790815
1308.357549	-2.998600	3.544000	-10.626000	25.705417	0.000334	20.789168
1309.361834	-2.977200	3.544000	-10.550000	25.701492	0.000336	20.767682
1310.358800	-2.992400	3.544000	-10.604000	25.636293	0.000333	20.768104
1311.354562	-2.997000	3.542500	-10.616000	25.605731	0.000332	20.787670
1312.356601	-2.980600	3.543300	-10.559000	25.594126	0.000334	20.799249
1313.357863	-2.999600	3.542200	-10.624000	25.630803	0.000335	20.790091
1314.357018	-2.990300	3.541400	-10.589000	25.677490	0.000333	20.778187
1315.360088	-3.007900	3.540200	-10.647000	25.682409	0.000332	20.812525
1316.357838	-2.980900	3.540600	-10.554000	25.726187	0.000332	20.800546
1317.363184	-2.971000	3.540900	-10.519000	25.731703	0.000333	20.780483
1318.357790	-2.988600	3.540900	-10.582000	25.747057	0.000333	20.788792
1319.361453	-2.987800	3.540500	-10.577000	25.671624	0.000332	20.805487
1320.360262	-2.994400	3.539500	-10.598000	25.659524	0.000333	20.792860
1321.371175	-3.015100	3.540000	-10.671000	25.664294	0.000330	20.790063
1322.359273	-3.010500	3.539100	-10.654000	25.615769	0.000329	20.797277
1323.366939	-3.026900	3.538700	-10.710000	25.634528	0.000331	20.792885
1324.370372	-2.968900	3.540300	-10.509000	25.629932	0.000330	20.789691
1325.362479	-2.982700	3.538300	-10.553000	25.604984	0.000331	20.805412
1326.359755	-2.991700	3.537300	-10.582000	25.609979	0.000329	20.798574
1327.360648	-2.984800	3.537200	-10.558000	25.614103	0.000329	20.808407
1328.362749	-2.980200	3.538000	-10.544000	25.640937	0.000328	20.794580
1329.364420	-2.991900	3.536200	-10.579000	25.669015	0.000330	20.804288
1330.380551	-3.012600	3.536400	-10.653000	25.657710	0.000329	20.801942
1331.361756	-3.007700	3.536800	-10.636000	25.633534	0.000329	20.805637
1332.367860	-3.000500	3.535000	-10.606000	25.635795	0.000328	20.798424
1333.374177	-2.961400	3.536800	-10.473000	25.646952	0.000326	20.791612
1334.375066	-3.004700	3.534400	-10.619000	25.635024	0.000325	20.781529
1335.366280	-2.991700	3.536600	-10.580000	25.639695	0.000328	20.809928
1336.364667	-2.961900	3.535400	-10.471000	25.667648	0.000325	20.812399
1337.364542	-2.973300	3.534600	-10.507000	25.646727	0.000325	20.807507
1338.364096	-2.993000	3.534800	-10.578000	25.656120	0.000325	20.790389
1339.363642	-2.990400	3.533400	-10.566000	25.692096	0.000325	20.814194
1340.367562	-3.008000	3.534200	-10.630000	25.665586	0.000324	20.826922
1341.367418	-3.023300	3.531200	-10.673000	25.658405	0.000327	20.835830
1342.374882	-2.992100	3.531900	-10.567000	25.655398	0.000321	20.782077
1343.364333	-2.998300	3.532200	-10.589000	25.705786	0.000323	20.815142
1344.367887	-2.992500	3.531800	-10.568000	25.662082	0.000322	20.803489
1345.367073	-2.996300	3.532100	-10.582000	25.714729	0.000322	20.809426
1346.369446	-2.981000	3.532700	-10.529000	25.707947	0.000323	20.815416
1347.367020	-2.979000	3.530700	-10.517000	25.703871	0.000325	20.791408
1348.367217	-3.012300	3.529800	-10.632000	25.723549	0.000322	20.811173
1349.369137	-2.997000	3.529900	-10.578000	25.728916	0.000320	20.793330
1350.368993	-3.008500	3.529100	-10.616000	25.693039	0.000321	20.837426
1351.369287	-3.005400	3.529600	-10.607000	25.686654	0.000322	20.825323
1352.385211	-3.013900	3.528500	-10.633000	25.703300	0.000318	20.786567
1353.375832	-2.984900	3.530100	-10.536000	25.704616	0.000319	20.822976
1354.371191	-3.017300	3.528700	-10.647000	25.708541	0.000320	20.809375
1355.378449	-2.996400	3.528100	-10.571000	25.706529	0.000319	20.815889
1356.370316	-3.011500	3.527700	-10.623000	25.724989	0.000320	20.847705
1357.370469	-3.000500	3.527400	-10.583000	25.736863	0.000318	20.824546
1358.371240	-3.015800	3.527000	-10.635000	25.758406	0.000318	20.836701
1359.371205	-3.020000	3.526700	-10.650000	25.751771	0.000320	20.829563
1360.372272	-2.997700	3.526800	-10.571000	25.797509	0.000317	20.816711
1361.371181	-3.010500	3.526500	-10.616000	25.781884	0.000318	20.810498
1362.373706	-3.011200	3.525300	-10.615000	25.734255	0.000318	20.829513
1363.370002	-3.023700	3.525000	-10.658000	25.751598	0.000316	20.835553
1364.370495	-3.008300	3.524600	-10.602000	25.756045	0.000316	20.831484
1365.369470	-3.022900	3.524200	-10.653000	25.731372	0.000317	20.845108
1366.369279	-2.995500	3.524900	-10.557000	25.725758	0.000315	20.832832
1367.373449	-3.002600	3.523800	-10.579000	25.706130	0.000314	20.816910
1368.372575	-2.994100	3.523700	-10.549000	25.705732	0.000315	20.825519
1369.371160	-2.991700	3.523900	-10.541000	25.765236	0.000315	20.858734
1370.373066	-3.005100	3.523000	-10.585000	25.771524	0.000314	20.821903
1371.374155	-3.014200	3.523900	-10.620000	25.815571	0.000314	20.851922
1372.373014	-3.026600	3.521800	-10.658000	25.758777	0.000314	20.854143
1373.374252	-3.003500	3.523400	-10.582000	25.742901	0.000314	20.827291
1374.384642	-2.983700	3.522300	-10.509000	25.710501	0.000313	20.833154
1375.374783	-3.013900	3.521400	-10.613000	25.711321	0.000313	20.824495
1376.375100	-3.006800	3.520700	-10.585000	25.700340	0.000312	20.828638
1377.374087	-2.985500	3.521200	-10.512000	25.701358	0.000313	20.849574
1378.374740	-2.968800	3.521600	-10.454000	25.681730	0.000312	20.836973
1379.375607	-3.003900	3.520500	-10.575000	25.686923	0.000311	20.821326
1380.378454	-3.001600	3.519700	-10.564000	25.742080	0.000311	20.825992
1381.384212	-3.019900	3.520000	-10.628000	25.772140	0.000311	20.850496
1382.385633	-3.016100	3.519600	-10.614000	25.784389	0.000310	20.857584
1383.377414	-3.007300	3.518800	-10.581000	25.733781	0.000312	20.841364
1384.378240	-3.011100	3.519100	-10.595000	25.769185	0.000309	20.836148
1385.376785	-3.004700	3.518400	-10.571000	25.703617	0.000310	20.844257
1386.379921	-2.977000	3.518100	-10.472000	25.717754	0.000311	20.853241
1387.377705	-2.995900	3.517700	-10.538000	25.695045	0.000310	20.845130
1388.384670	-3.017700	3.517200	-10.613000	25.701778	0.000309	20.859004
1389.381673	-3.013500	3.517200	-10.598000	25.687517	0.000311	20.848474
1390.377362	-3.008800	3.515400	-10.576000	25.711370	0.000308	20.872905
1391.389287	-3.001800	3.516600	-10.555000	25.745556	0.000308	20.874052
1392.376769	-3.025300	3.514900	-10.633000	25.783991	0.000309	20.861925
1393.389537	-3.006100	3.515700	-10.568000	25.824435	0.000310	20.869834
1394.380642	-2.995900	3.514700	-10.529000	25.807541	0.000308	20.845279
1395.393208	-3.008000	3.515200	-10.573000	25.756586	0.000306	20.859054
1396.383393	-3.018100	3.514200	-10.606000	25.736413	0.000308	20.859653
1397.381337	-3.000500	3.514200	-10.544000	25.788635	0.000306	20.869909
1398.377346	-2.988400	3.514000	-10.500000	25.771343	0.000306	20.870083
1399.381803	-2.993200	3.513700	-10.516000	25.730547	0.000307	20.864667
1400.386302	-2.983300	3.513200	-10.480000	25.774549	0.000304	20.871406
1401.377473	-3.002600	3.512200	-10.545000	25.788610	0.000307	20.868936
1402.378630	-2.985300	3.514500	-10.490000	25.815714	0.000305	20.863919
1403.381475	-2.991400	3.512500	-10.506000	25.813975	0.000303	20.874026
1404.386073	-2.999200	3.511700	-10.532000	25.853724	0.000303	20.866066
1405.377769	-3.006600	3.510700	-10.554000	25.864057	0.000303	20.847998
1406.382359	-2.968500	3.511600	-10.423000	25.885671	0.000305	20.856907
1407.379575	-3.005200	3.511500	-10.551000	25.846619	0.000301	20.865567
1408.382442	-2.991300	3.510600	-10.500000	25.839463	0.000301	20.865016
1409.379737	-2.993000	3.510600	-10.506000	25.871983	0.000304	20.868287
1410.387137	-2.976000	3.510300	-10.446000	25.822546	0.000302	20.882635
1411.381971	-3.007400	3.510300	-10.556000	25.753232	0.000300	20.869435
1412.385843	-3.002100	3.510600	-10.538000	25.741803	0.000303	20.875498
1413.398437	-3.012800	3.508500	-10.569000	25.734897	0.000301	20.880889
1414.382968	-3.004800	3.509300	-10.544000	25.709033	0.000302	20.879567
1415.385460	-2.994400	3.509600	-10.509000	25.760313	0.000299	20.894563
1416.378095	-3.011600	3.507300	-10.561000	25.687441	0.000300	20.882061
1417.378098	-2.995900	3.508500	-10.510000	25.688211	0.000300	20.869559
1418.382545	-3.012200	3.508100	-10.566000	25.697281	0.000299	20.888151
1419.381550	-3.015300	3.507200	-10.574000	25.688982	0.000300	20.878867
1420.384274	-3.011200	3.506600	-10.558000	25.736486	0.000299	20.869684
1421.384726	-3.015500	3.505200	-10.569000	25.758052	0.000299	20.885181
1422.383271	-2.965400	3.507400	-10.400000	25.719517	0.000299	20.874450
1423.391709	-2.993000	3.506000	-10.493000	25.724610	0.000298	20.886203
1424.387135	-2.979200	3.506500	-10.446000	25.768587	0.000298	20.875849
1425.383636	-2.962200	3.505400	-10.383000	25.804709	0.000298	20.881787
1426.394046	-3.017600	3.504800	-10.575000	25.823715	0.000298	20.906566
1427.390516	-2.963900	3.505300	-10.389000	25.791045	0.000299	20.893665
1428.386901	-2.991100	3.503700	-10.479000	25.801927	0.000297	20.889897
1429.384159	-3.000000	3.503100	-10.508000	25.836632	0.000295	20.900102
1430.403270	-2.991800	3.503200	-10.480000	25.837751	0.000297	20.892692
1431.389448	-2.985800	3.502800	-10.458000	25.849576	0.000295	20.879916
1432.389683	-3.002300	3.502000	-10.513000	25.861475	0.000294	20.897558
1433.383701	-2.998800	3.501600	-10.499000	25.864108	0.000297	20.893565
1434.385647	-3.020700	3.500800	-10.574000	25.816161	0.000296	20.898505
1435.389337	-2.991400	3.501500	-10.474000	25.804138	0.000293	20.901600
1436.386899	-3.007800	3.500400	-10.527000	25.832136	0.000292	20.897483
1437.399881	-2.998000	3.502000	-10.498000	25.814323	0.000295	20.886228
1438.389648	-3.009100	3.500600	-10.533000	25.791416	0.000293	20.919640
1439.386158	-3.009900	3.499500	-10.533000	25.785107	0.000293	20.897657
1440.392327	-3.007100	3.500100	-10.524000	25.783691	0.000294	20.894338
1441.385625	-2.983800	3.500500	-10.443000	25.813802	0.000294	20.892343
1442.388866	-3.020000	3.497600	-10.561000	25.803343	0.000292	20.910758
1443.397992	-2.976000	3.498000	-10.409000	25.797578	0.000294	20.909708
1444.391178	-3.019400	3.498900	-10.563000	25.789305	0.000291	20.895236
1445.394392	-3.012000	3.498400	-10.536000	25.764910	0.000291	20.911507
1446.387989	-3.008100	3.497400	-10.520000	25.824062	0.000293	20.905493
1447.396604	-2.983500	3.497300	-10.433000	25.851912	0.000291	20.896012
1448.392442	-2.992600	3.498000	-10.467000	25.878268	0.000288	20.918219
1449.390758	-3.030800	3.497400	-10.599000	25.911133	0.000291	20.903820
1450.391140	-3.006700	3.496300	-10.511000	25.919008	0.000291	20.895137
1451.391270	-3.003200	3.496400	-10.500000	25.928571	0.000289	20.900951
1452.398635	-3.032900	3.494300	-10.597000	25.906538	0.000289	20.883084
1453.391941	-2.981100	3.497700	-10.426000	25.837576	0.000289	20.888250
1454.392162	-3.010700	3.495000	-10.521000	25.797902	0.000288	20.887276
1455.392617	-2.988200	3.495400	-10.444000	25.785406	0.000286	20.888949
1456.393305	-3.011300	3.494200	-10.522000	25.762798	0.000290	20.883784
1457.398574	-2.987700	3.494400	-10.439000	25.772437	0.000288	20.881138
1458.394061	-3.010200	3.493000	-10.514000	25.730027	0.000286	20.889273
1459.392334	-3.027100	3.493100	-10.573000	25.768685	0.000286	20.891593
1460.393849	-2.984400	3.494600	-10.428000	25.802871	0.000287	20.879941
1461.395525	-2.989800	3.492900	-10.442000	25.825603	0.000285	20.892817
1462.397251	-2.993800	3.492100	-10.453000	25.832311	0.000285	20.885331
1463.396091	-2.997100	3.493300	-10.469000	25.812710	0.000286	20.886030
1464.394418	-3.013200	3.492200	-10.522000	25.789531	0.000285	20.885506
1465.395453	-2.983400	3.491900	-10.416000	25.805828	0.000282	20.867264
1466.395890	-2.991000	3.492900	-10.446000	25.799668	0.000284	20.875775
1467.396722	-2.982700	3.491100	-10.412000	25.832262	0.000283	20.880541
1468.401152	-2.975900	3.492000	-10.391000	25.838272	0.000284	20.862398
1469.396382	-3.020400	3.489800	-10.539000	25.838944	0.000284	20.878244
1470.396326	-3.016700	3.488500	-10.523000	25.801977	0.000282	20.882835
1471.395116	-2.998300	3.489700	-10.462000	25.820834	0.000281	20.886605
1472.398701	-2.981900	3.488900	-10.402000	25.806399	0.000281	20.870209
1473.396894	-2.995900	3.487800	-10.448000	25.788836	0.000280	20.857309
1474.400033	-2.988100	3.489600	-10.426000	25.752489	0.000282	20.869162
1475.396918	-2.996900	3.488400	-10.454000	25.765432	0.000280	20.855137
1476.397657	-2.957400	3.489200	-10.318000	25.759047	0.000280	20.871009
1477.401674	-3.010500	3.487900	-10.500000	25.804760	0.000281	20.860977
1478.399439	-2.954100	3.489600	-10.308000	25.794873	0.000282	20.883286
1479.406771	-3.015400	3.486600	-10.513000	25.782872	0.000282	20.854164
1480.400732	-2.964600	3.488500	-10.340000	25.755642	0.000282	20.868537
1481.400146	-2.992300	3.486100	-10.430000	25.730648	0.000281	20.861450
1482.400042	-2.991100	3.486700	-10.429000	25.754425	0.000278	20.865892
1483.401081	-2.992800	3.485800	-10.431000	25.774473	0.000278	20.865641
1484.402223	-3.009400	3.484200	-10.485000	25.799118	0.000277	20.860051
1485.405779	-2.975600	3.486200	-10.372000	25.760885	0.000276	20.851992
1486.407405	-2.988000	3.485100	-10.412000	25.732138	0.000277	20.848248
1487.401274	-3.008100	3.484100	-10.480000	25.780362	0.000277	20.864443
1488.403017	-2.999400	3.483500	-10.446000	25.794721	0.000276	20.860849
1489.403403	-3.008600	3.483300	-10.479000	25.822569	0.000277	20.853736
1490.406534	-2.994500	3.482900	-10.429000	25.885621	0.000276	20.837892
1491.405107	-3.000000	3.481900	-10.444000	25.882316	0.000278	20.862546
1492.401993	-2.990900	3.481500	-10.412000	25.924472	0.000276	20.854162
1493.406581	-3.017300	3.481700	-10.505000	25.894438	0.000275	20.881835
1494.405073	-3.001300	3.481900	-10.449000	25.887285	0.000275	20.842882
1495.407691	-3.002000	3.480300	-10.447000	25.841152	0.000273	20.870506
1496.405689	-3.001600	3.480000	-10.445000	25.828010	0.000275	20.849245
1497.407202	-2.995700	3.482200	-10.430000	25.851212	0.000275	20.856905
1498.407779	-2.994500	3.479900	-10.419000	25.899655	0.000273	20.842507
1499.407021	-2.992300	3.480500	-10.413000	25.873049	0.000273	20.858452
1500.407585	-2.996400	3.479500	-10.425000	25.841599	0.000272	20.849145
1501.413613	-2.992500	3.479400	-10.411000	25.802644	0.000271	20.863593
1502.407105	-3.015600	3.478500	-10.489000	25.789403	0.000271	20.837491
1503.408462	-2.985100	3.478700	-10.384000	25.801427	0.000273	20.839612
1504.411859	-3.013700	3.477600	-10.479000	25.817600	0.000273	20.839262
1505.409550	-3.016100	3.476800	-10.485000	25.788582	0.000271	20.841882
1506.412109	-3.016800	3.477200	-10.489000	25.851262	0.000274	20.857429
1507.411363	-3.011100	3.477400	-10.470000	25.871011	0.000271	20.828906
1508.413198	-3.000600	3.477400	-10.434000	25.865124	0.000270	20.849070
1509.413242	-2.984800	3.478500	-10.382000	25.786073	0.000271	20.833198
1510.414348	-3.016100	3.474900	-10.479000	25.772657	0.000271	20.833472
1511.415103	-2.986800	3.477400	-10.385000	25.795191	0.000271	20.858003
1512.413525	-3.011600	3.476100	-10.468000	25.823388	0.000269	20.832749
1513.413340	-3.011300	3.475600	-10.466000	25.797352	0.000269	20.854010
1514.414526	-3.009100	3.475100	-10.456000	25.770074	0.000267	20.827085
1515.416615	-3.007500	3.475200	-10.451000	25.765578	0.000271	20.845801
1516.417083	-3.001700	3.474900	-10.429000	25.733453	0.000270	20.848147
1517.416664	-3.004300	3.476200	-10.443000	25.755813	0.000267	20.838838
1518.416254	-2.989800	3.474700	-10.388000	25.804979	0.000268	20.848870
1519.417125	-3.000400	3.474300	-10.424000	25.859138	0.000269	20.842108
1520.418774	-3.007500	3.472900	-10.444000	25.895357	0.000269	20.869957
1521.420101	-3.008200	3.474100	-10.450000	25.907031	0.000267	20.839486
1522.419794	-2.978000	3.472800	-10.341000	25.906884	0.000267	20.840761
1523.417916	-2.998900	3.472400	-10.412000	25.880030	0.000267	20.856931
1524.419080	-2.981300	3.471800	-10.350000	25.896575	0.000268	20.836094
1525.422748	-2.999700	3.471200	-10.412000	25.852231	0.000266	20.862195
1526.432527	-3.017200	3.472000	-10.474000	25.831042	0.000267	20.846126
1527.425385	-3.004700	3.470800	-10.428000	25.876603	0.000265	20.825040
1528.421006	-3.007000	3.470100	-10.434000	25.912224	0.000267	20.842332
1529.423228	-2.996700	3.471000	-10.401000	25.943301	0.000267	20.831353
1530.425481	-2.998000	3.470000	-10.402000	25.960342	0.000265	20.829034
1531.418918	-3.010000	3.469700	-10.442000	25.977904	0.000264	20.836720
1532.420221	-3.010100	3.470200	-10.445000	25.960118	0.000263	20.843033
1533.423345	-3.002200	3.469300	-10.414000	25.931529	0.000263	20.820949
1534.420070	-3.001900	3.467700	-10.409000	25.915531	0.000261	20.827163
1535.419212	-2.987000	3.469600	-10.363000	25.967496	0.000261	20.833850
1536.421424	-2.991700	3.469200	-10.378000	25.992038	0.000263	20.845703
1537.421423	-3.000700	3.468900	-10.408000	25.955275	0.000265	20.829633
1538.423971	-3.008400	3.467600	-10.432000	25.883436	0.000261	20.816258
1539.431233	-2.996100	3.467700	-10.389000	25.826871	0.000261	20.837669
1540.421618	-3.006400	3.466000	-10.420000	25.778228	0.000262	20.825318
1541.444278	-2.976700	3.467100	-10.319000	25.825207	0.000260	20.817032
1542.438789	-3.005300	3.465300	-10.414000	25.848758	0.000261	20.828362
1543.447773	-3.003800	3.466700	-10.412000	25.904478	0.000260	20.836447
1544.439367	-2.997900	3.465000	-10.387000	25.955177	0.000261	20.818629
1545.423753	-2.989800	3.465100	-10.358000	25.944472	0.000259	20.819728
1546.440681	-2.975400	3.465300	-10.310000	25.933989	0.000259	20.850447
1547.445648	-2.994700	3.465700	-10.378000	25.973709	0.000260	20.828238
1548.445157	-2.988900	3.464800	-10.355000	25.939852	0.000258	20.820303
1549.453203	-2.997200	3.464200	-10.382000	25.953762	0.000256	20.828587
1550.446529	-2.998500	3.464200	-10.387000	25.941218	0.000257	20.834003
1551.443451	-3.004600	3.463200	-10.405000	25.955552	0.000256	20.825643
1552.445005	-2.982200	3.464300	-10.330000	26.002845	0.000257	20.811518
1553.449019	-2.987600	3.463300	-10.346000	26.017947	0.000257	20.826690
1554.443649	-3.010400	3.462900	-10.424000	26.022643	0.000256	20.816710
1555.425437	-2.992400	3.461700	-10.358000	26.000436	0.000258	20.820477
1556.426528	-3.002600	3.462100	-10.395000	26.019735	0.000257	20.836073
1557.426646	-2.992000	3.462000	-10.358000	26.009874	0.000256	20.797243
1558.426939	-3.012900	3.459700	-10.422000	25.980167	0.000254	20.836148
1559.431033	-3.028300	3.459100	-10.474000	25.954633	0.000252	20.831832
1560.430601	-3.001900	3.460400	-10.387000	25.931257	0.000256	20.828263
1561.449295	-2.980700	3.460800	-10.314000	25.910291	0.000255	20.818580
1562.429409	-3.015300	3.460300	-10.432000	25.931331	0.000254	20.808423
1563.432161	-2.998000	3.459000	-10.369000	25.944645	0.000256	20.823221
1564.429434	-3.004300	3.460000	-10.394000	25.908727	0.000254	20.858259
1565.430853	-2.988000	3.459400	-10.336000	25.864756	0.000252	20.809346
1566.434140	-2.977300	3.459400	-10.298000	25.855887	0.000252	20.829360
1567.429781	-3.042100	3.456100	-10.513000	25.913123	0.000252	20.813838
1568.429520	-3.004400	3.456800	-10.385000	25.926860	0.000252	20.804406
1569.432109	-2.998400	3.455900	-10.361000	25.941169	0.000253	20.810245
1570.433428	-2.980800	3.458000	-10.308000	25.943404	0.000249	20.809646
1571.446489	-2.994700	3.456800	-10.350000	25.962680	0.000250	20.805778
1572.447152	-2.956500	3.457700	-10.222000	26.021375	0.000249	20.832505
1573.459738	-3.000500	3.456500	-10.370000	25.956469	0.000249	20.824195
1574.455818	-3.005300	3.455900	-10.384000	25.953141	0.000248	20.808049
1575.455936	-3.006800	3.454600	-10.385000	25.928600	0.000248	20.791929
1576.452660	-2.995400	3.455100	-10.348000	25.901200	0.000251	20.804706
1577.448024	-2.999300	3.455800	-10.364000	25.939703	0.000250	20.802609
1578.433038	-2.995100	3.454800	-10.347000	25.922164	0.000249	20.807274
1579.451070	-2.999400	3.454200	-10.360000	25.904453	0.000248	20.830732
1580.450428	-3.004000	3.454300	-10.375000	25.927232	0.000247	20.781072
1581.435336	-2.956900	3.455700	-10.217000	25.897546	0.000247	20.821898
1582.435088	-3.000100	3.453000	-10.359000	25.838944	0.000245	20.817081
1583.457684	-3.001100	3.453400	-10.363000	25.824832	0.000248	20.817604
1584.452422	-3.000300	3.453100	-10.359000	25.883164	0.000246	20.812665
1585.434892	-3.009200	3.450400	-10.382000	25.872331	0.000246	20.802732
1586.436007	-2.988600	3.451600	-10.315000	25.865152	0.000243	20.805951
1587.435425	-2.970900	3.452700	-10.256000	25.854321	0.000246	20.831579
1588.435508	-2.976100	3.452500	-10.274000	25.853151	0.000244	20.801956
1589.435520	-2.994700	3.451000	-10.334000	25.889843	0.000245	20.797564
1590.439120	-3.009100	3.449700	-10.380000	25.879510	0.000243	20.798089
1591.435725	-2.996000	3.450400	-10.336000	25.844679	0.000244	20.811463
1592.438998	-3.005400	3.451400	-10.371000	25.906260	0.000243	20.783710
1593.436801	-3.019300	3.449700	-10.415000	25.909367	0.000245	20.792048
1594.459531	-2.988600	3.448900	-10.306000	25.897046	0.000243	20.814283
1595.452992	-3.009800	3.449500	-10.381000	25.913739	0.000243	20.788854
1596.437118	-2.979700	3.449800	-10.277000	25.942728	0.000243	20.787156
1597.445326	-3.010400	3.447000	-10.376000	25.887778	0.000243	20.784584
1598.437438	-3.000100	3.447900	-10.343000	25.863980	0.000241	20.801454
1599.440867	-3.009200	3.447100	-10.371000	25.885692	0.000242	20.797187
1600.444267	-3.009500	3.446800	-10.372000	25.919500	0.000241	20.789900
1601.438168	-3.009600	3.446700	-10.372000	25.867184	0.000242	20.804199
1602.440299	-2.995000	3.446400	-10.321000	25.892298	0.000240	20.796237
1603.443064	-2.976800	3.447900	-10.263000	25.947669	0.000241	20.792594
1604.440591	-2.982200	3.445400	-10.274000	25.959641	0.000239	20.804148
1605.460064	-3.016200	3.444900	-10.389000	25.995262	0.000241	20.795364
1606.460971	-2.991300	3.444900	-10.303000	26.024050	0.000241	20.801528
1607.440978	-3.001800	3.445100	-10.341000	26.041163	0.000241	20.777944
1608.463385	-2.975100	3.445500	-10.249000	26.028073	0.000238	20.793717
1609.441103	-2.989200	3.444100	-10.294000	26.014163	0.000238	20.793966
1610.460440	-3.016700	3.444500	-10.391000	25.980705	0.000238	20.773627
1611.461471	-3.021600	3.442500	-10.400000	25.986964	0.000237	20.779441
1612.462720	-2.990100	3.443400	-10.295000	26.019454	0.000238	20.791221
1613.460687	-3.000400	3.443400	-10.331000	26.038157	0.000237	20.804322
1614.465479	-2.996700	3.442300	-10.315000	26.002761	0.000237	20.803372
1615.461189	-2.990000	3.443300	-10.294000	26.005394	0.000235	20.781836
1616.443228	-3.008800	3.441600	-10.355000	26.013243	0.000236	20.806317
1617.445366	-3.013300	3.441400	-10.369000	25.956435	0.000234	20.797607
1618.445452	-2.999500	3.442000	-10.324000	25.916144	0.000235	20.774200
1619.447359	-2.995900	3.440300	-10.306000	25.926800	0.000235	20.791069
1620.445790	-2.982200	3.440200	-10.259000	25.946324	0.000233	20.809735
1621.445151	-3.012100	3.440300	-10.362000	25.951739	0.000235	20.767285
1622.470427	-3.025800	3.439700	-10.407000	25.931916	0.000235	20.795260
1623.445150	-3.001100	3.440800	-10.325000	25.904344	0.000233	20.797432
1624.450001	-2.988200	3.439800	-10.278000	25.932066	0.000235	20.779289
1625.447644	-2.995200	3.440500	-10.304000	25.975088	0.000233	20.784105
1626.470901	-3.002900	3.439700	-10.328000	25.953850	0.000234	20.783156
1627.464418	-2.987500	3.438500	-10.271000	25.934920	0.000236	20.774096
1628.463662	-3.001100	3.438300	-10.318000	25.947043	0.000233	20.769206
1629.449198	-2.998800	3.437700	-10.308000	25.922823	0.000233	20.774745
1630.451337	-3.003500	3.438900	-10.327000	25.927195	0.000232	20.779138
1631.448058	-3.004200	3.437200	-10.324000	25.950619	0.000232	20.774221
1632.450137	-2.980200	3.438000	-10.245000	25.963437	0.000232	20.767658
1633.451550	-2.990100	3.437900	-10.278000	25.968330	0.000231	20.778263
1634.469327	-3.020500	3.435900	-10.378000	25.971459	0.000232	20.774769
1635.455432	-3.018000	3.435100	-10.366000	26.030054	0.000230	20.777215
1636.451322	-2.986300	3.436800	-10.261000	26.010159	0.000230	20.782356
1637.452342	-3.006500	3.436000	-10.330000	25.976626	0.000231	20.786598
1638.452199	-3.016400	3.434900	-10.360000	25.944830	0.000231	20.781207
1639.468084	-3.021700	3.435600	-10.381000	25.893782	0.000230	20.780658
1640.470637	-3.000200	3.433900	-10.301000	25.834832	0.000228	20.784501
1641.476062	-2.985400	3.434600	-10.252000	25.816747	0.000230	20.776766
1642.453606	-2.989800	3.433100	-10.263000	25.855377	0.000227	20.767208
1643.453556	-2.995600	3.435000	-10.289000	25.872790	0.000227	20.771898
1644.458971	-2.997300	3.432100	-10.286000	25.843353	0.000226	20.804915
1645.454395	-3.019600	3.432700	-10.364000	25.852966	0.000227	20.780433
1646.455961	-3.012500	3.431800	-10.337000	25.896514	0.000229	20.789093
1647.454823	-3.012800	3.431400	-10.337000	25.944257	0.000226	20.769252
1648.456338	-3.007300	3.431100	-10.317000	25.970142	0.000226	20.781506
1649.475798	-3.000900	3.431600	-10.297000	25.981940	0.000227	20.781032
1650.476018	-2.996600	3.430300	-10.279000	25.982884	0.000225	20.780558
1651.462702	-3.013000	3.430000	-10.334000	25.902998	0.000225	20.766208
1652.460538	-3.002000	3.429600	-10.294000	25.918399	0.000225	20.754653
1653.479162	-3.012700	3.430600	-10.334000	25.954293	0.000226	20.755152
1654.484532	-3.013200	3.429300	-10.332000	25.992694	0.000225	20.765758
1655.481130	-2.991800	3.429000	-10.258000	26.006208	0.000223	20.756100
1656.476936	-3.001700	3.428500	-10.291000	25.965719	0.000224	20.768053
1657.475626	-3.015900	3.427300	-10.336000	25.959907	0.000223	20.751783
1658.474818	-3.002700	3.428100	-10.292000	25.946194	0.000223	20.771197
1659.459347	-2.963000	3.428700	-10.158000	25.902027	0.000221	20.763811
1660.459791	-3.014700	3.426000	-10.327000	25.896760	0.000221	20.779382
1661.460093	-3.033100	3.427400	-10.394000	25.900164	0.000221	20.750559
1662.463401	-2.997900	3.427900	-10.275000	25.900065	0.000221	20.761839
1663.460057	-3.002700	3.428300	-10.292000	25.894501	0.000221	20.760991
1664.459713	-3.017200	3.426300	-10.337000	25.959135	0.000222	20.760965
1665.459722	-2.994900	3.426700	-10.262000	25.993910	0.000221	20.754650
1666.460267	-2.999900	3.425800	-10.277000	25.955632	0.000221	20.747014
1667.462302	-2.976000	3.427100	-10.198000	25.944205	0.000221	20.739801
1668.460639	-2.992900	3.425800	-10.253000	25.943311	0.000221	20.755973
1669.464611	-3.006700	3.425200	-10.297000	25.969963	0.000221	20.760463
1670.461320	-2.985800	3.424700	-10.225000	25.966735	0.000222	20.749159
1671.461273	-3.006400	3.425300	-10.297000	26.044083	0.000218	20.736781
1672.461545	-2.996100	3.426000	-10.264000	26.025106	0.000220	20.750432
1673.461369	-3.002400	3.424000	-10.280000	25.969368	0.000219	20.752754
1674.461126	-3.007800	3.423500	-10.296000	25.970585	0.000217	20.745915
1675.462337	-3.017100	3.422600	-10.325000	25.987626	0.000218	20.753079
1676.466924	-2.995900	3.422500	-10.252000	25.948802	0.000216	20.752006
1677.489399	-3.003500	3.421900	-10.277000	25.946342	0.000218	20.753328
1678.488993	-2.994600	3.421000	-10.244000	25.977069	0.000217	20.744369
1679.464289	-3.017700	3.420300	-10.321000	25.985267	0.000218	20.737905
1680.464906	-3.004900	3.420900	-10.278000	26.000716	0.000216	20.745841
1681.464356	-2.986900	3.421900	-10.221000	25.938022	0.000218	20.757772
1682.466916	-3.010000	3.419800	-10.294000	25.926347	0.000215	20.741775
1683.466932	-3.008200	3.420200	-10.287000	25.957447	0.000217	20.748838
1684.469479	-2.988900	3.420600	-10.222000	25.998308	0.000216	20.752431
1685.466434	-3.006300	3.419700	-10.280000	26.058120	0.000215	20.737133
1686.467932	-2.998400	3.420100	-10.253000	26.061499	0.000215	20.747167
1687.471273	-2.989200	3.419700	-10.221000	26.054470	0.000214	20.747217
1688.466549	-3.008400	3.419600	-10.286000	26.088720	0.000215	20.752233
1689.473855	-3.006700	3.417500	-10.274000	26.096222	0.000216	20.735588
1690.466103	-2.996900	3.418700	-10.245000	26.052011	0.000216	20.726254
1691.467284	-3.013200	3.418700	-10.300000	26.047366	0.000213	20.744822
1692.467537	-2.996700	3.418100	-10.243000	26.097588	0.000214	20.738383
1693.468261	-3.013300	3.417400	-10.296000	26.078663	0.000214	20.737860
1694.485504	-3.014400	3.416900	-10.298000	26.107747	0.000212	20.736263
1695.482759	-2.998300	3.417100	-10.245000	26.068406	0.000213	20.746995
1696.483284	-2.988800	3.415900	-10.209000	26.032887	0.000212	20.735963
1697.486229	-2.998900	3.415600	-10.243000	26.006806	0.000212	20.735364
1698.484881	-2.998000	3.416000	-10.240000	26.035795	0.000209	20.731772
1699.468683	-3.001800	3.416300	-10.254000	26.052586	0.000210	20.751489
1700.496375	-2.992100	3.415200	-10.218000	26.083259	0.000211	20.736788
1701.482682	-2.987800	3.415700	-10.203000	26.104619	0.000210	20.759673
1702.489504	-2.997700	3.413500	-10.232000	26.089494	0.000210	20.738786
1703.471829	-2.988300	3.412600	-10.197000	26.062049	0.000209	20.764790
1704.469215	-3.002700	3.412000	-10.243000	26.090214	0.000209	20.730500
1705.473663	-3.019500	3.414000	-10.308000	26.074542	0.000209	20.753160
1706.469696	-3.014200	3.412200	-10.284000	26.071934	0.000209	20.744376
1707.469535	-2.980200	3.413600	-10.173000	26.013740	0.000209	20.751340
1708.469629	-2.980400	3.414200	-10.174000	26.016744	0.000207	20.759574
1709.469894	-3.006400	3.411800	-10.256000	26.050103	0.000208	20.729078
1710.489994	-2.993900	3.412500	-10.216000	26.065726	0.000208	20.749992
1711.473569	-2.979200	3.411500	-10.162000	26.072059	0.000206	20.738337
1712.492457	-3.025800	3.410500	-10.319000	26.067390	0.000207	20.759725
1713.490055	-2.999400	3.410500	-10.229000	26.040863	0.000206	20.760099
1714.488965	-3.028900	3.409800	-10.326000	26.023973	0.000205	20.744077
1715.489517	-2.986000	3.409800	-10.181000	26.008772	0.000205	20.765790
1716.475771	-3.028100	3.409600	-10.324000	26.016322	0.000206	20.742080
1717.471017	-3.001100	3.409900	-10.232000	26.039820	0.000205	20.755258
1718.470996	-2.988800	3.408800	-10.187000	26.015279	0.000204	20.740083
1719.470725	-2.996100	3.409900	-10.215000	26.071190	0.000204	20.760698
1720.475746	-2.993900	3.409800	-10.208000	26.094810	0.000204	20.750765
1721.494696	-3.038200	3.408300	-10.354000	26.086067	0.000204	20.747196
1722.472559	-3.017800	3.406700	-10.281000	26.053058	0.000201	20.749592
1723.471724	-3.019900	3.406400	-10.286000	26.069549	0.000203	20.753359
1724.472201	-3.012900	3.405100	-10.259000	26.052237	0.000202	20.735016
1725.471528	-3.023800	3.406600	-10.299000	26.058024	0.000201	20.750314
1726.473733	-3.004700	3.406500	-10.234000	25.982442	0.000202	20.757828
1727.475893	-3.001200	3.406600	-10.223000	25.961401	0.000202	20.766561
1728.474061	-3.016200	3.405400	-10.270000	26.009664	0.000200	20.742977
1729.476185	-2.988800	3.405500	-10.177000	26.011750	0.000201	20.728951
1730.474006	-3.008600	3.405800	-10.245000	26.031894	0.000200	20.740655
1731.474084	-3.013400	3.406500	-10.264000	26.009688	0.000200	20.748217
1732.492561	-3.009700	3.404800	-10.246000	26.027821	0.000201	20.750314
1733.490346	-3.006500	3.403900	-10.233000	26.011178	0.000200	20.753982
1734.496005	-3.010100	3.403300	-10.242000	26.007799	0.000203	20.743474
1735.495217	-3.005900	3.404500	-10.232000	26.084350	0.000197	20.749264
1736.490709	-3.007500	3.401700	-10.229000	26.102456	0.000198	20.758923
1737.476445	-2.990700	3.402800	-10.176000	26.140580	0.000196	20.761668
1738.478574	-3.022400	3.403300	-10.285000	26.085865	0.000198	20.757425
1739.492426	-3.008700	3.400900	-10.232000	26.093714	0.000199	20.764364
1740.499146	-2.990300	3.401600	-10.171000	26.132335	0.000197	20.763815
1741.481948	-2.997000	3.401100	-10.192000	26.121307	0.000198	20.765536
1742.476522	-2.983400	3.402000	-10.149000	26.113185	0.000198	20.773023
1743.476414	-3.002600	3.400900	-10.210000	26.152923	0.000197	20.734241
1744.478869	-2.990400	3.401000	-10.169000	26.144205	0.000195	20.748715
1745.477300	-2.999700	3.398700	-10.194000	26.150240	0.000198	20.758573
1746.500248	-2.965700	3.400100	-10.083000	26.166607	0.000197	20.737560
1747.477063	-2.988400	3.400900	-10.163000	26.159479	0.000196	20.749838
1748.481428	-3.005700	3.399100	-10.216000	26.111695	0.000194	20.769628
1749.493240	-2.987600	3.399500	-10.154000	26.077346	0.000195	20.740330
1750.494628	-2.983100	3.399400	-10.140000	26.063064	0.000191	20.758223
1751.497375	-3.009400	3.398700	-10.227000	26.020169	0.000194	20.763963
1752.496843	-3.005300	3.398100	-10.211000	26.018752	0.000194	20.768704
1753.481121	-3.008400	3.397800	-10.222000	26.085962	0.000193	20.761316
1754.483916	-3.020300	3.395800	-10.255000	26.096345	0.000193	20.747092
1755.481339	-3.012000	3.396900	-10.230000	26.103746	0.000193	20.752158
1756.481654	-3.010200	3.397400	-10.226000	26.142788	0.000193	20.757723
1757.482791	-2.989500	3.397800	-10.157000	26.171797	0.000191	20.759371
1758.497161	-3.018200	3.396300	-10.250000	26.186597	0.000190	20.738207
1759.499963	-3.004400	3.396000	-10.202000	26.253376	0.000191	20.746518
1760.485643	-2.982400	3.396800	-10.130000	26.242151	0.000193	20.763687
1761.501837	-2.999200	3.395900	-10.184000	26.221216	0.000191	20.756399
1762.484664	-3.001900	3.396300	-10.195000	26.219974	0.000191	20.769377
1763.484703	-3.017300	3.393800	-10.239000	26.154039	0.000188	20.761441
1764.486723	-3.014700	3.393800	-10.230000	26.127613	0.000190	20.764286
1765.501345	-2.978400	3.394100	-10.108000	26.131214	0.000189	20.767905
1766.486894	-3.016600	3.393000	-10.234000	26.139733	0.000189	20.759395
1767.486857	-3.022200	3.392200	-10.251000	26.156174	0.000188	20.756474
1768.488375	-2.998700	3.393800	-10.176000	26.159179	0.000188	20.759495
1769.488690	-3.005500	3.392600	-10.195000	26.206292	0.000188	20.767482
1770.489254	-2.987900	3.392700	-10.136000	26.199238	0.000189	20.770350
1771.511911	-2.987300	3.392100	-10.132000	26.174055	0.000189	20.767804
1772.489556	-3.008400	3.391700	-10.202000	26.136777	0.000188	20.767330
1773.491796	-3.000600	3.391800	-10.176000	26.123888	0.000188	20.785200
1774.489335	-2.993200	3.390500	-10.148000	26.123241	0.000185	20.764634
1775.491238	-2.996700	3.389500	-10.156000	26.144402	0.000185	20.765035
1776.489562	-2.965500	3.391500	-10.056000	26.139484	0.000186	20.775740
1777.488702	-3.007200	3.390200	-10.195000	26.129724	0.000184	20.784425
1778.489282	-3.012300	3.389900	-10.210000	26.162333	0.000185	20.759819
1779.487852	-2.995100	3.388700	-10.149000	26.190943	0.000186	20.757273
1780.490237	-3.023600	3.390300	-10.250000	26.180858	0.000185	20.779382
1781.492868	-3.023200	3.390000	-10.248000	26.154684	0.000183	20.767779
1782.490057	-3.010600	3.389100	-10.202000	26.163152	0.000184	20.782453
1783.489054	-3.003800	3.389100	-10.179000	26.221241	0.000184	20.774917
1784.495550	-3.004500	3.389300	-10.182000	26.206663	0.000184	20.773070
1785.508223	-2.999600	3.388600	-10.163000	26.190769	0.000184	20.774643
1786.494701	-2.992900	3.387300	-10.137000	26.188311	0.000183	20.784974
1787.491416	-3.008300	3.386900	-10.188000	26.175023	0.000185	20.779682
1788.490510	-2.996400	3.385800	-10.145000	26.123465	0.000184	20.788093
1789.507917	-3.012000	3.385900	-10.197000	26.138268	0.000181	20.796803
1790.494294	-2.978500	3.386300	-10.086000	26.154137	0.000183	20.773394
1791.494058	-3.002100	3.387400	-10.168000	26.195015	0.000180	20.795031
1792.519676	-3.004600	3.385500	-10.171000	26.176787	0.000179	20.772920
1793.509180	-3.022300	3.384100	-10.227000	26.174825	0.000183	20.774742
1794.513128	-2.990300	3.385100	-10.121000	26.236514	0.000182	20.774618
1795.525004	-2.988200	3.384000	-10.111000	26.197773	0.000181	20.775990
1796.517871	-2.977600	3.384000	-10.076000	26.177086	0.000180	20.783178
1797.513398	-2.978800	3.383700	-10.079000	26.170654	0.000182	20.769602
1798.491928	-2.991400	3.384900	-10.125000	26.202541	0.000178	20.807335
1799.512769	-2.994900	3.383000	-10.131000	26.211705	0.000177	20.802793
1800.522991	-3.015900	3.382600	-10.200000	26.224544	0.000181	20.801470
1801.511673	-2.992000	3.383500	-10.123000	26.199833	0.000179	20.781854
1802.509837	-3.010900	3.382500	-10.183000	26.209767	0.000180	20.796104
1803.510378	-2.993600	3.383000	-10.126000	26.227672	0.000178	20.793234
1804.512478	-2.998800	3.382700	-10.143000	26.219998	0.000179	20.801169
1805.517685	-2.993200	3.382000	-10.121000	26.209195	0.000178	20.777986
1806.497218	-3.011800	3.380900	-10.181000	26.231520	0.000178	20.798524
1807.511314	-3.005900	3.379500	-10.157000	26.242919	0.000174	20.782477
1808.511230	-2.993300	3.380300	-10.117000	26.306243	0.000176	20.794905
1809.513949	-3.003900	3.379300	-10.150000	26.298991	0.000175	20.786196
1810.510398	-3.016800	3.379100	-10.194000	26.281534	0.000174	20.807058
1811.513399	-2.980600	3.380100	-10.074000	26.219550	0.000176	20.788865
1812.512881	-3.007600	3.378400	-10.160000	26.244360	0.000177	20.827547
1813.497596	-2.987100	3.378900	-10.092000	26.256676	0.000176	20.793931
1814.495276	-2.988600	3.377800	-10.094000	26.266858	0.000180	20.809379
1815.495522	-3.006700	3.378000	-10.156000	26.241552	0.000175	20.795803
1816.510810	-3.008800	3.378200	-10.163000	26.221388	0.000174	20.792609
1817.513385	-3.025800	3.376600	-10.214000	26.283694	0.000174	20.792634
1818.514093	-2.994100	3.376900	-10.108000	26.270855	0.000171	20.799172
1819.495670	-2.986200	3.377000	-10.083000	26.276243	0.000175	20.800319
1820.496002	-2.973300	3.377700	-10.041000	26.288935	0.000174	20.814022
1821.497106	-3.008700	3.375500	-10.155000	26.237108	0.000172	20.806509
1822.497208	-2.989700	3.375300	-10.090000	26.169731	0.000172	20.795228
1823.499378	-2.981800	3.376500	-10.066000	26.191264	0.000172	20.796951
1824.496778	-2.992800	3.375000	-10.100000	26.279250	0.000171	20.803814
1825.498182	-2.989300	3.375400	-10.090000	26.288487	0.000170	20.799821
1826.499839	-2.998400	3.375500	-10.120000	26.288835	0.000172	20.811077
1827.515110	-2.994500	3.375400	-10.107000	26.242969	0.000170	20.806235
1828.504593	-2.996700	3.373500	-10.108000	26.240164	0.000172	20.815744
1829.501161	-2.983800	3.373900	-10.066000	26.240412	0.000169	20.806036
1830.501117	-2.994600	3.373200	-10.100000	26.229013	0.000169	20.805487
1831.520046	-2.997800	3.373000	-10.111000	26.181182	0.000169	20.793458
1832.502234	-3.003900	3.373000	-10.131000	26.191116	0.000170	20.818613
1833.523019	-2.995900	3.372100	-10.101000	26.212722	0.000169	20.800496
1834.502131	-2.988100	3.372600	-10.077000	26.200976	0.000169	20.814771
1835.501769	-3.006600	3.370700	-10.133000	26.246770	0.000168	20.829020
1836.501493	-2.982000	3.372400	-10.055000	26.269839	0.000169	20.832763
1837.501640	-3.004400	3.370800	-10.126000	26.247490	0.000168	20.814098
1838.501446	-2.983800	3.371200	-10.058000	26.240711	0.000166	20.816293
1839.503285	-3.003400	3.369900	-10.120000	26.238725	0.000168	20.820936
1840.502108	-3.012000	3.371000	-10.152000	26.239495	0.000166	20.814124
1841.524102	-2.991700	3.369600	-10.080000	26.287571	0.000166	20.814547
1842.519352	-3.000800	3.370400	-10.113000	26.265297	0.000165	20.818241
1843.505117	-3.003500	3.370000	-10.120000	26.301429	0.000165	20.814249
1844.520744	-3.007600	3.369400	-10.133000	26.279775	0.000167	20.826153
1845.505018	-2.991000	3.368800	-10.075000	26.312702	0.000167	20.818941
1846.522580	-2.997500	3.367400	-10.093000	26.325514	0.000164	20.805738
1847.520167	-2.986200	3.367600	-10.056000	26.318414	0.000164	20.820413
1848.502731	-2.989900	3.367000	-10.065000	26.289460	0.000164	20.827351
1849.503128	-3.020300	3.367300	-10.169000	26.267905	0.000165	20.832242
1850.508086	-3.017300	3.367200	-10.158000	26.275008	0.000164	20.833216
1851.501982	-2.983000	3.367400	-10.044000	26.315086	0.000163	20.817543
1852.502035	-2.986500	3.367300	-10.056000	26.298797	0.000163	20.838156
1853.507909	-2.998600	3.366900	-10.095000	26.267062	0.000165	20.838981
1854.520735	-3.005600	3.366400	-10.117000	26.260159	0.000163	20.827302
1855.525306	-2.995400	3.366600	-10.083000	26.237337	0.000160	20.829498
1856.519648	-3.008700	3.365100	-10.124000	26.279329	0.000161	20.822860
1857.531971	-3.013800	3.363900	-10.137000	26.256309	0.000160	20.841926
1858.526018	-2.986600	3.365900	-10.052000	26.210988	0.000161	20.838107
1859.504411	-2.986200	3.363800	-10.044000	26.180988	0.000160	20.846368
1860.520875	-3.000200	3.362700	-10.088000	26.188862	0.000160	20.841952
1861.508606	-2.992000	3.362700	-10.060000	26.272154	0.000158	20.825606
1862.506649	-3.000900	3.363400	-10.093000	26.293162	0.000161	20.836761
1863.526637	-3.000200	3.363000	-10.089000	26.297680	0.000159	20.837508
1864.524538	-2.983500	3.362800	-10.031000	26.338778	0.000158	20.829025
1865.523926	-2.982000	3.362100	-10.025000	26.352907	0.000159	20.830422
1866.507860	-3.014900	3.360300	-10.130000	26.358445	0.000158	20.864436
1867.507227	-2.978300	3.363500	-10.016000	26.381808	0.000159	20.839081
1868.506271	-3.006900	3.361100	-10.105000	26.392164	0.000158	20.840954
1869.506398	-2.991200	3.362300	-10.057000	26.406142	0.000156	20.833192
1870.506911	-3.011900	3.361200	-10.123000	26.428092	0.000158	20.835339
1871.526678	-3.000500	3.361000	-10.083000	26.379723	0.000155	20.851209
1872.524379	-2.974200	3.360800	-9.994800	26.341956	0.000156	20.852607
1873.527499	-2.989600	3.360500	-10.046000	26.363236	0.000154	20.839855
1874.526767	-2.982200	3.360100	-10.019000	26.368824	0.000153	20.842152
1875.526423	-3.005100	3.359900	-10.095000	26.402319	0.000155	20.836461
1876.526557	-2.998800	3.358800	-10.071000	26.395863	0.000156	20.861266
1877.532308	-2.982400	3.358800	-10.015000	26.407087	0.000154	20.859745
1878.533351	-3.007000	3.357200	-10.094000	26.357179	0.000155	20.823811
1879.528962	-2.978800	3.357200	-9.999300	26.399712	0.000153	20.856600
1880.528496	-3.003000	3.357900	-10.083000	26.340293	0.000155	20.846194
1881.531570	-2.997500	3.357500	-10.063000	26.321248	0.000152	20.851236
1882.539300	-2.999700	3.357000	-10.069000	26.368997	0.000154	20.845645
1883.528138	-2.997200	3.357300	-10.062000	26.423946	0.000153	20.861990
1884.537951	-2.989300	3.356500	-10.033000	26.476707	0.000154	20.863812
1885.530594	-2.999500	3.354300	-10.060000	26.500168	0.000155	20.858471
1886.528343	-3.015600	3.355300	-10.118000	26.487233	0.000150	20.857797
1887.533707	-3.001300	3.355600	-10.070000	26.454759	0.000152	20.874468
1888.528725	-3.027200	3.354500	-10.154000	26.432536	0.000150	20.867779
1889.514487	-2.993300	3.353500	-10.037000	26.475539	0.000149	20.880181
1890.513440	-2.988300	3.354600	-10.024000	26.503917	0.000151	20.872670
1891.532595	-3.009300	3.354500	-10.093000	26.527801	0.000149	20.866331
1892.516339	-2.975800	3.354300	-9.981100	26.563452	0.000149	20.859021
1893.515774	-2.986300	3.354800	-10.018000	26.538178	0.000148	20.859219
1894.514307	-3.022900	3.351200	-10.129000	26.556078	0.000149	20.868677
1895.514313	-2.988100	3.352700	-10.018000	26.549971	0.000149	20.875340
1896.516532	-3.012700	3.351700	-10.097000	26.549871	0.000149	20.868602
1897.542094	-2.998500	3.352600	-10.052000	26.542547	0.000148	20.884946
1898.533586	-2.983200	3.353400	-10.003000	26.536861	0.000148	20.882076
1899.514937	-2.999700	3.351900	-10.054000	26.580059	0.000147	20.872869
1900.530160	-2.989600	3.350700	-10.017000	26.544880	0.000148	20.866430
1901.524610	-3.013300	3.350500	-10.095000	26.497933	0.000148	20.875190
1902.513706	-3.008300	3.350100	-10.077000	26.491776	0.000147	20.904086
1903.514851	-3.001900	3.350900	-10.059000	26.541282	0.000146	20.883201
1904.533237	-2.984500	3.350600	-9.998700	26.556352	0.000145	20.886495
1905.515412	-2.984500	3.349600	-9.995800	26.597239	0.000144	20.883026
1906.519575	-2.973200	3.349900	-9.959100	26.599597	0.000147	20.873069
1907.524922	-2.998900	3.349900	-10.045000	26.573208	0.000147	20.877361
1908.515086	-2.971500	3.349700	-9.951900	26.526189	0.000144	20.873246
1909.517004	-3.000300	3.348200	-10.045000	26.512458	0.000143	20.883625
1910.530121	-2.999800	3.347900	-10.042000	26.538254	0.000144	20.880157
1911.518731	-2.984700	3.348900	-9.994600	26.526860	0.000143	20.891936
1912.519797	-3.021600	3.347000	-10.112000	26.526611	0.000141	20.881256
1913.515350	-2.979400	3.347200	-9.970800	26.507842	0.000143	20.904587
1914.520689	-3.008500	3.346100	-10.066000	26.473258	0.000140	20.889267
1915.535757	-3.000900	3.345700	-10.039000	26.505186	0.000144	20.903340
1916.521458	-2.992700	3.347100	-10.015000	26.476013	0.000142	20.905786
1917.525378	-3.008400	3.346600	-10.067000	26.481350	0.000141	20.909253
1918.517539	-2.985200	3.345100	-9.985100	26.464270	0.000139	20.906784
1919.527600	-3.002200	3.346700	-10.046000	26.450887	0.000141	20.888592
1920.521898	-3.014900	3.345900	-10.086000	26.508512	0.000139	20.907632
1921.536409	-3.001500	3.344700	-10.038000	26.546747	0.000139	20.908606
1922.538196	-3.004000	3.343300	-10.043000	26.558935	0.000140	20.908530
1923.535647	-3.004000	3.345400	-10.049000	26.561592	0.000140	20.901245
1924.520523	-3.011600	3.342900	-10.066000	26.559011	0.000140	20.918563
1925.524026	-2.976000	3.344600	-9.953100	26.509555	0.000141	20.915318
1926.538106	-3.015400	3.342000	-10.076000	26.543792	0.000138	20.894258
1927.539936	-3.004500	3.341900	-10.040000	26.606874	0.000139	20.911675
1928.541692	-3.036300	3.341600	-10.144000	26.597987	0.000138	20.886148
1929.536513	-2.999100	3.341600	-10.020000	26.609307	0.000137	20.925025
1930.532612	-3.011400	3.342000	-10.063000	26.572541	0.000137	20.916042
1931.535614	-3.013700	3.341600	-10.069000	26.596100	0.000136	20.912698
1932.521013	-3.017600	3.340200	-10.079000	26.572589	0.000138	20.910876
1933.521191	-3.001900	3.340300	-10.026000	26.563530	0.000137	20.894184
1934.521434	-3.000100	3.340200	-10.020000	26.566980	0.000136	20.909505
1935.521569	-3.021600	3.340100	-10.091000	26.554668	0.000134	20.903292
1936.521139	-2.979200	3.340400	-9.951200	26.527631	0.000136	20.913099
1937.522410	-3.013000	3.339100	-10.060000	26.568123	0.000134	20.921557
1938.540354	-2.999900	3.338200	-10.012000	26.536172	0.000132	20.929268
1939.538821	-3.025800	3.337800	-10.098000	26.476387	0.000134	20.909006
1940.546625	-2.968100	3.339700	-9.912000	26.555735	0.000136	20.889668
1941.544800	-3.015800	3.337300	-10.064000	26.565914	0.000134	20.903691
1942.541205	-3.013300	3.336700	-10.053000	26.539922	0.000134	20.908858
1943.542217	-3.002300	3.336900	-10.017000	26.536223	0.000132	20.901347
1944.547600	-3.024100	3.336700	-10.089000	26.521376	0.000133	20.908708
1945.524622	-3.005100	3.336400	-10.025000	26.569067	0.000130	20.897379
1946.529028	-3.015200	3.335900	-10.057000	26.573139	0.000131	20.894835
1947.526005	-2.982200	3.336000	-9.947200	26.622591	0.000129	20.906138
1948.525812	-2.986700	3.336900	-9.965600	26.605610	0.000131	20.899500
1949.526169	-3.014600	3.335600	-10.055000	26.611694	0.000131	20.878591
1950.543137	-2.991400	3.334900	-9.974800	26.609907	0.000131	20.867786
1951.544202	-3.015600	3.335100	-10.057000	26.586445	0.000129	20.899675
1952.553133	-2.988700	3.334200	-9.964300	26.585304	0.000129	20.893786
1953.549823	-3.010300	3.333100	-10.033000	26.550598	0.000128	20.893512
1954.546149	-2.972100	3.334300	-9.908800	26.560875	0.000129	20.864017
1955.550303	-2.995800	3.333900	-9.986700	26.568050	0.000127	20.888297
1956.529485	-3.005900	3.333500	-10.019000	26.570308	0.000129	20.864016
1957.531685	-3.015900	3.333200	-10.051000	26.578055	0.000127	20.889345
1958.548198	-3.012700	3.332900	-10.040000	26.577956	0.000125	20.875970
1959.549081	-2.999900	3.332100	-9.995300	26.560105	0.000125	20.895483
1960.549260	-3.011200	3.331800	-10.032000	26.562365	0.000126	20.871204
1961.547948	-2.997900	3.331900	-9.987500	26.555662	0.000127	20.881060
1962.557949	-3.010500	3.330500	-10.025000	26.548934	0.000125	20.877616
1963.534358	-2.992000	3.330700	-9.964500	26.561844	0.000126	20.879214
1964.532159	-2.996400	3.331300	-9.981100	26.599677	0.000124	20.866037
1965.533039	-3.020400	3.330400	-10.058000	26.656924	0.000124	20.870007
1966.535953	-3.004200	3.329500	-10.001000	26.679784	0.000124	20.874971
1967.534256	-3.010100	3.329200	-10.020000	26.704955	0.000124	20.873723
1968.536791	-2.989700	3.328400	-9.950100	26.746483	0.000122	20.869007
1969.534966	-2.970900	3.330800	-9.894600	26.761451	0.000124	20.864142
1970.535521	-2.997400	3.328400	-9.976100	26.803472	0.000124	20.855182
1971.553820	-2.951200	3.329500	-9.825200	26.813126	0.000123	20.868208
1972.538278	-3.000600	3.328400	-9.986300	26.832287	0.000124	20.865188
1973.540427	-3.001100	3.327300	-9.985000	26.852665	0.000122	20.876668
1974.538581	-2.990300	3.326600	-9.946100	26.852862	0.000119	20.861220
1975.543145	-2.971200	3.327600	-9.886100	26.768697	0.000121	20.870952
1976.537745	-2.979200	3.328600	-9.915300	26.789075	0.000122	20.877690
1977.537539	-2.971600	3.327200	-9.886200	26.843678	0.000120	20.840133
1978.556803	-2.998400	3.325000	-9.968500	26.808111	0.000121	20.866958
1979.554100	-2.976900	3.325300	-9.898300	26.813449	0.000119	20.881333
1980.553562	-2.992400	3.325900	-9.951500	26.824270	0.000120	20.855705
1981.542282	-3.002400	3.325300	-9.982500	26.797711	0.000118	20.870726
1982.540684	-3.000000	3.323800	-9.970500	26.762665	0.000118	20.853034
1983.538722	-2.983200	3.325400	-9.918800	26.790316	0.000117	20.838637
1984.546668	-2.978900	3.326400	-9.908400	26.812479	0.000118	20.860919
1985.553505	-2.996000	3.325200	-9.961300	26.848840	0.000116	20.838211
1986.558115	-3.005800	3.323400	-9.989000	26.811287	0.000116	20.850238
1987.539389	-3.002300	3.322400	-9.974000	26.790539	0.000119	20.872050
1988.553966	-3.022100	3.322600	-10.041000	26.756682	0.000115	20.852709
1989.559014	-3.001300	3.321600	-9.968300	26.761497	0.000116	20.844275
1990.556922	-3.038900	3.321700	-10.093000	26.774032	0.000115	20.857825
1991.538454	-3.008100	3.321900	-9.992000	26.728236	0.000117	20.839283
1992.538439	-3.008800	3.320400	-9.989900	26.696537	0.000116	20.835864
1993.539422	-3.010900	3.321400	-9.999100	26.696512	0.000116	20.863813
1994.539085	-2.995000	3.321100	-9.945900	26.760925	0.000115	20.853182
1995.556314	-2.995000	3.321500	-9.947000	26.825681	0.000116	20.843374
1996.556412	-2.995200	3.320400	-9.944100	26.824367	0.000113	20.839682
1997.540917	-2.994400	3.320400	-9.941700	26.782742	0.000115	20.837660
1998.564951	-2.991100	3.320700	-9.931100	26.779441	0.000113	20.840979
1999.559236	-3.028300	3.317800	-10.047000	26.803170	0.000114	20.840180
2000.541262	-2.993800	3.318600	-9.934500	26.775023	0.000113	20.837012
2001.542789	-2.999500	3.318600	-9.953200	26.802897	0.000113	20.862191
2002.540854	-3.020100	3.317100	-10.017000	26.873806	0.000112	20.825856
2003.539934	-2.991200	3.317500	-9.922000	26.900015	0.000113	20.842726
2004.542584	-3.019200	3.318100	-10.017000	26.829304	0.000112	20.839905
2005.545105	-3.013000	3.317200	-9.993200	26.744467	0.000109	20.835214
2006.543772	-3.023200	3.315900	-10.023000	26.692043	0.000110	20.839881
2007.542985	-2.990500	3.316200	-9.916000	26.743946	0.000108	20.839905
2008.542851	-2.996200	3.316800	-9.936800	26.761817	0.000109	20.828476
2009.546882	-3.003500	3.316400	-9.959500	26.723592	0.000110	20.834615
2010.545537	-3.004400	3.315500	-9.960200	26.757226	0.000106	20.839506
2011.545781	-2.964400	3.317000	-9.832800	26.815282	0.000110	20.837185
2012.543651	-2.995800	3.315000	-9.930100	26.876460	0.000110	20.827576
2013.545384	-2.987800	3.316000	-9.906400	26.853602	0.000106	20.827352
2014.561409	-3.004800	3.314000	-9.957100	26.857151	0.000109	20.820015
2015.561715	-2.996900	3.315300	-9.934100	26.825406	0.000108	20.837882
2016.563328	-2.994300	3.314400	-9.924100	26.817763	0.000108	20.810283
2017.562287	-2.992200	3.312900	-9.911900	26.813716	0.000108	20.828025
2018.566062	-3.001500	3.312200	-9.941200	26.802820	0.000107	20.821812
2019.569611	-2.987500	3.313000	-9.896500	26.803491	0.000108	20.823908
2020.547667	-3.013100	3.311900	-9.978300	26.836425	0.000105	20.814349
2021.568790	-3.010500	3.312600	-9.971600	26.847446	0.000105	20.828749
2022.550806	-2.989800	3.310800	-9.897900	26.882863	0.000105	20.825480
2023.548533	-2.998900	3.311500	-9.929900	26.921008	0.000105	20.855774
2024.547330	-2.999900	3.310200	-9.929500	26.931455	0.000103	20.822184
2025.555141	-2.992700	3.311500	-9.909700	26.908698	0.000102	20.831069
2026.549542	-2.988000	3.309900	-9.889100	26.883781	0.000103	20.816920
2027.552612	-2.992400	3.309700	-9.903100	26.883781	0.000106	20.790842
2028.549346	-3.007100	3.309700	-9.951700	26.862933	0.000102	20.812553
2029.549271	-2.986800	3.310800	-9.887800	26.842730	0.000100	20.808835
2030.550949	-2.993500	3.310700	-9.909500	26.852484	0.000101	20.836185
2031.550629	-2.991100	3.309100	-9.897000	26.911354	0.000100	20.817619
2032.554172	-2.987700	3.308200	-9.882700	26.933962	0.000102	20.820438
2033.569566	-2.992600	3.308700	-9.901000	26.869460	0.000101	20.809633
2034.571643	-3.005400	3.308600	-9.942900	26.847544	0.000101	20.829322
2035.571445	-2.979700	3.307900	-9.855400	26.808428	0.000102	20.786673
2036.556542	-2.998000	3.307500	-9.914700	26.815203	9.988182E-5	20.825727
2037.569438	-2.993600	3.306500	-9.896700	26.869708	9.908977E-5	20.812252
2038.553182	-3.004900	3.305500	-9.931100	26.914431	0.000102	20.784678
2039.556455	-3.003600	3.305900	-9.928300	26.919592	9.925478E-5	20.814997
2040.554029	-2.990900	3.306200	-9.887100	26.918028	9.925478E-5	20.818166
2041.555389	-2.996500	3.304700	-9.901200	26.912718	0.000101	20.810930
2042.571817	-3.016000	3.304300	-9.965000	26.969698	9.727463E-5	20.819864
2043.572208	-2.990400	3.304600	-9.881300	26.959001	9.925478E-5	20.811952
2044.569178	-3.013200	3.303400	-9.952000	26.985804	9.753865E-5	20.802395
2045.554876	-2.964300	3.305100	-9.796600	27.038016	9.519548E-5	20.806538
2046.554311	-2.986400	3.304100	-9.865500	27.076826	9.602054E-5	20.803843
2047.554961	-2.983200	3.302300	-9.850700	27.009876	9.585553E-5	20.800524
2048.555236	-2.997000	3.304100	-9.900800	26.976995	9.499747E-5	20.811080
2049.557916	-3.006000	3.302200	-9.926000	27.007519	9.509647E-5	20.805741
2050.555022	-2.986200	3.301700	-9.858600	27.044221	9.479945E-5	20.806140
2051.554384	-2.981200	3.302900	-9.845700	27.018686	9.588853E-5	20.807013
2052.563179	-2.974800	3.301300	-9.819200	26.975308	9.377638E-5	20.807013
2053.557204	-3.002100	3.299900	-9.905900	26.977542	9.116919E-5	20.806889
2054.560593	-3.011300	3.300600	-9.938200	26.942650	9.262129E-5	20.821113
2055.556629	-3.010600	3.300500	-9.935200	26.964488	9.308333E-5	20.815573
2056.581002	-3.021700	3.299200	-9.968400	26.988933	9.215926E-5	20.814076
2057.592249	-3.021000	3.300800	-9.970800	26.949796	9.093817E-5	20.809808
2058.575498	-3.007400	3.298600	-9.919700	26.971486	8.839698E-5	20.800799
2059.579193	-3.021700	3.297200	-9.962100	27.034940	9.103718E-5	20.801074
2060.577310	-2.993200	3.298300	-9.872200	27.080896	8.833098E-5	20.815048
2061.574383	-3.003400	3.297500	-9.903300	27.082460	9.103718E-5	20.815673
2062.577405	-2.979000	3.299000	-9.827100	27.049283	8.793495E-5	20.803170
2063.560914	-2.981900	3.297600	-9.832200	27.030969	9.008011E-5	20.822685
2064.564377	-2.994600	3.297000	-9.872300	27.058538	8.819897E-5	20.796356
2065.563873	-2.993500	3.298300	-9.873000	27.103377	8.852899E-5	20.815847
2066.578764	-2.998500	3.297600	-9.887200	27.106503	8.925505E-5	20.810456
2067.587088	-3.010800	3.294700	-9.918200	27.116874	8.836398E-5	20.805239
2068.564187	-3.000400	3.296700	-9.891100	27.094592	8.922204E-5	20.804167
2069.583266	-3.004600	3.295400	-9.900300	27.118585	8.809996E-5	20.805064
2070.588337	-3.020800	3.295700	-9.954900	27.100471	8.813297E-5	20.802019
2071.580824	-3.020500	3.294700	-9.950900	27.051291	8.846299E-5	20.800922
2072.582135	-2.984300	3.294800	-9.831900	26.967165	8.776994E-5	20.799773
2073.582369	-2.991400	3.294500	-9.854000	26.980914	8.763793E-5	20.788943
2074.565418	-2.991000	3.294100	-9.852300	27.005581	8.562478E-5	20.802369
2075.567491	-2.982200	3.294400	-9.823800	27.056624	8.704389E-5	20.792535
2076.568251	-3.009700	3.292600	-9.907800	27.089478	8.532776E-5	20.790015
2077.572247	-3.000900	3.293600	-9.882900	27.129824	8.727490E-5	20.804039
2078.567532	-2.998900	3.293300	-9.875300	27.147565	8.338062E-5	20.800545
2079.585022	-2.996900	3.291600	-9.863300	27.112802	8.413967E-5	20.773169
2080.566297	-2.990700	3.292500	-9.845900	27.107839	8.460171E-5	20.798998
2081.568998	-3.016400	3.290000	-9.923100	27.061784	8.308360E-5	20.785870
2082.586013	-2.989100	3.292000	-9.839300	27.026547	8.456870E-5	20.796427
2083.567166	-3.010200	3.289600	-9.901800	27.039005	8.070742E-5	20.789040
2084.593356	-3.019500	3.290500	-9.934400	27.007588	8.265456E-5	20.796801
2085.590812	-3.005300	3.289000	-9.883500	27.016075	8.110345E-5	20.786369
2086.571912	-2.979300	3.290000	-9.800300	26.969073	8.202752E-5	20.781303
2087.588204	-3.006500	3.289100	-9.888000	26.961975	8.196151E-5	20.797873
2088.593002	-3.013500	3.288800	-9.909300	27.028283	8.107045E-5	20.797698
2089.569487	-2.995800	3.289100	-9.853000	27.073793	8.199452E-5	20.799371
2090.569102	-3.008300	3.288800	-9.892500	27.129424	8.116946E-5	20.778981
2091.570675	-2.998500	3.287000	-9.854800	27.130292	8.008038E-5	20.783173
2092.573372	-3.018200	3.287100	-9.920200	27.163864	7.942033E-5	20.790386
2093.588421	-3.000400	3.287500	-9.862800	27.085033	8.054241E-5	20.783647
2094.587330	-3.022600	3.285600	-9.930200	27.110219	7.965135E-5	20.785270
2095.587730	-2.998700	3.287400	-9.856900	27.136049	7.631810E-5	20.767152
2096.586791	-3.023100	3.285500	-9.931700	27.075429	7.902430E-5	20.788214
2097.588470	-2.991600	3.286200	-9.830100	27.067539	7.691214E-5	20.801141
2098.571207	-2.968800	3.284900	-9.751400	27.103842	7.628510E-5	20.802090
2099.572015	-2.999400	3.284100	-9.848800	27.085777	7.658212E-5	20.783447
2100.590727	-2.988400	3.283500	-9.811900	27.116372	8.024539E-5	20.773440
2101.573761	-3.009500	3.284800	-9.885300	27.122947	7.519602E-5	20.793803
2102.589931	-3.003000	3.284800	-9.863100	27.175301	7.694515E-5	20.784820
2103.590682	-3.016400	3.282600	-9.900600	27.188327	7.829825E-5	20.790808
2104.576742	-3.013700	3.282100	-9.890300	27.196888	7.509701E-5	20.777134
2105.599511	-3.003800	3.281800	-9.857500	27.206612	7.786921E-5	20.776009
2106.574851	-2.979700	3.283900	-9.783900	27.204876	7.489900E-5	20.783272
2107.591312	-3.019400	3.280900	-9.905600	27.187409	7.430495E-5	20.769970
2108.575043	-3.012800	3.280900	-9.884000	27.143418	7.476699E-5	20.780727
2109.574627	-2.993100	3.281700	-9.822300	27.156667	7.384292E-5	20.804010
2110.573021	-2.999100	3.280500	-9.836400	27.187930	7.397493E-5	20.768598
2111.574385	-3.024900	3.281300	-9.924300	27.206340	7.212679E-5	20.758191
2112.574569	-2.997200	3.280100	-9.829900	27.240428	7.519602E-5	20.806703
2113.578039	-3.002000	3.279600	-9.844200	27.244522	7.615309E-5	20.783321
2114.574282	-3.016500	3.278500	-9.888500	27.223036	7.394193E-5	20.763131
2115.574761	-3.009900	3.279200	-9.868800	27.248169	7.479999E-5	20.774661
2116.578346	-3.018400	3.278100	-9.893600	27.272880	7.146675E-5	20.743092
2117.575809	-2.982400	3.278700	-9.778100	27.288137	7.252282E-5	20.781199
2118.594218	-2.988400	3.276900	-9.791500	27.297539	7.103771E-5	20.766475
2119.594255	-2.985300	3.277900	-9.784400	27.332072	7.295185E-5	20.766599
2120.594290	-3.030600	3.276600	-9.929900	27.274889	7.179677E-5	20.783046
2121.576029	-2.997600	3.275600	-9.818400	27.271861	6.965161E-5	20.779526
2122.577315	-3.026900	3.276500	-9.916700	27.286574	7.057568E-5	20.785791
2123.577717	-3.024700	3.275000	-9.905200	27.236631	6.915658E-5	20.785340
2124.593226	-3.025500	3.274700	-9.906100	27.157832	6.829851E-5	20.779578
2125.600223	-3.034600	3.273300	-9.931300	27.208348	6.905757E-5	20.779651
2126.597378	-3.006700	3.276300	-9.850400	27.255487	6.846353E-5	20.762582
2127.596488	-3.013000	3.272800	-9.860000	27.218842	6.879355E-5	20.758912
2128.599172	-3.003700	3.274300	-9.834000	27.223928	6.737445E-5	20.754545
2129.598542	-2.985000	3.273600	-9.769600	27.253601	6.925558E-5	20.773012
2130.579017	-3.000000	3.274300	-9.822000	27.273994	6.661539E-5	20.752748
2131.578687	-3.003700	3.273400	-9.830800	27.250771	6.839752E-5	20.759260
2132.582304	-3.005400	3.273100	-9.836500	27.255338	6.800149E-5	20.753896
2133.595702	-2.992600	3.272400	-9.791900	27.259331	6.661539E-5	20.782095
2134.605730	-3.003900	3.271400	-9.825900	27.241369	6.575733E-5	20.768295
2135.580375	-3.000500	3.271400	-9.814600	27.259852	6.806750E-5	20.757489
2136.579725	-3.001800	3.269300	-9.813300	27.340258	6.717643E-5	20.755393
2137.580792	-3.008000	3.270500	-9.835600	27.370796	6.536130E-5	20.759560
2138.582229	-2.998200	3.269600	-9.801100	27.328448	6.770447E-5	20.770540
2139.581101	-2.990200	3.270100	-9.777000	27.342465	6.645038E-5	20.750975
2140.581270	-2.985900	3.270300	-9.764300	27.365140	6.628537E-5	20.746758
2141.579950	-3.005900	3.267400	-9.820100	27.378486	6.255609E-5	20.755443
2142.580530	-3.014800	3.267100	-9.848300	27.349710	6.433822E-5	20.741667
2143.603442	-3.021700	3.266300	-9.868300	27.307314	6.539430E-5	20.757341
2144.600773	-2.997200	3.268000	-9.793900	27.364347	6.496527E-5	20.770617
2145.598991	-3.009300	3.267100	-9.830700	27.404932	6.291912E-5	20.752649
2146.580936	-3.003300	3.268800	-9.816500	27.417135	6.216006E-5	20.763978
2147.580092	-2.991900	3.265400	-9.768700	27.367869	6.278711E-5	20.749978
2148.581267	-2.991100	3.267400	-9.772300	27.368342	6.196205E-5	20.762782
2149.581854	-2.999300	3.265400	-9.793800	27.338573	6.318314E-5	20.747533
2150.583832	-2.991800	3.265400	-9.768700	27.316990	6.357917E-5	20.759013
2151.582853	-2.998800	3.266600	-9.794400	27.308975	6.103798E-5	20.739571
2152.583239	-3.015800	3.264100	-9.843300	27.320636	6.186304E-5	20.755569
2153.584090	-3.032800	3.262500	-9.893100	27.338498	6.222607E-5	20.774012
2154.584326	-3.015600	3.264400	-9.844100	27.332594	6.222607E-5	20.745312
2155.601012	-3.020400	3.262400	-9.853100	27.382135	6.087297E-5	20.744888
2156.610646	-2.999100	3.263500	-9.786000	27.421379	5.965188E-5	20.762084
2157.584445	-2.996500	3.263200	-9.777200	27.449684	5.961888E-5	20.759739
2158.586230	-2.981400	3.261700	-9.722900	27.504625	6.133500E-5	20.745788
2159.587409	-2.984400	3.262200	-9.735500	27.460375	6.050994E-5	20.741097
2160.608915	-3.014500	3.260500	-9.827200	27.388437	6.004791E-5	20.746961
2161.603698	-2.989000	3.260900	-9.745300	27.387025	6.100498E-5	20.756446
2162.602441	-2.991000	3.260700	-9.751500	27.386081	5.796876E-5	20.715665
2163.603273	-2.978000	3.262500	-9.714300	27.435124	5.846379E-5	20.749833
2164.608591	-3.004800	3.261400	-9.798500	27.425797	5.767174E-5	20.742820
2165.602330	-3.003700	3.258800	-9.787200	27.433214	5.757273E-5	20.762610
2166.604774	-3.005400	3.259400	-9.795100	27.433762	5.744072E-5	20.746092
2167.604386	-3.013000	3.258100	-9.815600	27.406847	5.767174E-5	20.776388
2168.611182	-3.019000	3.258100	-9.834200	27.478287	5.612062E-5	20.752480
2169.610025	-2.973800	3.259400	-9.692100	27.469457	5.711069E-5	20.739328
2170.603040	-3.018600	3.257200	-9.832000	27.441725	5.687968E-5	20.755999
2171.615270	-2.996400	3.258000	-9.761600	27.420542	5.308440E-5	20.757448
2172.605455	-3.001900	3.257800	-9.777600	27.443114	5.588961E-5	20.772570
2173.606098	-3.000600	3.256600	-9.770100	27.459114	5.450350E-5	20.746941
2174.588777	-2.993600	3.256600	-9.748600	27.446787	5.374445E-5	20.739280
2175.590058	-3.003300	3.255700	-9.777200	27.477396	5.529556E-5	20.751584
2176.591161	-2.998300	3.255700	-9.761100	27.446588	5.489953E-5	20.756625
2177.590013	-2.990300	3.254600	-9.731900	27.426893	5.486653E-5	20.750560
2178.590711	-2.991000	3.255200	-9.735600	27.461546	5.664866E-5	20.753181
2179.615533	-2.986600	3.254400	-9.718900	27.513413	5.110425E-5	20.746094
2180.615774	-2.984600	3.254600	-9.712600	27.490917	5.146728E-5	20.753333
2181.594938	-2.979100	3.253300	-9.690400	27.467129	5.341442E-5	20.756901
2182.596778	-2.994000	3.251900	-9.735400	27.464326	5.242435E-5	20.738433
2183.612197	-3.019400	3.251900	-9.818700	27.512000	5.093924E-5	20.743724
2184.611543	-3.016700	3.250900	-9.806200	27.508179	5.067522E-5	20.750786
2185.610385	-3.025200	3.249900	-9.830600	27.495630	5.179731E-5	20.754755
2186.609573	-3.016100	3.249300	-9.799000	27.428110	5.064222E-5	20.752259
2187.616318	-2.973900	3.252300	-9.671400	27.451997	5.018019E-5	20.741203
2188.610919	-2.980300	3.251300	-9.688600	27.521154	5.417348E-5	20.744874
2189.608555	-2.984700	3.250300	-9.700400	27.560591	5.087324E-5	20.728602
2190.620541	-3.002400	3.248200	-9.751600	27.492530	5.239135E-5	20.754481
2191.618995	-3.023000	3.247900	-9.817200	27.526438	4.971815E-5	20.742603
2192.610775	-2.998600	3.247800	-9.738200	27.530653	4.932212E-5	20.751586
2193.617579	-2.988500	3.248100	-9.706200	27.557639	4.872808E-5	20.755505
2194.603746	-3.019700	3.248800	-9.808800	27.623191	4.919011E-5	20.749391
2195.617378	-3.010400	3.246200	-9.772100	27.641024	4.975116E-5	20.750739
2196.617625	-2.990100	3.247700	-9.709900	27.613446	4.866208E-5	20.747645
2197.597009	-3.002100	3.245700	-9.742400	27.617437	4.892610E-5	20.745023
2198.624326	-2.997800	3.247600	-9.735100	27.668106	5.047721E-5	20.759498
2199.596803	-3.011300	3.245400	-9.771800	27.711085	4.935513E-5	20.762445
2200.597578	-3.014000	3.244400	-9.777400	27.721599	4.654992E-5	20.759748
2201.597231	-3.007600	3.243500	-9.754400	27.745730	4.985016E-5	20.767911
2202.597419	-2.998400	3.244000	-9.726000	27.669346	4.813404E-5	20.741306
2203.596551	-3.009200	3.244700	-9.762700	27.619201	4.886009E-5	20.750591
2204.597761	-2.996000	3.243800	-9.717600	27.573838	4.598888E-5	20.772278
2205.613221	-2.986500	3.244200	-9.688200	27.599483	4.777101E-5	20.737388
2206.617695	-2.999400	3.243500	-9.726900	27.633660	4.701195E-5	20.746174
2207.616017	-2.991300	3.244400	-9.704000	27.647227	4.839806E-5	20.750343
2208.616690	-2.994700	3.241500	-9.705600	27.668134	4.800203E-5	20.770433
2209.617758	-2.986800	3.241700	-9.681100	27.613968	4.522982E-5	20.763818
2210.597969	-3.019800	3.239900	-9.782700	27.536635	4.846406E-5	20.757605
2211.614904	-3.004400	3.242300	-9.740400	27.505853	4.820004E-5	20.758878
2212.618261	-3.001200	3.240400	-9.724400	27.505978	4.691295E-5	20.758054
2213.613940	-3.007600	3.241300	-9.747400	27.541298	4.331568E-5	20.769409
2214.615026	-3.016100	3.239500	-9.770200	27.548294	4.569186E-5	20.775974
2215.617277	-2.985600	3.241200	-9.676600	27.550650	4.447077E-5	20.751317
2216.621110	-3.006200	3.238000	-9.732900	27.598022	4.684694E-5	20.757256
2217.599821	-2.977800	3.238000	-9.641300	27.676196	4.555985E-5	20.765742
2218.607297	-2.993700	3.237200	-9.690500	27.721255	4.331568E-5	20.753238
2219.619574	-3.002200	3.237300	-9.717900	27.690082	4.334869E-5	20.760275
2220.618822	-3.003100	3.235400	-9.715500	27.622949	4.291965E-5	20.773329
2221.603086	-2.992500	3.236700	-9.685000	27.566176	4.189658E-5	20.775000
2222.602048	-3.027100	3.235700	-9.794000	27.534330	4.278764E-5	20.776149
2223.620783	-2.977100	3.234200	-9.627300	27.560498	4.209459E-5	20.777347
2224.618474	-2.993300	3.234100	-9.679500	27.564341	4.387672E-5	20.786430
2225.604273	-2.979100	3.235600	-9.639000	27.647477	4.423975E-5	20.786630
2226.602276	-2.994000	3.233300	-9.680000	27.721307	4.338169E-5	20.763722
2227.603501	-3.026600	3.233100	-9.784700	27.696954	4.189658E-5	20.758182
2228.602181	-3.005600	3.233400	-9.717600	27.694524	4.031246E-5	20.756210
2229.604796	-2.985900	3.233500	-9.653800	27.637755	4.126953E-5	20.775426
2230.605731	-2.994400	3.232000	-9.677000	27.618510	3.909137E-5	20.747051
2231.608921	-3.009500	3.231300	-9.722800	27.660447	4.249062E-5	20.781664
2232.609870	-2.985900	3.230700	-9.645800	27.684728	3.912438E-5	20.743508
2233.624924	-3.018200	3.231400	-9.752600	27.686686	4.001544E-5	20.782937
2234.606538	-2.981500	3.231700	-9.633800	27.690407	4.021346E-5	20.794268
2235.606118	-2.985000	3.229900	-9.639600	27.733012	4.070849E-5	20.773130
2236.607390	-2.980100	3.231800	-9.630300	27.767306	4.133554E-5	20.779667
2237.605834	-3.018400	3.228800	-9.744400	27.768746	4.070849E-5	20.776848
2238.605945	-2.994800	3.228700	-9.668200	27.771400	3.994944E-5	20.769088
2239.608994	-2.978700	3.231000	-9.623900	27.703476	3.991643E-5	20.797936
2240.610358	-3.010100	3.229900	-9.721000	27.711015	3.886036E-5	20.779444
2241.627176	-3.001100	3.228400	-9.687500	27.662902	3.866234E-5	20.775600
2242.610491	-2.984200	3.227700	-9.631700	27.653181	3.938840E-5	20.798534
2243.608074	-3.012700	3.226700	-9.719300	27.693060	3.846433E-5	20.764221
2244.609872	-2.975400	3.226400	-9.599300	27.746352	4.014745E-5	20.774227
2245.610790	-3.015500	3.225100	-9.724900	27.721926	3.760626E-5	20.783311
2246.609348	-2.992800	3.225100	-9.651900	27.716520	3.526309E-5	20.759853
2247.610761	-3.010300	3.224300	-9.705100	27.680931	3.810130E-5	20.790897
2248.625019	-3.003400	3.223400	-9.680400	27.718329	3.747425E-5	20.786804
2249.630840	-3.004100	3.222700	-9.680500	27.761306	3.767227E-5	20.787853
2250.632935	-3.002200	3.223400	-9.676300	27.804156	3.701222E-5	20.792095
2251.626167	-3.021300	3.221400	-9.732000	27.833515	3.585714E-5	20.780865
2252.631631	-2.995400	3.222500	-9.651800	27.799220	3.688021E-5	20.767688
2253.620834	-3.009900	3.221300	-9.694700	27.779159	3.763927E-5	20.785905
2254.643173	-2.970600	3.222200	-9.571300	27.815238	3.740825E-5	20.787601
2255.632700	-2.984600	3.222200	-9.616100	27.792153	3.684721E-5	20.780964
2256.629581	-3.013300	3.220300	-9.703100	27.747095	3.806830E-5	20.807691
2257.614651	-2.996400	3.222200	-9.653500	27.742060	3.562612E-5	20.771330
2258.637704	-3.006900	3.219900	-9.681500	27.776529	3.754026E-5	20.770457
2259.614603	-3.000800	3.218100	-9.656500	27.764253	3.625317E-5	20.787974
2260.615042	-2.990800	3.219200	-9.627700	27.824561	3.552711E-5	20.809312
2261.615517	-3.001900	3.218700	-9.661200	27.799887	3.552711E-5	20.775471
2262.615968	-2.993800	3.218100	-9.633500	27.825852	3.572513E-5	20.766988
2263.635249	-3.024200	3.219400	-9.735400	27.860045	3.384399E-5	20.802824
2264.633194	-2.973000	3.217300	-9.563300	27.819304	3.486706E-5	20.797858
2265.635834	-2.992500	3.217300	-9.626700	27.772661	3.496607E-5	20.793590
2266.637950	-2.995100	3.215900	-9.631000	27.767552	3.513108E-5	20.797459
2267.639427	-2.999500	3.216200	-9.645800	27.707043	3.186384E-5	20.800103
2268.634511	-3.025800	3.215200	-9.727600	27.687130	3.229287E-5	20.778168
2269.635663	-2.971400	3.215700	-9.554600	27.726635	3.321694E-5	20.809387
2270.615924	-2.992300	3.214500	-9.617200	27.776231	3.249089E-5	20.785329
2271.633985	-2.994600	3.215400	-9.627500	27.744812	3.199585E-5	20.809661
2272.637848	-2.969100	3.213400	-9.540000	27.705706	3.202886E-5	20.783110
2273.617845	-2.996300	3.212700	-9.625300	27.758526	3.443803E-5	20.815875
2274.633039	-3.002200	3.213000	-9.645400	27.775438	3.044474E-5	20.780264
2275.616913	-3.006800	3.211600	-9.655600	27.815659	3.262290E-5	20.799405
2276.622259	-2.990200	3.212500	-9.605400	27.834654	3.123680E-5	20.788650
2277.633073	-3.013100	3.212400	-9.677500	27.855756	3.041174E-5	20.806095
2278.616138	-3.036400	3.209400	-9.744100	27.880228	3.093978E-5	20.792792
2279.619323	-2.991800	3.211200	-9.606600	27.842216	3.037873E-5	20.799579
2280.635083	-3.002200	3.211100	-9.638700	27.867732	2.905864E-5	20.803923
2281.640585	-2.984900	3.209300	-9.578700	27.855706	2.866261E-5	20.815052
2282.636388	-3.008700	3.209500	-9.655400	27.843159	2.915764E-5	20.802425
2283.637658	-3.018400	3.208200	-9.682600	27.827884	3.031273E-5	20.792268
2284.621104	-2.997000	3.209200	-9.617600	27.838844	3.080777E-5	20.826532
2285.615119	-2.993600	3.207700	-9.602400	27.823049	2.985070E-5	20.829126
2286.633370	-3.011800	3.206600	-9.656800	27.792251	2.767254E-5	20.794340
2287.636138	-3.024800	3.206200	-9.696700	27.774595	2.737551E-5	20.803597
2288.618733	-3.027800	3.205300	-9.703600	27.847746	2.638544E-5	20.827904
2289.618914	-3.021900	3.203900	-9.680800	27.814518	2.740852E-5	20.809636
2290.624849	-2.994100	3.205200	-9.595800	27.880773	2.869561E-5	20.805668
2291.638162	-3.005800	3.203500	-9.627400	27.860465	2.783755E-5	20.820791
2292.637656	-3.010100	3.203700	-9.643000	27.861061	2.496634E-5	20.816174
2293.637052	-3.007200	3.202000	-9.628300	27.863415	2.519735E-5	20.836087
2294.636502	-2.996300	3.203600	-9.598500	27.923295	2.826658E-5	20.824284
2295.638246	-2.971600	3.201400	-9.511900	27.933906	2.622043E-5	20.829748
2296.634570	-3.003700	3.200600	-9.613000	27.956196	2.493333E-5	20.838433
2297.638567	-3.012700	3.200200	-9.641200	27.912485	2.612142E-5	20.839955
2298.620675	-3.002400	3.202200	-9.614000	27.812681	2.381125E-5	20.812529
2299.621319	-2.988300	3.199900	-9.561100	27.822774	2.486733E-5	20.821264
2300.622672	-2.985300	3.201900	-9.557400	27.838073	2.523036E-5	20.814375
2301.622902	-2.991900	3.199000	-9.569200	27.867282	2.417428E-5	20.804892
2302.640971	-2.998300	3.199400	-9.592300	27.904102	2.575839E-5	20.838156
2303.638361	-3.007400	3.198400	-9.617700	27.955277	2.579140E-5	20.817119
2304.648401	-2.990800	3.197700	-9.563300	27.978334	2.546137E-5	20.807611
2305.623003	-3.021900	3.196800	-9.660000	27.976648	2.638544E-5	20.830095
2306.648046	-3.003300	3.198700	-9.606200	27.960260	2.628643E-5	20.822609
2307.643262	-3.010000	3.196100	-9.619200	27.951309	2.539537E-5	20.838729
2308.624723	-3.010300	3.195600	-9.619100	27.850170	2.414128E-5	20.813275
2309.627839	-2.996000	3.196900	-9.576600	27.791899	2.480132E-5	20.831442
2310.625289	-2.985300	3.195200	-9.537900	27.878487	2.592341E-5	20.831342
2311.629172	-3.001200	3.192600	-9.580200	27.935885	2.387726E-5	20.833162
2312.626087	-2.973900	3.195900	-9.502400	27.965142	2.420728E-5	20.830368
2313.625688	-3.011900	3.192000	-9.613700	27.942902	2.410827E-5	20.840224
2314.629228	-3.005700	3.193100	-9.596500	27.943967	2.631944E-5	20.818538
2315.643462	-3.007300	3.191800	-9.598000	27.946968	2.473532E-5	20.835308
2316.642914	-2.991500	3.193200	-9.551300	27.976644	2.351423E-5	20.849057
2317.632059	-3.009000	3.190700	-9.600100	28.078638	2.361324E-5	20.820384
2318.629249	-3.003600	3.190600	-9.582600	28.063515	2.457031E-5	20.853523
2319.629910	-3.006900	3.189600	-9.589600	28.002280	2.288718E-5	20.831714
2320.633001	-3.012300	3.189900	-9.608200	28.004188	2.331622E-5	20.836953
2321.628100	-3.017500	3.188600	-9.620700	28.031534	2.259016E-5	20.847409
2322.632626	-2.995500	3.187600	-9.548200	28.084935	2.334922E-5	20.840472
2323.650610	-3.012100	3.187300	-9.599000	28.126060	2.216113E-5	20.830664
2324.657525	-2.988400	3.186600	-9.522200	28.108013	2.453730E-5	20.830040
2325.649033	-2.987800	3.186500	-9.519800	28.018690	2.338222E-5	20.846809
2326.630045	-2.986300	3.185400	-9.512400	27.976147	2.222714E-5	20.834332
2327.632119	-2.965200	3.186500	-9.447800	28.009221	2.239215E-5	20.833958
2328.629817	-3.007600	3.184000	-9.575500	28.059100	2.113806E-5	20.838648
2329.643134	-3.013900	3.184000	-9.595700	28.096832	2.229314E-5	20.831586
2330.629548	-2.995700	3.184000	-9.537000	28.082081	2.067602E-5	20.837126
2331.628762	-2.978900	3.183000	-9.481300	28.051835	2.064302E-5	20.859309
2332.631946	-2.988300	3.182400	-9.508800	28.004458	1.961994E-5	20.840544
2333.631686	-2.994700	3.182300	-9.528500	27.993672	2.179810E-5	20.842963
2334.632974	-3.001200	3.180600	-9.544500	27.982071	1.991697E-5	20.848829
2335.630539	-2.980600	3.180200	-9.477300	28.044522	2.166609E-5	20.842939
2336.654902	-3.002900	3.180700	-9.550300	28.017820	2.087404E-5	20.844511
2337.651744	-2.983700	3.179700	-9.486400	28.078584	2.094004E-5	20.854468
2338.648404	-2.991800	3.179700	-9.512400	28.074766	2.077503E-5	20.835452
2339.629103	-2.980700	3.179500	-9.475300	28.102407	1.938893E-5	20.840518
2340.630874	-3.014000	3.177200	-9.574500	28.087386	1.905890E-5	20.855741
2341.629366	-3.001300	3.177400	-9.534000	28.099060	1.879488E-5	20.835726
2342.646715	-2.992600	3.177200	-9.507200	28.094201	1.994997E-5	20.820404
2343.632190	-2.984000	3.176900	-9.478900	28.132278	1.945493E-5	20.853992
2344.635159	-3.011400	3.174800	-9.559500	28.107315	1.730977E-5	20.868216
2345.633392	-2.985500	3.174000	-9.475500	28.123304	2.107205E-5	20.855390
2346.671466	-2.996000	3.175100	-9.512000	28.139144	2.051101E-5	20.851421
2347.636498	-3.001000	3.172500	-9.519900	28.056593	1.879488E-5	20.871210
2348.634958	-3.001900	3.172600	-9.523000	28.067029	2.051101E-5	20.873654
2349.638780	-3.013600	3.173300	-9.562200	28.099357	1.754079E-5	20.862102
2350.636822	-2.998300	3.171600	-9.508500	28.148588	1.704575E-5	20.858083
2351.636382	-3.018400	3.169700	-9.566200	28.223721	1.955394E-5	20.852644
2352.636180	-3.033400	3.168100	-9.608500	28.263727	2.127006E-5	20.858782
2353.635901	-2.994100	3.169600	-9.488200	28.247541	1.922391E-5	20.872357
2354.641305	-3.003600	3.169600	-9.518500	28.197296	1.721077E-5	20.871084
2355.637363	-2.989900	3.169200	-9.474700	28.206593	1.688074E-5	20.855788
2356.655048	-2.989300	3.168800	-9.471700	28.238792	1.909190E-5	20.850747
2357.656959	-2.992700	3.166200	-9.475100	28.225109	1.608868E-5	20.844084
2358.637815	-3.018100	3.166300	-9.554200	28.260530	1.793682E-5	20.867417
2359.636809	-3.007700	3.165400	-9.519600	28.215343	1.503261E-5	20.846106
2360.638201	-3.012200	3.165100	-9.533100	28.175337	1.622069E-5	20.879795
2361.662571	-2.982300	3.166000	-9.440900	28.132129	1.367951E-5	20.874230
2362.637408	-3.004700	3.163400	-9.504100	28.137310	1.532963E-5	20.870437
2363.639773	-3.030200	3.161600	-9.579100	28.120578	1.513161E-5	20.874455
2364.636545	-2.983400	3.161800	-9.431400	28.148962	1.579166E-5	20.879321
2365.639047	-3.020200	3.161000	-9.545100	28.186418	1.466958E-5	20.884312
2366.637455	-2.989600	3.161800	-9.451700	28.229573	1.410854E-5	20.865646
2367.656590	-3.007100	3.159400	-9.499100	28.197151	1.414154E-5	20.881368
2368.659163	-2.973800	3.161100	-9.398600	28.220948	1.612169E-5	20.858386
2369.658463	-3.007700	3.156900	-9.493400	28.294413	1.318447E-5	20.878298
2370.641437	-3.007300	3.157100	-9.493600	28.336351	1.414154E-5	20.880220
2371.660038	-3.012500	3.157600	-9.510600	28.355360	1.595667E-5	20.887032
2372.639524	-3.019400	3.155100	-9.525500	28.359400	1.466958E-5	20.879247
2373.667126	-2.986900	3.156000	-9.425900	28.358310	1.311847E-5	20.878149
2374.656612	-2.994700	3.153300	-9.441800	28.305667	1.351449E-5	20.902903
2375.659847	-3.011100	3.152700	-9.492600	28.333203	1.127033E-5	20.883214
2376.642808	-3.015100	3.152000	-9.503000	28.294265	1.219440E-5	20.888105
2377.660621	-2.977700	3.154700	-9.392500	28.303163	1.305246E-5	20.878099
2378.641019	-3.022100	3.150800	-9.520300	28.316968	1.546164E-5	20.869239
2379.643273	-2.996300	3.151100	-9.439100	28.289258	1.361350E-5	20.904399
2380.662771	-2.999800	3.151900	-9.453800	28.335284	1.275544E-5	20.888628
2381.645265	-3.001000	3.150300	-9.452800	28.316398	1.143534E-5	20.898535
2382.642096	-3.005000	3.148400	-9.459100	28.297660	1.292045E-5	20.879670
2383.643147	-2.991800	3.148200	-9.418100	28.289877	1.008224E-5	20.873730
2384.660423	-3.000600	3.147000	-9.442100	28.325691	1.222740E-5	20.883711
2385.658322	-3.000500	3.147400	-9.442400	28.372459	1.219440E-5	20.886231
2386.644331	-3.015300	3.144700	-9.481000	28.352433	1.110532E-5	20.910161
2387.646565	-3.007200	3.144800	-9.456500	28.322593	1.331648E-5	20.893867
2388.659029	-3.037600	3.143000	-9.546300	28.350450	1.028026E-5	20.905794
2389.662924	-3.007600	3.144200	-9.455300	28.387675	8.663138E-6	20.902026
2390.660946	-3.019400	3.143400	-9.490600	28.388022	1.153435E-5	20.876773
2391.643226	-3.000100	3.142700	-9.427700	28.444724	1.249142E-5	20.904471
2392.673367	-2.963500	3.142900	-9.313100	28.464104	1.136934E-5	20.890796
2393.662365	-3.006000	3.140200	-9.438800	28.512774	1.001624E-5	20.899506
2394.670862	-2.982800	3.140800	-9.367000	28.537677	8.300111E-6	20.928849
2395.663069	-2.988000	3.137200	-9.373800	28.501300	1.034626E-5	20.915450
2396.663122	-3.027100	3.137700	-9.496600	28.515178	8.465123E-6	20.886754
2397.669896	-2.975000	3.137100	-9.332000	28.484325	6.881007E-6	20.880341
2398.645304	-3.005700	3.136200	-9.426100	28.455330	9.092169E-6	20.896186
2399.643134	-2.996700	3.135300	-9.394800	28.445690	7.145026E-6	20.901650
2400.645368	-2.992800	3.135300	-9.382200	28.476691	6.649990E-6	20.908686
2401.645220	-3.001100	3.134300	-9.404800	28.446060	7.838077E-6	20.893963
2402.664913	-2.979500	3.133200	-9.334700	28.461722	7.574058E-6	20.891243
2403.659348	-3.008100	3.131500	-9.418700	28.474583	8.036092E-6	20.899452
2404.670761	-3.008300	3.131000	-9.417500	28.544118	8.399118E-6	20.895036
2405.674297	-3.003700	3.130000	-9.400300	28.576975	8.267109E-6	20.886876
2406.667811	-2.993100	3.129300	-9.365400	28.587159	6.550982E-6	20.890020
2407.659878	-2.991700	3.129900	-9.362600	28.582253	6.980014E-6	20.889820
2408.659816	-3.000600	3.127900	-9.384700	28.550907	7.541055E-6	20.871529
2409.662821	-3.000500	3.127900	-9.384500	28.524391	7.805075E-6	20.872800
2410.658928	-3.008900	3.126000	-9.404900	28.479787	5.626914E-6	20.878616
2411.667495	-2.994400	3.125500	-9.358400	28.498544	6.583985E-6	20.861944
2412.667377	-2.999300	3.126200	-9.375000	28.430642	6.187956E-6	20.877016
2413.675941	-3.022600	3.123400	-9.439100	28.418251	8.465123E-6	20.880659
2414.648367	-3.008700	3.122700	-9.394300	28.489846	5.296890E-6	20.882107
2415.648681	-3.030100	3.121000	-9.456000	28.502508	5.329892E-6	20.885849
2416.652040	-2.979200	3.121200	-9.296700	28.493612	6.748997E-6	20.871676
2417.652210	-2.990700	3.120300	-9.330900	28.511652	6.352968E-6	20.880833
2418.652054	-3.004500	3.118500	-9.368200	28.545129	8.003089E-6	20.869029
2419.672361	-2.994700	3.118900	-9.339900	28.554323	5.659917E-6	20.865486
2420.652567	-2.984000	3.117500	-9.301500	28.558410	6.022943E-6	20.884774
2421.653025	-2.994800	3.116800	-9.333000	28.543220	5.560909E-6	20.883701
2422.659307	-2.996200	3.115300	-9.333200	28.547954	6.980014E-6	20.863340
2423.660374	-2.983800	3.114300	-9.290900	28.534670	3.877785E-6	20.871773
2424.655857	-2.990000	3.115200	-9.313500	28.528402	4.735849E-6	20.874468
2425.657493	-3.014900	3.111800	-9.381000	28.497525	2.953717E-6	20.859021
2426.657109	-2.986200	3.111100	-9.289900	28.462979	4.273815E-6	20.868803
2427.661468	-3.002600	3.111700	-9.342700	28.446697	3.481756E-6	20.859993
2428.657586	-3.006800	3.109700	-9.350000	28.461938	5.065873E-6	20.872496
2429.655513	-3.007800	3.108400	-9.348400	28.439287	4.405824E-6	20.856800
2430.659125	-2.991700	3.108400	-9.298800	28.444739	2.491683E-6	20.841427
2431.655278	-3.011300	3.108400	-9.358100	28.451182	3.250739E-6	20.857872
2432.656363	-2.979500	3.106200	-9.254400	28.506047	1.996647E-6	20.862388
2433.661325	-2.996800	3.106100	-9.307500	28.595105	2.392676E-6	20.859144
2434.655068	-3.024700	3.103100	-9.384700	28.622385	6.848004E-6	20.840627
2435.682393	-3.010800	3.104000	-9.345100	28.633189	3.613766E-6	20.857198
2436.655777	-3.006800	3.102400	-9.327600	28.641713	5.659917E-6	20.839231
2437.656223	-3.019100	3.099900	-9.358100	28.626201	2.722700E-6	20.842099
2438.656663	-3.007100	3.100600	-9.322700	28.644934	2.161659E-6	20.849112
2439.657723	-2.985400	3.099900	-9.253800	28.671890	3.085727E-6	20.850185
2440.665999	-3.004100	3.098400	-9.306700	28.608460	2.524686E-6	20.844146
2441.661057	-3.028200	3.096600	-9.376100	28.616587	4.471829E-6	20.859916
2442.657583	-3.018700	3.096300	-9.345800	28.601596	2.986720E-6	20.832966
2443.659221	-3.000800	3.094200	-9.284500	28.597557	7.425547E-7	20.836959
2444.677856	-3.032700	3.093700	-9.380000	28.550675	1.336598E-6	20.829572
2445.685773	-2.996000	3.092000	-9.263000	28.571217	2.359674E-6	20.827974
2446.679154	-3.034700	3.092400	-9.383100	28.653927	1.303596E-6	20.837782
2447.675289	-2.982900	3.092300	-9.222300	28.697533	2.953717E-6	20.846141
2448.677893	-3.009600	3.088800	-9.295100	28.701175	1.402603E-6	20.827999
2449.660864	-2.989200	3.088700	-9.232100	28.716784	1.138584E-6	20.852255
2450.661242	-2.973400	3.088400	-9.181700	28.717601	1.171586E-6	20.851656
2451.664726	-3.012000	3.086600	-9.296200	28.703579	1.567615E-6	20.842273
2452.663627	-2.999800	3.085700	-9.254600	28.631974	7.095522E-7	20.855026
2453.669183	-3.005400	3.084300	-9.268200	28.566063	3.613766E-6	20.829896
2454.663218	-2.991100	3.083100	-9.221300	28.569086	1.138584E-6	20.823932
2455.665604	-2.988900	3.082900	-9.213500	28.584895	-2.145158E-7	20.839853
2456.670383	-2.992300	3.082300	-9.222800	28.618322	3.811781E-6	20.835586
2457.666475	-2.968600	3.081800	-9.145600	28.604371	2.656696E-6	20.823907
2458.665361	-2.996400	3.080300	-9.228900	28.549460	1.501611E-6	20.840202
2459.666103	-3.006000	3.077700	-9.250800	28.606601	2.656696E-6	20.819515
2460.669033	-3.005000	3.076700	-9.244600	28.674343	2.458681E-6	20.845543
2461.673955	-3.005400	3.075800	-9.243500	28.757044	1.138584E-6	20.836859
2462.684992	-2.963500	3.076200	-9.115300	28.680561	1.402603E-6	20.856547
2463.668088	-2.997800	3.074400	-9.216000	28.624615	2.095654E-6	20.816321
2464.666901	-3.023000	3.071400	-9.283500	28.580783	2.805207E-7	20.852306
2465.667737	-2.989100	3.071700	-9.180700	28.528274	7.755571E-7	20.829772
2466.684801	-2.999100	3.070700	-9.208400	28.521336	9.075668E-7	20.837483
2467.692118	-3.040500	3.067500	-9.326000	28.523864	-9.405693E-7	20.859468
2468.687670	-2.983600	3.069200	-9.156800	28.493012	-1.930642E-6	20.816072
2469.682825	-3.021900	3.067000	-9.267900	28.545843	1.435606E-6	20.831817
2470.695606	-2.975400	3.065000	-9.118200	28.560910	2.491683E-6	20.826129
2471.688199	-2.993700	3.065300	-9.175500	28.606378	-8.085595E-7	20.833989
2472.667099	-3.000800	3.062100	-9.187400	28.665572	-8.085595E-7	20.831967
2473.699945	-2.975200	3.062900	-9.111100	28.717305	9.405693E-7	20.843297
2474.682689	-2.993600	3.060700	-9.161700	28.793983	-1.039577E-6	20.829024
2475.685134	-2.987600	3.059800	-9.140900	28.740644	-1.006574E-6	20.824132
2476.685845	-3.012700	3.058700	-9.213600	28.775104	-2.475182E-7	20.826602
2477.686743	-3.028300	3.057200	-9.257100	28.790588	-2.557688E-6	20.830819
2478.694766	-3.024700	3.056000	-9.242600	28.825841	-5.775425E-7	20.828872
2479.691654	-2.976400	3.056500	-9.096600	28.827575	-2.029649E-6	20.821610
2480.695497	-2.977500	3.055200	-9.095300	28.746613	-3.118730E-6	20.837257
2481.685679	-3.002200	3.052700	-9.163800	28.790562	-1.897640E-6	20.827000
2482.696121	-2.991200	3.051300	-9.126500	28.807805	-6.765498E-7	20.839627
2483.689553	-2.989500	3.052200	-9.124000	28.810232	-7.755571E-7	20.823581
2484.689515	-3.016400	3.049500	-9.197600	28.845682	-3.943790E-6	20.827049
2485.692205	-3.002800	3.047300	-9.149500	28.872784	1.815134E-7	20.816418
2486.689179	-3.012900	3.046600	-9.178500	28.929658	1.996647E-6	20.834835
2487.687477	-2.973800	3.045600	-9.056400	28.939616	3.795279E-7	20.820686
2488.675855	-2.996200	3.044600	-9.120900	28.977613	-2.788705E-6	20.827199
2489.686724	-3.025800	3.043100	-9.206300	28.978727	-5.115377E-7	20.838752
2490.681003	-3.011500	3.040700	-9.156700	28.919006	-5.115377E-7	20.823155
2491.672520	-2.982800	3.041900	-9.072800	28.846746	-1.468608E-6	20.829543
2492.691873	-3.012000	3.039400	-9.154200	28.762615	-5.098876E-6	20.814496
2493.673956	-3.003300	3.037600	-9.122300	28.694954	-3.481756E-6	20.829793
2494.699094	-3.004400	3.036500	-9.122200	28.694533	-1.369601E-6	20.809455
2495.702107	-2.991600	3.036000	-9.081300	28.773293	-1.864637E-6	20.806759
2496.694294	-2.988300	3.034600	-9.067400	28.832550	-1.798632E-6	20.828519
2497.697302	-3.007800	3.033200	-9.122400	28.897181	-8.085595E-7	20.804962
2498.695428	-3.003600	3.031700	-9.105400	28.919426	-2.227664E-6	20.817415
2499.699008	-3.003600	3.031000	-9.103100	28.958415	-3.085727E-6	20.818288
2500.694055	-3.017900	3.028900	-9.139900	28.967976	-2.986720E-6	20.797575
2501.692471	-3.003700	3.026700	-9.090200	28.937459	-2.128657E-6	20.789115
2502.696442	-3.010500	3.025500	-9.107800	28.847265	-4.966866E-6	20.807306
2503.695876	-2.993100	3.024400	-9.051600	28.798016	-3.712773E-6	20.811749
2504.691711	-2.984600	3.023700	-9.023300	28.762365	-1.501611E-6	20.808554
2505.696826	-3.006700	3.022700	-9.087000	28.698468	-5.032871E-6	20.824325
2506.697338	-3.041600	3.019900	-9.184500	28.718711	-7.425547E-7	20.804411
2507.693946	-2.977400	3.020600	-8.992600	28.795588	-2.920715E-6	20.818312
2508.706898	-3.002200	3.017900	-9.059400	28.833712	-2.194662E-6	20.805982
2509.702483	-2.974800	3.016600	-8.972800	28.866215	-3.316744E-6	20.821655
2510.704445	-3.033400	3.015600	-9.146400	28.863662	-3.184735E-6	20.795375
2511.706841	-3.013900	3.013100	-9.080300	28.894230	-2.260666E-6	20.790609
2512.695757	-3.007500	3.012300	-9.058800	28.878475	-3.514759E-6	20.801289
2513.700644	-2.980800	3.012800	-8.979500	28.900546	-3.448754E-6	20.808352
2514.682237	-2.986300	3.010000	-8.987800	28.873470	-4.603839E-6	20.823748
2515.706201	-2.988800	3.009700	-8.993900	28.890415	-4.933863E-6	20.818060
2516.701005	-3.009500	3.008800	-9.054500	28.833315	-1.567615E-6	20.810323
2517.697907	-2.994700	3.005600	-9.000000	28.704883	-4.603839E-6	20.788112
2518.701113	-3.002000	3.004700	-9.018400	28.645072	-3.910788E-6	20.797096
2519.685145	-2.958100	3.004200	-8.886100	28.664721	-3.811781E-6	20.813093
2520.684707	-2.986100	3.003100	-8.965900	28.667074	-1.369601E-6	20.821152
2521.687764	-3.015600	2.999700	-9.045200	28.740312	-5.791927E-6	20.800565
2522.689338	-3.019700	2.998800	-9.054400	28.709639	-3.184735E-6	20.791480
2523.685693	-2.996500	2.998700	-8.984600	28.739346	-3.415752E-6	20.804333
2524.685870	-2.978100	2.997800	-8.926900	28.773881	-5.445401E-7	20.803559
2525.688938	-2.981500	2.994800	-8.927800	28.791100	-1.534613E-6	20.796722
2526.685817	-3.001300	2.993200	-8.982300	28.775715	-3.547761E-6	20.808250
2527.701674	-3.005400	2.993100	-8.995000	28.867747	-3.052725E-6	20.811819
2528.708933	-3.009700	2.990200	-8.999000	28.871018	-1.006574E-6	20.819855
2529.702291	-2.999800	2.988800	-8.965400	28.959600	-4.933863E-6	20.794826
2530.688518	-2.976100	2.988100	-8.892100	29.015058	-2.029649E-6	20.819880
2531.687474	-3.004900	2.987900	-8.977700	29.038241	-3.349747E-6	20.792504
2532.711830	-3.017100	2.984800	-9.004200	29.033511	-2.722700E-6	20.796748
2533.709124	-3.001600	2.983400	-8.954100	28.961680	-5.461902E-6	20.811146
2534.704517	-3.022500	2.982200	-9.013200	28.999972	-4.405824E-6	20.789034
2535.688419	-2.969400	2.982000	-8.854300	28.943425	-3.778778E-6	20.788487
2536.689197	-2.973200	2.981200	-8.862700	28.962844	-2.887713E-6	20.792879
2537.689668	-2.980900	2.978600	-8.878200	28.976369	-3.382749E-6	20.801289
2538.692622	-3.004100	2.976500	-8.941100	29.004358	-4.702846E-6	20.781599
2539.714239	-2.999600	2.975600	-8.924700	28.951870	-3.646769E-6	20.792254
2540.708985	-2.996900	2.973600	-8.911500	28.902230	-4.009795E-6	20.812419
2541.710769	-2.986300	2.973400	-8.877900	28.939609	-3.844783E-6	20.802661
2542.707393	-2.987100	2.971300	-8.874600	28.931633	-4.735849E-6	20.760011
2543.707268	-3.002400	2.971100	-8.919700	29.003143	-3.514759E-6	20.791281
2544.716702	-3.008200	2.967000	-8.924300	29.013522	-4.669844E-6	20.799367
2545.708802	-3.000400	2.967400	-8.902100	28.989892	-6.187956E-6	20.799267
2546.709270	-3.009300	2.964500	-8.920000	29.006388	-3.943790E-6	20.781274
2547.710648	-2.973600	2.964900	-8.816000	28.949789	-4.570837E-6	20.796322
2548.707181	-3.004800	2.961100	-8.896300	28.886673	-6.220958E-6	20.795323
2549.709054	-2.970400	2.961200	-8.794800	28.850134	-5.890934E-6	20.795498
2550.708329	-3.016800	2.958700	-8.924600	28.966954	-4.537834E-6	20.788485
2551.710897	-3.004500	2.958000	-8.886100	28.996083	-2.260666E-6	20.796970
2552.708282	-3.000600	2.956400	-8.868700	29.019713	-3.151732E-6	20.792802
2553.716020	-2.979600	2.954800	-8.802300	29.088939	-4.471829E-6	20.766774
2554.693549	-3.009100	2.952600	-8.883700	29.126534	-4.405824E-6	20.796596
2555.696336	-3.022300	2.950000	-8.915500	29.089037	-6.220958E-6	20.757864
2556.714355	-2.989200	2.949600	-8.816000	29.066102	-7.376043E-6	20.790231
2557.713378	-3.014900	2.947600	-8.886000	29.094213	-5.065873E-6	20.803857
2558.710698	-3.032000	2.945500	-8.929900	29.077322	-6.055946E-6	20.778303
2559.714295	-2.995600	2.946400	-8.825400	29.100033	-5.824929E-6	20.783642
2560.713602	-3.000000	2.942600	-8.826100	29.144042	-5.494905E-6	20.770141
2561.711196	-3.011000	2.941700	-8.856800	29.188172	-5.989941E-6	20.790429
2562.712430	-3.013800	2.940400	-8.860600	29.146988	-6.484978E-6	20.793024
2563.698996	-2.990400	2.938300	-8.786300	29.133540	-4.438827E-6	20.790379
2564.694764	-3.001700	2.937000	-8.815100	29.115486	-3.910788E-6	20.766496
2565.714377	-3.000500	2.936800	-8.810700	29.137453	-2.920715E-6	20.785787
2566.712811	-3.011900	2.933700	-8.835500	29.147854	-5.428900E-6	20.768766
2567.693591	-3.015000	2.930900	-8.836100	29.207215	-3.448754E-6	20.772634
2568.694559	-3.008200	2.931200	-8.816600	29.155827	-5.626914E-6	20.763050
2569.695871	-2.993200	2.927200	-8.760300	29.189632	-5.032871E-6	20.784313
2570.699322	-2.979600	2.928100	-8.724000	29.147926	-3.547761E-6	20.761253
2571.695627	-2.982900	2.926300	-8.727400	29.072191	-5.791927E-6	20.771709
2572.696814	-3.008200	2.923100	-8.791500	29.061763	-7.838077E-6	20.770686
2573.697815	-3.011300	2.922300	-8.798500	29.090121	-5.956939E-6	20.773655
2574.698822	-2.984900	2.922100	-8.721400	29.129103	-4.636841E-6	20.778321
2575.699279	-2.994000	2.919500	-8.740100	29.159837	-5.956939E-6	20.763297
2576.698923	-3.001400	2.916900	-8.754500	29.148172	-3.613766E-6	20.756284
2577.699363	-2.979300	2.916400	-8.687000	29.190273	-5.494905E-6	20.765044
2578.699304	-3.004300	2.912700	-8.749500	29.148989	-6.418973E-6	20.760900
2579.707191	-3.005700	2.910900	-8.749000	29.138562	-4.636841E-6	20.765093
2580.699841	-3.000300	2.909100	-8.727400	29.115678	-5.890934E-6	20.775699
2581.703238	-2.990600	2.909200	-8.699500	29.111492	-6.715995E-6	20.787603
2582.706306	-2.992200	2.907800	-8.699400	29.082366	-5.725922E-6	20.778168
2583.702581	-2.990900	2.904000	-8.685200	29.044495	-7.376043E-6	20.752812
2584.723449	-2.994800	2.901800	-8.689300	29.052891	-5.527907E-6	20.777867
2585.721610	-2.993800	2.901100	-8.684100	29.019579	-9.290184E-6	20.763269
2586.737610	-3.017200	2.899500	-8.747400	28.993075	-6.352968E-6	20.765015
2587.728908	-2.998400	2.898400	-8.689600	29.052271	-7.046019E-6	20.742155
2588.719405	-2.996400	2.895300	-8.674400	29.051206	-6.154953E-6	20.768109
2589.723746	-3.009000	2.893700	-8.705500	29.027280	-7.145026E-6	20.746372
2590.718678	-3.006400	2.891600	-8.692000	29.046451	-3.943790E-6	20.759525
2591.705459	-2.988100	2.890500	-8.635600	29.127735	-5.593912E-6	20.757028
2592.728084	-2.996200	2.888300	-8.653200	29.080976	-6.319965E-6	20.744525
2593.727224	-3.009800	2.885100	-8.682900	29.070870	-4.735849E-6	20.765163
2594.733044	-2.991800	2.885200	-8.631200	29.076937	-5.032871E-6	20.737610
2595.709134	-2.996700	2.883300	-8.639600	29.016554	-6.286963E-6	20.774920
2596.705311	-3.006800	2.881600	-8.663300	28.976924	-5.230885E-6	20.750639
2597.709806	-2.994800	2.878900	-8.620700	28.920249	-6.815002E-6	20.748068
2598.708408	-2.989000	2.877700	-8.600800	28.965677	-4.636841E-6	20.761120
2599.726585	-2.982300	2.875800	-8.575900	29.012739	-6.088948E-6	20.758749
2600.724470	-2.985700	2.872400	-8.574700	29.069259	-5.065873E-6	20.766384
2601.721978	-3.028300	2.869900	-8.689800	29.155546	-6.055946E-6	20.756128
2602.726097	-2.985200	2.869400	-8.564100	29.225356	-5.593912E-6	20.754405
2603.731039	-3.018300	2.866800	-8.651900	29.206065	-3.943790E-6	20.753931
2604.722830	-2.980500	2.866500	-8.542600	29.212579	-3.712773E-6	20.749115
2605.729177	-3.005700	2.864900	-8.610200	29.239793	-6.418973E-6	20.758997
2606.723298	-3.025100	2.860200	-8.651200	29.320891	-4.405824E-6	20.743050
2607.707649	-2.990100	2.859100	-8.548700	29.317177	-7.838077E-6	20.750687
2608.709035	-3.010700	2.856000	-8.598400	29.299471	-4.801854E-6	20.764612
2609.707862	-2.989500	2.855900	-8.536800	29.294420	-6.022944E-6	20.770901
2610.708209	-2.975600	2.854400	-8.492700	29.320247	-6.220958E-6	20.735288
2611.710073	-2.981000	2.851300	-8.498600	29.352041	-5.989941E-6	20.748366
2612.708289	-3.014200	2.849600	-8.588500	29.324853	-5.956939E-6	20.758898
2613.710660	-3.030100	2.846300	-8.623000	29.333940	-4.702846E-6	20.737235
2614.715921	-3.008900	2.845000	-8.559900	29.329136	-6.286963E-6	20.744722
2615.729801	-2.978100	2.842700	-8.464600	29.344686	-7.376043E-6	20.743798
2616.710914	-2.976000	2.841000	-8.454300	29.351272	-7.310038E-6	20.744747
2617.717753	-3.008100	2.838300	-8.537500	29.343026	-5.461902E-6	20.748764
2618.712354	-2.998200	2.837200	-8.505500	29.272084	-6.055946E-6	20.748864
2619.712624	-2.994100	2.834800	-8.486200	29.293034	-4.471829E-6	20.749589
2620.710318	-2.989900	2.833900	-8.472300	29.352832	-6.517980E-6	20.733990
2621.727188	-3.005800	2.830100	-8.506000	29.333395	-5.527907E-6	20.752808
2622.730649	-3.006100	2.829100	-8.503700	29.346741	-7.277036E-6	20.733067
2623.731390	-2.968200	2.826700	-8.388400	29.311084	-7.937085E-6	20.736960
2624.727702	-3.000600	2.823400	-8.470500	29.226669	-5.956939E-6	20.747667
2625.713190	-2.981200	2.823200	-8.415800	29.293504	-3.811781E-6	20.739157
2626.728854	-2.986000	2.818200	-8.414800	29.422630	-4.834856E-6	20.740329
2627.710029	-3.013900	2.816500	-8.487500	29.422556	-3.547761E-6	20.743099
2628.710733	-2.978400	2.813500	-8.378500	29.423646	-5.329893E-6	20.743723
2629.713396	-2.995000	2.811300	-8.419100	29.430876	-4.603839E-6	20.733466
2630.727090	-3.018200	2.808400	-8.476100	29.423051	-6.583985E-6	20.748340
2631.730810	-2.999000	2.806600	-8.415900	29.451920	-4.735849E-6	20.732393
2632.730609	-2.998100	2.803600	-8.404400	29.513121	-5.659917E-6	20.745719
2633.729758	-2.989500	2.801300	-8.373600	29.560183	-4.537834E-6	20.744322
2634.729414	-2.989600	2.799400	-8.368500	29.573328	-5.791927E-6	20.736710
2635.728772	-2.986700	2.796200	-8.350600	29.565506	-5.428900E-6	20.736885
2636.733136	-3.008200	2.792400	-8.399100	29.515201	-6.649990E-6	20.739755
2637.711433	-3.022800	2.790100	-8.433200	29.557534	-6.352968E-6	20.736910
2638.713737	-3.021700	2.786300	-8.418500	29.606451	-6.088948E-6	20.728849
2639.731714	-3.008000	2.785400	-8.377600	29.642890	-4.042798E-6	20.757998
2640.727926	-2.993400	2.782300	-8.327900	29.625536	-4.999868E-6	20.735287
2641.715255	-3.003200	2.777700	-8.341300	29.606895	-5.725922E-6	20.749687
2642.713698	-3.003900	2.776300	-8.338900	29.621502	-4.900861E-6	20.733591
2643.716777	-2.987100	2.772400	-8.280500	29.596301	-4.867859E-6	20.723358
2644.732440	-2.996000	2.770100	-8.298000	29.591449	-4.537834E-6	20.754030
2645.729123	-2.968500	2.768000	-8.215500	29.645637	-3.811781E-6	20.729473
2646.735124	-3.011000	2.763800	-8.321000	29.684846	-5.989941E-6	20.720638
2647.715961	-2.989300	2.762000	-8.255300	29.747692	-5.131878E-6	20.732791
2648.714001	-2.990800	2.758300	-8.249100	29.770364	-5.692919E-6	20.729572
2649.730550	-2.993100	2.755400	-8.246600	29.759696	-5.197883E-6	20.756275
2650.736142	-2.991700	2.751600	-8.230500	29.754029	-5.032871E-6	20.745345
2651.729602	-3.002000	2.748100	-8.248200	29.744102	-4.405824E-6	20.747191
2652.737110	-3.002400	2.745100	-8.240400	29.720688	-3.547761E-6	20.721686
2653.715206	-3.020600	2.742600	-8.282700	29.703757	-4.933863E-6	20.729272
2654.714134	-2.993100	2.739200	-8.198100	29.682272	-5.428900E-6	20.748864
2655.726161	-3.013700	2.735400	-8.243300	29.659129	-6.748997E-6	20.729324
2656.715593	-3.014300	2.730600	-8.230000	29.567834	-7.112024E-6	20.738757
2657.731781	-3.004000	2.728400	-8.194900	29.608655	-5.065873E-6	20.733441
2658.739902	-2.993400	2.724800	-8.155500	29.547732	-5.098876E-6	20.734141
2659.742568	-3.001500	2.722100	-8.169200	29.539240	-3.547761E-6	20.742177
2660.715002	-3.016600	2.718300	-8.198800	29.597070	-7.145026E-6	20.750213
2661.717422	-3.006600	2.713500	-8.157500	29.582540	-5.659917E-6	20.716597
2662.717993	-3.033900	2.710500	-8.222700	29.644402	-5.890934E-6	20.740556
2663.731710	-3.012800	2.706400	-8.153000	29.670689	-2.821708E-6	20.740031
2664.717771	-2.976600	2.703300	-8.046200	29.619350	-4.174807E-6	20.731896
2665.717746	-3.048900	2.697300	-8.223200	29.688562	-4.933863E-6	20.723910
2666.716975	-2.991500	2.695100	-8.061500	29.732770	-4.042798E-6	20.734816
2667.718857	-2.998000	2.690700	-8.065700	29.728513	-4.273815E-6	20.731947
2668.735909	-3.016200	2.686300	-8.101000	29.736234	-5.098876E-6	20.749215
2669.733322	-3.011300	2.682600	-8.076800	29.776951	-4.900861E-6	20.729101
2670.737465	-2.995900	2.679700	-8.027300	29.824349	-5.923936E-6	20.738011
2671.740052	-2.997000	2.673900	-8.013100	29.786876	-3.415752E-6	20.754756
2672.744844	-3.005300	2.669900	-8.022600	29.812172	-5.230885E-6	20.740906
2673.735532	-2.986800	2.665600	-7.960300	29.757992	-4.669844E-6	20.727529
2674.732904	-3.010300	2.660600	-8.007700	29.739752	-3.184735E-6	20.747546
2675.754342	-2.993600	2.657300	-7.954000	29.736905	-3.052725E-6	20.741356
2676.741034	-2.986200	2.651800	-7.918000	29.659404	-5.692919E-6	20.713004
2677.754405	-2.997700	2.646100	-7.931200	29.687375	-7.442048E-6	20.744051
2678.740828	-2.971200	2.642600	-7.850600	29.716931	-4.966866E-6	20.768634
2679.748609	-2.993900	2.636900	-7.893900	29.734207	-5.725922E-6	20.723937
2680.738563	-3.015000	2.632500	-7.936700	29.770766	-2.128657E-6	20.741357
2681.754399	-2.996700	2.627300	-7.872600	29.824375	-1.963645E-6	20.743728
2682.737791	-3.007900	2.622500	-7.887400	29.908372	-5.164880E-6	20.730750
2683.735698	-2.989200	2.617400	-7.822500	29.895825	-2.128657E-6	20.750342
2684.747353	-3.048200	2.612300	-7.961600	29.950913	-5.197883E-6	20.741882
2685.739086	-2.962600	2.608400	-7.726900	30.001024	-4.075800E-6	20.757803
2686.743565	-3.002500	2.601900	-7.811600	30.066004	-3.118730E-6	20.751739
2687.738061	-2.970400	2.596600	-7.711800	30.093099	-4.834856E-6	20.752513
2688.751453	-3.053000	2.589000	-7.902700	30.038390	-2.293669E-6	20.741908
2689.747284	-2.992700	2.585300	-7.736100	30.033095	-4.141805E-6	20.768336
2690.723977	-2.979600	2.580800	-7.688000	30.048535	-3.415752E-6	20.750717
2691.723621	-2.994800	2.572400	-7.701800	30.057493	-5.197883E-6	20.759751
2692.726516	-2.973700	2.568900	-7.638500	30.106139	-4.900861E-6	20.756183
2693.724608	-3.002400	2.562000	-7.691400	30.098419	-4.372822E-6	20.743180
2694.743162	-3.016400	2.555800	-7.708100	30.061725	-4.471829E-6	20.729405
2695.739660	-2.986600	2.549200	-7.612300	29.968337	-5.032871E-6	20.743331
2696.752683	-3.033600	2.542400	-7.712000	29.960022	-5.890934E-6	20.750594
2697.753024	-3.014100	2.536700	-7.644900	29.920452	-5.494905E-6	20.753364
2698.748886	-3.002500	2.530300	-7.596300	29.897165	-4.009795E-6	20.755011
2699.752614	-2.994000	2.524400	-7.557100	29.991476	-3.679771E-6	20.763821
2700.730717	-2.985000	2.519800	-7.520100	30.029831	-2.689698E-6	20.745603
2701.764963	-3.043600	2.510000	-7.638600	30.082908	-3.382749E-6	20.739864
2702.746761	-2.998400	2.506600	-7.515100	30.128238	-3.448754E-6	20.750022
2703.747097	-3.007100	2.499100	-7.514500	30.219237	-3.943790E-6	20.756934
