LabVIEW Measurement	
Writer_Version	2
Reader_Version	2
Separator	Tab
Decimal_Separator	.
Multi_Headings	No
X_Columns	One
Time_Pref	Absolute
Operator	admin
Description	Clolumns are: time, Current, Voltage, Power, Battery Temp, and Chamber Temp
Date	2024/08/16
Time	13:07:17.8513970375061035156
***End_of_Header***	
	
Channels	6						
Samples	1	1	1	1	1	1	
Date	2024/09/10	2024/09/10	2024/09/10	2024/09/10	2024/09/10	2024/09/10	
Time	11:09:03.0787272453308105469	11:09:03.0861086845397949219	11:09:03.0919814109802246094	11:09:03.0627985000610351563	11:09:03.0627985000610351563	11:09:03.0627985000610351563	
X_Dimension	Time	Time	Time	Time	Time	Time	
X0	0.0000000000000000E+0	0.0000000000000000E+0	0.0000000000000000E+0	0.0000000000000000E+0	0.0000000000000000E+0	0.0000000000000000E+0	
Delta_X	1.000000	1.000000	1.000000	1.000000	1.000000	1.000000	
***End_of_Header***							
X_Value	Untitled	Untitled 1	Untitled 2	Untitled 3	Untitled 4	Untitled 5	Comment
0.000000	0.005687	4.084600	0.023393	20.899600	0.000460	20.818998
0.999354	-3.019000	3.918600	-11.829000	20.924179	0.000461	20.841208
2.000191	-3.003600	3.913600	-11.754000	20.903164	0.000459	20.839632
3.001840	-3.027500	3.907600	-11.829000	20.943242	0.000460	20.820919
4.002159	-3.026200	3.904700	-11.815000	20.927695	0.000460	20.817698
5.004998	-3.006600	3.902600	-11.732000	20.917517	0.000459	20.822692
6.001052	-2.993300	3.899800	-11.672000	20.960635	0.000457	20.826935
7.002453	-2.995900	3.896800	-11.674000	20.934142	0.000458	20.815137
8.000071	-3.016800	3.895400	-11.751000	20.952933	0.000459	20.847206
8.999759	-2.984200	3.894400	-11.620000	20.952681	0.000456	20.815661
10.004012	-2.992200	3.892900	-11.648000	20.959570	0.000456	20.816861
11.003103	-2.984800	3.890500	-11.611000	20.959472	0.000454	20.813444
11.999938	-3.000800	3.888400	-11.668000	20.970948	0.000455	20.812120
13.006175	-2.980100	3.888800	-11.587000	20.981458	0.000455	20.796079
13.998585	-2.993400	3.887200	-11.635000	20.998648	0.000454	20.827496
15.002871	-3.010600	3.886200	-11.698000	20.993569	0.000455	20.821942
16.000505	-2.994800	3.884300	-11.632000	20.980541	0.000454	20.809386
17.003091	-3.001900	3.884100	-11.658000	20.998532	0.000452	20.806043
18.001564	-3.022600	3.882900	-11.735000	21.013523	0.000452	20.807761
19.002089	-3.019600	3.881800	-11.720000	21.023829	0.000453	20.815224
19.999743	-3.005600	3.881300	-11.665000	21.029697	0.000451	20.792643
21.003428	-3.003600	3.880400	-11.654000	21.047785	0.000450	20.793666
22.004226	-2.984200	3.879900	-11.578000	21.058516	0.000451	20.814356
23.004072	-2.990000	3.879900	-11.599000	21.036562	0.000451	20.826536
24.004912	-3.005600	3.878300	-11.656000	21.058965	0.000450	20.788253
25.003314	-2.972500	3.878800	-11.529000	21.065103	0.000448	20.784435
26.008983	-2.982500	3.878100	-11.566000	21.065054	0.000450	20.787231
27.002396	-2.985200	3.877700	-11.574000	21.082095	0.000451	20.801905
28.008280	-3.012000	3.877100	-11.677000	21.092523	0.000448	20.791474
29.003275	-2.995900	3.876100	-11.611000	21.103198	0.000448	20.804522
30.009598	-3.018500	3.875200	-11.695000	21.110414	0.000447	20.808894
31.004682	-3.007200	3.876300	-11.656000	21.112938	0.000448	20.805255
32.005312	-3.010100	3.874200	-11.661000	21.110641	0.000449	20.802484
33.004674	-2.986800	3.873700	-11.569000	21.120663	0.000449	20.789749
34.006257	-2.995700	3.874800	-11.607000	21.138522	0.000447	20.782009
35.005203	-3.016100	3.873300	-11.681000	21.122910	0.000446	20.796264
36.007179	-3.003700	3.872200	-11.629000	21.157082	0.000446	20.789669
37.005437	-2.990700	3.871300	-11.577000	21.186378	0.000447	20.793844
38.007503	-2.985900	3.871800	-11.560000	21.177194	0.000446	20.808364
39.004572	-3.025100	3.870100	-11.706000	21.190939	0.000446	20.773277
40.006768	-2.990400	3.871000	-11.575000	21.188994	0.000443	20.802625
41.008354	-2.999900	3.870500	-11.610000	21.201662	0.000445	20.776891
42.004653	-2.997400	3.870400	-11.600000	21.200967	0.000446	20.802748
43.008239	-3.017700	3.870500	-11.679000	21.229227	0.000446	20.788819
44.010050	-2.994200	3.868800	-11.583000	21.216805	0.000444	20.791566
45.008997	-3.004000	3.868700	-11.620000	21.247607	0.000444	20.783024
46.007999	-3.007400	3.869000	-11.635000	21.241292	0.000444	20.797569
47.011928	-3.021700	3.867600	-11.686000	21.254194	0.000443	20.791036
48.008775	-3.020200	3.868500	-11.681000	21.249977	0.000443	20.793930
49.012235	-3.004300	3.867300	-11.618000	21.265538	0.000443	20.786737
50.010224	-3.001400	3.867100	-11.606000	21.280852	0.000444	20.789730
51.009803	-3.012600	3.867300	-11.649000	21.278482	0.000444	20.785937
52.009821	-2.989400	3.868100	-11.561000	21.285967	0.000445	20.760708
53.011125	-3.016900	3.867000	-11.666000	21.298013	0.000443	20.786035
54.010827	-2.999800	3.867200	-11.601000	21.295594	0.000445	20.775080
55.012038	-3.010300	3.867300	-11.641000	21.324203	0.000442	20.752018
56.013954	-3.005800	3.865900	-11.619000	21.330666	0.000440	20.763700
57.011979	-3.023800	3.867200	-11.693000	21.330881	0.000443	20.792365
58.015183	-2.995200	3.866300	-11.579000	21.326591	0.000442	20.785702
59.015151	-3.015300	3.865900	-11.656000	21.351537	0.000439	20.790272
60.009290	-3.008600	3.865900	-11.629000	21.345874	0.000442	20.784606
61.016286	-2.982400	3.865000	-11.526000	21.353408	0.000441	20.781238
62.011484	-2.999300	3.864200	-11.589000	21.364031	0.000442	20.761994
63.011070	-2.969000	3.865600	-11.476000	21.382840	0.000442	20.785080
64.011778	-2.990600	3.864700	-11.556000	21.381769	0.000443	20.804872
65.015298	-2.997800	3.865400	-11.587000	21.401519	0.000442	20.764414
66.012149	-2.983400	3.865900	-11.533000	21.417565	0.000442	20.775253
67.014928	-3.020200	3.863400	-11.668000	21.407434	0.000444	20.785505
68.017127	-2.972600	3.864700	-11.487000	21.432951	0.000443	20.784009
69.014418	-2.990900	3.864900	-11.558000	21.417565	0.000442	20.776201
70.013091	-3.011700	3.863200	-11.633000	21.440964	0.000442	20.767371
71.016599	-3.004800	3.862600	-11.605000	21.447297	0.000441	20.775604
72.016362	-3.012700	3.863900	-11.639000	21.459692	0.000440	20.737744
73.014150	-2.994100	3.863700	-11.567000	21.466529	0.000442	20.757388
74.018612	-2.990000	3.863600	-11.551000	21.488605	0.000441	20.761459
75.015106	-2.996500	3.864200	-11.578000	21.478407	0.000442	20.743194
76.018998	-2.978700	3.862600	-11.505000	21.493842	0.000443	20.780450
77.015289	-3.000100	3.862600	-11.588000	21.530532	0.000441	20.757894
78.016854	-2.996700	3.861600	-11.571000	21.514151	0.000442	20.780383
79.016849	-2.997800	3.862500	-11.577000	21.521683	0.000442	20.759470
80.016986	-3.006400	3.860600	-11.605000	21.513905	0.000443	20.782981
81.013323	-2.993400	3.861400	-11.558000	21.515898	0.000441	20.767907
82.017087	-2.981700	3.862100	-11.515000	21.543111	0.000442	20.773800
83.016070	-3.021400	3.861400	-11.665000	21.531837	0.000444	20.755880
84.014754	-2.988400	3.863200	-11.544000	21.553665	0.000444	20.783413
85.014850	-2.995900	3.860400	-11.564000	21.568650	0.000446	20.778018
86.019554	-2.965800	3.862100	-11.453000	21.586606	0.000444	20.755209
87.016047	-3.006500	3.861400	-11.608000	21.597880	0.000444	20.765068
88.021583	-3.005600	3.860000	-11.601000	21.596138	0.000443	20.774706
89.017781	-2.993400	3.861700	-11.559000	21.578607	0.000445	20.765222
90.018559	-3.016200	3.861100	-11.645000	21.614716	0.000445	20.761053
91.019952	-2.992400	3.859400	-11.548000	21.628832	0.000443	20.756213
92.018475	-3.007200	3.859500	-11.603000	21.623946	0.000445	20.772187
93.017492	-3.005000	3.859000	-11.595000	21.612445	0.000444	20.773954
94.017761	-3.004300	3.859600	-11.595000	21.634388	0.000446	20.762248
95.016571	-3.007200	3.859500	-11.606000	21.656239	0.000446	20.772261
96.020827	-3.007700	3.858100	-11.603000	21.658780	0.000445	20.763898
97.018653	-2.979400	3.859700	-11.498000	21.656867	0.000444	20.767199
98.021404	-2.993100	3.859100	-11.549000	21.669400	0.000445	20.766466
99.019092	-2.982400	3.859100	-11.509000	21.673265	0.000445	20.758953
100.022630	-2.993800	3.859000	-11.552000	21.697206	0.000443	20.757783
101.022387	-2.987900	3.859000	-11.529000	21.686186	0.000447	20.755764
102.027217	-2.971400	3.857900	-11.462000	21.702295	0.000445	20.786584
103.017454	-2.980100	3.858800	-11.498000	21.720920	0.000446	20.756385
104.019223	-2.991100	3.859000	-11.542000	21.724931	0.000446	20.764194
105.021101	-3.018800	3.857500	-11.644000	21.741310	0.000447	20.743601
106.018707	-2.985200	3.856700	-11.512000	21.743254	0.000450	20.755505
107.020410	-3.001200	3.856800	-11.574000	21.763497	0.000449	20.763910
108.023478	-3.020600	3.856000	-11.647000	21.751376	0.000448	20.764107
109.022381	-3.012200	3.855700	-11.613000	21.769810	0.000448	20.760745
110.021858	-3.008400	3.856900	-11.602000	21.792968	0.000452	20.751206
111.018707	-3.004400	3.855900	-11.584000	21.781444	0.000448	20.764329
112.017190	-3.007100	3.855700	-11.593000	21.811739	0.000447	20.754821
113.016977	-3.015300	3.856200	-11.627000	21.795053	0.000451	20.757087
114.019592	-2.988600	3.856500	-11.524000	21.803549	0.000450	20.766539
115.022141	-3.012600	3.854900	-11.612000	21.811898	0.000450	20.770628
116.021410	-3.001500	3.854100	-11.567000	21.826984	0.000449	20.762967
117.031686	-2.987100	3.856900	-11.520000	21.824682	0.000450	20.774414
118.023004	-2.997800	3.856400	-11.560000	21.840642	0.000450	20.781853
119.022607	-3.001600	3.855100	-11.570000	21.853198	0.000451	20.770239
120.029247	-3.007800	3.854800	-11.594000	21.879806	0.000449	20.779803
121.019618	-3.027300	3.853700	-11.666000	21.881836	0.000451	20.749591
122.018096	-3.027100	3.855000	-11.667000	21.891211	0.000451	20.755182
123.022213	-2.981900	3.855400	-11.495000	21.870836	0.000452	20.768927
124.023134	-2.984300	3.854600	-11.502000	21.891303	0.000450	20.774241
125.024498	-2.993600	3.855600	-11.541000	21.896483	0.000451	20.768046
126.025029	-3.004500	3.854600	-11.580000	21.911414	0.000451	20.763551
127.023970	-2.987000	3.855000	-11.514000	21.917147	0.000451	20.766919
128.024777	-3.006000	3.853400	-11.582000	21.899411	0.000451	20.770977
129.026283	-3.005500	3.854300	-11.583000	21.925766	0.000452	20.765114
130.022727	-3.016500	3.853000	-11.622000	21.934938	0.000453	20.760071
131.023855	-3.004000	3.853100	-11.574000	21.942535	0.000453	20.784746
132.026239	-2.972200	3.854000	-11.454000	21.985135	0.000454	20.758161
133.022796	-2.996400	3.851600	-11.540000	21.984735	0.000455	20.765348
134.027385	-3.003500	3.853100	-11.572000	21.991643	0.000454	20.770367
135.028021	-3.013300	3.851800	-11.605000	21.958954	0.000455	20.780792
136.026290	-2.985900	3.852500	-11.503000	21.987718	0.000454	20.765015
137.032975	-2.997000	3.852000	-11.543000	22.004499	0.000455	20.769012
138.032476	-3.006200	3.852500	-11.580000	21.997339	0.000456	20.768956
139.025084	-3.002400	3.851700	-11.563000	22.013800	0.000454	20.782590
140.027858	-3.010500	3.850200	-11.590000	22.013296	0.000457	20.746048
141.030867	-3.008000	3.850400	-11.581000	22.028821	0.000455	20.790041
142.023533	-3.015300	3.850000	-11.608000	22.081167	0.000456	20.778907
143.027113	-3.000400	3.851600	-11.555000	22.052553	0.000456	20.781555
144.025897	-2.991400	3.850000	-11.515000	22.056840	0.000458	20.787270
145.028086	-2.968000	3.850700	-11.428000	22.073706	0.000456	20.792774
146.039713	-2.988900	3.850800	-11.508000	22.051476	0.000456	20.786167
147.031281	-2.986100	3.850300	-11.497000	22.086746	0.000456	20.777854
148.029919	-3.005500	3.850000	-11.570000	22.101951	0.000458	20.777429
149.029965	-2.990200	3.850500	-11.513000	22.113416	0.000459	20.778476
150.030982	-3.007000	3.849500	-11.575000	22.083873	0.000457	20.787780
151.030820	-3.011600	3.849200	-11.592000	22.111171	0.000459	20.766271
152.030569	-3.013700	3.849700	-11.601000	22.101877	0.000459	20.797270
153.029070	-3.003200	3.848900	-11.558000	22.137748	0.000461	20.790034
154.028907	-2.987900	3.849500	-11.501000	22.133406	0.000458	20.776203
155.032642	-2.976000	3.850100	-11.457000	22.154416	0.000459	20.791075
156.031551	-2.984400	3.850300	-11.489000	22.174455	0.000460	20.784110
157.032173	-2.987100	3.849000	-11.496000	22.173360	0.000459	20.783014
158.031016	-3.000800	3.848100	-11.547000	22.191928	0.000459	20.768888
159.034534	-3.001300	3.849100	-11.552000	22.182407	0.000459	20.793495
160.031242	-3.006400	3.847500	-11.567000	22.183145	0.000461	20.806087
161.033609	-3.000800	3.847600	-11.545000	22.196571	0.000461	20.793451
162.031743	-3.007100	3.847500	-11.570000	22.207291	0.000463	20.759613
163.034273	-3.007900	3.848000	-11.573000	22.197672	0.000462	20.790286
164.031420	-3.020900	3.845500	-11.616000	22.212297	0.000462	20.793550
165.036144	-3.002700	3.846900	-11.550000	22.246117	0.000460	20.800859
166.033583	-3.006600	3.847500	-11.567000	22.218976	0.000461	20.790280
167.035754	-3.026600	3.846900	-11.642000	22.226147	0.000461	20.784657
168.034647	-3.014600	3.846600	-11.595000	22.240102	0.000465	20.785827
169.037718	-2.995500	3.845800	-11.519000	22.252586	0.000464	20.784577
170.037323	-2.972300	3.848100	-11.437000	22.246000	0.000465	20.778456
171.037181	-2.966800	3.846900	-11.412000	22.266184	0.000465	20.799140
172.035191	-2.996400	3.846200	-11.523000	22.258828	0.000464	20.792250
173.032805	-3.010100	3.844200	-11.571000	22.281208	0.000467	20.782415
174.042883	-2.983000	3.846800	-11.474000	22.305254	0.000465	20.799854
175.035578	-3.031100	3.844000	-11.651000	22.321944	0.000466	20.803764
176.038178	-3.001400	3.845200	-11.540000	22.307117	0.000468	20.796030
177.040903	-3.023400	3.844300	-11.621000	22.303445	0.000465	20.798992
178.035878	-3.006000	3.845500	-11.558000	22.317854	0.000467	20.799195
179.037437	-3.013200	3.844000	-11.582000	22.308174	0.000465	20.804201
180.039666	-3.001500	3.843200	-11.535000	22.346579	0.000467	20.794293
181.037227	-3.010500	3.844300	-11.572000	22.364215	0.000469	20.800574
182.035612	-3.001400	3.842800	-11.533000	22.381901	0.000467	20.809275
183.036898	-2.973600	3.843500	-11.428000	22.362579	0.000470	20.801781
184.039710	-2.989700	3.844000	-11.491000	22.384034	0.000468	20.795765
185.036916	-3.002600	3.843900	-11.541000	22.386949	0.000469	20.811485
186.040676	-2.979400	3.843500	-11.450000	22.401873	0.000470	20.812680
187.040766	-3.008000	3.843300	-11.559000	22.390528	0.000468	20.801319
188.039031	-3.022900	3.841800	-11.612000	22.404628	0.000470	20.805007
189.045956	-2.997600	3.842800	-11.518000	22.418205	0.000469	20.816707
190.043104	-2.997000	3.842700	-11.516000	22.442500	0.000470	20.826337
191.040359	-2.993900	3.842900	-11.504000	22.428363	0.000471	20.801275
192.045183	-2.970800	3.843700	-11.417000	22.442740	0.000469	20.825155
193.047768	-3.006500	3.841100	-11.547000	22.439917	0.000469	20.808578
194.043737	-3.004600	3.841700	-11.542000	22.412972	0.000472	20.834699
195.044531	-2.994100	3.841700	-11.501000	22.455203	0.000471	20.807291
196.044673	-3.015900	3.840300	-11.581000	22.478053	0.000472	20.806466
197.038977	-3.003300	3.841700	-11.536000	22.485726	0.000473	20.814151
198.045409	-2.991700	3.842200	-11.494000	22.499346	0.000472	20.812143
199.043329	-3.011300	3.840200	-11.564000	22.497999	0.000473	20.821226
200.046134	-3.007200	3.839300	-11.544000	22.523110	0.000471	20.831201
201.042640	-2.990500	3.839000	-11.480000	22.520915	0.000476	20.821891
202.039980	-3.000000	3.839000	-11.516000	22.499481	0.000472	20.831718
203.039490	-2.996100	3.839700	-11.503000	22.496683	0.000474	20.806158
204.058789	-3.005100	3.839200	-11.536000	22.499198	0.000471	20.833332
205.044166	-2.986700	3.841000	-11.471000	22.516162	0.000475	20.826139
206.040772	-3.005200	3.838600	-11.533000	22.531552	0.000473	20.832543
207.043413	-3.012400	3.839900	-11.566000	22.565140	0.000475	20.824458
208.041498	-2.992300	3.840100	-11.490000	22.557363	0.000476	20.828048
209.043890	-2.995600	3.837700	-11.495000	22.558254	0.000477	20.821355
210.042576	-3.004600	3.838600	-11.533000	22.566721	0.000477	20.818455
211.042541	-2.989500	3.839200	-11.476000	22.585682	0.000475	20.826065
212.047971	-3.003400	3.838600	-11.528000	22.581415	0.000477	20.827008
213.045154	-2.997100	3.837900	-11.501000	22.580954	0.000476	20.812321
214.045030	-2.996700	3.836800	-11.496000	22.603155	0.000478	20.823652
215.041461	-3.015700	3.836700	-11.569000	22.608307	0.000478	20.821225
216.044679	-2.999200	3.837100	-11.508000	22.607606	0.000478	20.828110
217.043586	-2.986400	3.838200	-11.462000	22.642631	0.000479	20.820043
218.043328	-3.021600	3.837000	-11.593000	22.643873	0.000478	20.842623
219.048956	-2.999300	3.836500	-11.506000	22.629690	0.000480	20.834107
220.043364	-3.001900	3.836000	-11.514000	22.615389	0.000479	20.838276
221.047507	-2.991900	3.835500	-11.475000	22.618968	0.000479	20.830480
222.047490	-2.999700	3.836700	-11.508000	22.639699	0.000481	20.825640
223.049035	-3.012000	3.835400	-11.552000	22.666700	0.000480	20.837512
224.045354	-2.983200	3.835600	-11.441000	22.681350	0.000481	20.835591
225.046134	-3.013400	3.835000	-11.554000	22.682088	0.000480	20.842020
226.046349	-2.985500	3.835800	-11.451000	22.685672	0.000481	20.830437
227.052491	-2.988100	3.835100	-11.459000	22.683576	0.000481	20.851570
228.043577	-2.975600	3.835300	-11.412000	22.720019	0.000482	20.822168
229.042618	-3.011200	3.835400	-11.548000	22.718894	0.000483	20.841903
230.045121	-2.994600	3.835300	-11.484000	22.742358	0.000484	20.834588
231.044178	-3.012400	3.833200	-11.546000	22.724912	0.000482	20.849354
232.046361	-2.996100	3.833900	-11.486000	22.746256	0.000484	20.838018
233.051434	-2.988200	3.833300	-11.455000	22.751887	0.000483	20.840339
234.046995	-2.996000	3.833700	-11.485000	22.747621	0.000484	20.850764
235.054694	-2.992900	3.832500	-11.469000	22.748838	0.000486	20.833966
236.049883	-3.009800	3.832000	-11.533000	22.753122	0.000482	20.848689
237.061290	-3.013400	3.833000	-11.549000	22.764851	0.000484	20.843369
238.049671	-2.988100	3.832600	-11.452000	22.790436	0.000483	20.859514
239.047217	-3.022600	3.832200	-11.583000	22.781240	0.000484	20.844612
240.047790	-3.008700	3.831900	-11.529000	22.815067	0.000485	20.858584
241.051544	-2.988800	3.831800	-11.450000	22.821694	0.000485	20.832033
242.053379	-3.021900	3.831900	-11.579000	22.827945	0.000486	20.846829
243.058444	-2.985300	3.833000	-11.441000	22.811201	0.000485	20.861349
244.055157	-3.001800	3.831500	-11.501000	22.820470	0.000487	20.843609
245.050553	-3.027800	3.829100	-11.592000	22.851408	0.000486	20.873177
246.057593	-2.999100	3.829600	-11.485000	22.844007	0.000487	20.859600
247.056722	-2.970200	3.832600	-11.382000	22.847099	0.000489	20.868387
248.053217	-2.999000	3.832100	-11.491000	22.860204	0.000487	20.849274
249.064054	-3.023300	3.829600	-11.578000	22.866160	0.000488	20.853344
250.052999	-2.981100	3.828800	-11.413000	22.884311	0.000490	20.854933
251.054135	-2.993100	3.831000	-11.465000	22.866307	0.000488	20.846854
252.053358	-3.011400	3.829700	-11.532000	22.875171	0.000489	20.858578
253.057728	-3.019600	3.829200	-11.562000	22.873179	0.000489	20.883134
254.054904	-2.991300	3.829700	-11.455000	22.905369	0.000490	20.852322
255.059501	-3.005900	3.828100	-11.506000	22.905135	0.000491	20.878165
256.058502	-2.986300	3.828700	-11.433000	22.915701	0.000492	20.836595
257.056357	-3.014200	3.828500	-11.538000	22.922904	0.000491	20.852346
258.057000	-3.000700	3.828900	-11.488000	22.925222	0.000492	20.857038
259.054974	-2.991800	3.828600	-11.453000	22.936678	0.000491	20.864249
260.057957	-2.983100	3.828600	-11.420000	22.953488	0.000491	20.861650
261.053460	-2.988300	3.828000	-11.438000	22.984674	0.000492	20.865394
262.064450	-3.020500	3.827500	-11.560000	22.979517	0.000494	20.844108
263.055047	-3.016600	3.828100	-11.547000	22.991600	0.000492	20.869489
264.055487	-3.002000	3.827300	-11.489000	22.963304	0.000490	20.858208
265.056153	-2.995800	3.826000	-11.461000	22.971324	0.000493	20.870037
266.055354	-2.982700	3.827600	-11.415000	22.993592	0.000495	20.862950
267.058681	-2.997000	3.825900	-11.466000	23.009737	0.000492	20.862057
268.063014	-2.995600	3.827200	-11.464000	23.034462	0.000494	20.865493
269.054091	-3.002700	3.825900	-11.487000	23.027001	0.000495	20.864181
270.055009	-2.984300	3.825600	-11.416000	23.042039	0.000494	20.858387
271.058705	-3.007100	3.826100	-11.505000	23.015649	0.000493	20.872247
272.057702	-3.009200	3.826500	-11.513000	23.062178	0.000494	20.864341
273.058827	-2.989000	3.825500	-11.434000	23.065866	0.000495	20.847648
274.063804	-3.013900	3.824700	-11.526000	23.078864	0.000494	20.853559
275.058498	-3.017600	3.824800	-11.540000	23.055855	0.000494	20.866539
276.062483	-2.988400	3.824600	-11.428000	23.053292	0.000497	20.873454
277.063776	-2.988200	3.825200	-11.430000	23.055240	0.000496	20.882992
278.057388	-2.991300	3.825000	-11.441000	23.056758	0.000497	20.849902
279.064394	-2.983200	3.823800	-11.405000	23.060599	0.000498	20.866552
280.061094	-3.002100	3.824500	-11.480000	23.061674	0.000496	20.882327
281.057739	-2.978000	3.822900	-11.383000	23.087510	0.000498	20.871231
282.062986	-2.983500	3.823900	-11.408000	23.094160	0.000496	20.882161
283.064934	-2.993300	3.822800	-11.442000	23.085617	0.000496	20.861749
284.061478	-2.986800	3.823300	-11.419000	23.089655	0.000499	20.890448
285.064873	-2.980000	3.822900	-11.391000	23.117481	0.000497	20.888459
286.068857	-3.014400	3.821400	-11.518000	23.115263	0.000498	20.876754
287.064045	-2.977800	3.823700	-11.386000	23.104527	0.000503	20.894444
288.064278	-3.011700	3.821100	-11.508000	23.126355	0.000499	20.884075
289.060284	-2.987400	3.823300	-11.421000	23.147642	0.000500	20.876009
290.063658	-3.009300	3.821900	-11.499000	23.159281	0.000500	20.865862
291.066226	-3.008500	3.821600	-11.497000	23.188322	0.000502	20.875523
292.061558	-3.006100	3.820900	-11.485000	23.186331	0.000501	20.871157
293.064538	-3.000000	3.821300	-11.462000	23.172861	0.000501	20.870935
294.062754	-3.011000	3.820500	-11.502000	23.160983	0.000500	20.859981
295.074441	-3.020100	3.820200	-11.537000	23.149756	0.000502	20.875757
296.065372	-2.999200	3.820100	-11.457000	23.171153	0.000504	20.869698
297.062346	-2.997800	3.818900	-11.448000	23.168984	0.000502	20.869895
298.064738	-3.013000	3.819800	-11.508000	23.205024	0.000503	20.881828
299.062469	-2.991000	3.820400	-11.426000	23.180395	0.000503	20.873269
300.065259	-2.988900	3.818500	-11.412000	23.170311	0.000506	20.908206
301.064511	-3.004400	3.819000	-11.472000	23.215709	0.000505	20.876416
302.071809	-2.990700	3.818900	-11.420000	23.242826	0.000504	20.890787
303.069344	-2.984700	3.819200	-11.398000	23.247060	0.000506	20.884125
304.071005	-2.997300	3.817200	-11.441000	23.247410	0.000506	20.891587
305.069677	-2.975400	3.818200	-11.359000	23.270169	0.000508	20.891637
306.070859	-2.980500	3.817900	-11.378000	23.260584	0.000505	20.873971
307.076159	-2.992400	3.816500	-11.420000	23.229400	0.000508	20.904832
308.071486	-3.008300	3.818200	-11.485000	23.252461	0.000507	20.890011
309.069507	-3.008200	3.816800	-11.481000	23.253634	0.000506	20.875067
310.075387	-3.012600	3.816700	-11.497000	23.253204	0.000508	20.888386
311.067636	-3.001400	3.817100	-11.456000	23.252233	0.000509	20.881723
312.068754	-2.990600	3.817000	-11.414000	23.259527	0.000508	20.907997
313.075255	-3.002800	3.815000	-11.455000	23.297696	0.000509	20.906420
314.070919	-3.005500	3.815100	-11.465000	23.278919	0.000510	20.914628
315.072054	-2.993200	3.815700	-11.420000	23.305739	0.000510	20.900731
316.067820	-2.998900	3.815900	-11.442000	23.299933	0.000507	20.903446
317.069165	-2.997300	3.815200	-11.434000	23.292836	0.000508	20.894912
318.071094	-2.959800	3.816500	-11.295000	23.327895	0.000508	20.921512
319.078624	-2.985400	3.815000	-11.388000	23.338942	0.000511	20.892283
320.075263	-3.001300	3.813600	-11.445000	23.348951	0.000508	20.893779
321.074625	-3.007000	3.814400	-11.469000	23.375093	0.000509	20.892954
322.072594	-2.990300	3.814100	-11.404000	23.374067	0.000509	20.891926
323.071934	-2.992200	3.812900	-11.409000	23.373944	0.000510	20.904130
324.073699	-3.009900	3.814600	-11.481000	23.379296	0.000510	20.913286
325.074672	-2.985000	3.812800	-11.381000	23.386293	0.000510	20.907972
326.077723	-3.005500	3.813000	-11.460000	23.370129	0.000512	20.917848
327.073426	-2.992600	3.812500	-11.408000	23.369127	0.000509	20.889346
328.076415	-2.992900	3.813100	-11.411000	23.382300	0.000510	20.907763
329.075988	-2.974700	3.812200	-11.339000	23.397014	0.000513	20.919665
330.079240	-2.990500	3.812400	-11.400000	23.388468	0.000511	20.902092
331.078517	-3.005400	3.811200	-11.454000	23.390760	0.000512	20.911500
332.075150	-2.969800	3.813900	-11.326000	23.370467	0.000511	20.888318
333.078159	-2.990700	3.811700	-11.398000	23.396210	0.000513	20.908902
334.077973	-3.000700	3.811000	-11.435000	23.415728	0.000513	20.889112
335.081623	-2.988000	3.810900	-11.387000	23.411845	0.000514	20.894229
336.080462	-3.015200	3.811700	-11.493000	23.452952	0.000514	20.889439
337.080829	-3.001500	3.810300	-11.436000	23.432562	0.000513	20.895079
338.078046	-2.997600	3.810300	-11.421000	23.444062	0.000512	20.865831
339.081109	-3.007100	3.809700	-11.456000	23.442274	0.000512	20.896753
340.081873	-3.002600	3.808200	-11.434000	23.445180	0.000514	20.891132
341.080422	-3.001100	3.809100	-11.431000	23.449665	0.000513	20.865283
342.083419	-3.018200	3.809000	-11.495000	23.425392	0.000513	20.890264
343.084591	-3.014100	3.809200	-11.480000	23.463881	0.000514	20.909875
344.084435	-3.006400	3.808600	-11.449000	23.466074	0.000512	20.868928
345.084450	-2.998100	3.808900	-11.418000	23.456245	0.000514	20.887524
346.086023	-2.986600	3.808100	-11.373000	23.492546	0.000514	20.882185
347.094045	-2.988000	3.807700	-11.376000	23.470491	0.000516	20.865295
348.085083	-3.012100	3.808700	-11.471000	23.468200	0.000513	20.890972
349.088574	-2.997500	3.809300	-11.418000	23.479510	0.000514	20.889506
350.088555	-3.008800	3.808200	-11.458000	23.507123	0.000515	20.874987
351.088840	-3.004600	3.808000	-11.441000	23.502375	0.000514	20.874495
352.090184	-3.009700	3.807400	-11.458000	23.532322	0.000515	20.887918
353.086723	-3.004100	3.806800	-11.436000	23.524637	0.000516	20.896335
354.083513	-3.010900	3.805300	-11.457000	23.535388	0.000515	20.866336
355.087559	-3.008800	3.805800	-11.450000	23.546654	0.000511	20.865301
356.083044	-2.999500	3.805600	-11.414000	23.560070	0.000515	20.881594
357.082181	-3.010900	3.806700	-11.461000	23.578799	0.000516	20.878558
358.086515	-3.030300	3.804400	-11.527000	23.568178	0.000516	20.883558
359.088353	-3.009200	3.805000	-11.449000	23.570291	0.000517	20.856281
360.086805	-3.001500	3.805100	-11.419000	23.558325	0.000518	20.860406
361.091915	-3.001300	3.804000	-11.416000	23.553079	0.000517	20.871742
362.085074	-3.011700	3.804100	-11.455000	23.551961	0.000517	20.877733
363.089876	-3.015300	3.803400	-11.468000	23.555377	0.000517	20.853658
364.090553	-2.998100	3.804300	-11.405000	23.550082	0.000517	20.853565
365.085429	-3.008500	3.804400	-11.445000	23.574162	0.000519	20.855419
366.090071	-2.976700	3.804500	-11.323000	23.560475	0.000519	20.844545
367.088943	-3.004000	3.803000	-11.424000	23.570906	0.000518	20.853104
368.089107	-2.967200	3.804500	-11.288000	23.554640	0.000519	20.847229
369.093195	-2.997300	3.803000	-11.398000	23.557502	0.000520	20.857685
370.092150	-3.022000	3.802200	-11.490000	23.577043	0.000519	20.848824
371.085194	-3.003100	3.802800	-11.419000	23.570556	0.000520	20.859865
372.089478	-3.015600	3.802100	-11.465000	23.594433	0.000521	20.839231
373.093128	-2.998400	3.801000	-11.396000	23.632971	0.000521	20.838984
374.086343	-2.981700	3.802400	-11.337000	23.639900	0.000522	20.831706
375.091587	-3.002700	3.801200	-11.413000	23.633106	0.000522	20.856189
376.089555	-2.998300	3.800500	-11.394000	23.628156	0.000520	20.853597
377.091457	-3.005700	3.801400	-11.425000	23.619396	0.000521	20.858092
378.088459	-3.008200	3.799900	-11.430000	23.616982	0.000521	20.811577
379.094322	-3.006300	3.800700	-11.426000	23.646442	0.000521	20.846799
380.096192	-2.955500	3.802000	-11.236000	23.662449	0.000521	20.836768
381.094222	-2.993800	3.800000	-11.376000	23.651055	0.000520	20.840518
382.098586	-2.977200	3.799700	-11.312000	23.668561	0.000523	20.850481
383.091917	-2.994000	3.799000	-11.373000	23.672964	0.000523	20.839724
384.093094	-2.981100	3.799500	-11.326000	23.663782	0.000522	20.833363
385.091089	-2.973800	3.798900	-11.295000	23.659052	0.000522	20.842372
386.095546	-2.990500	3.798200	-11.357000	23.640619	0.000521	20.851393
387.094876	-3.016900	3.798400	-11.459000	23.647566	0.000522	20.813788
388.099574	-2.992400	3.798200	-11.365000	23.648291	0.000521	20.829213
389.096641	-2.975100	3.798200	-11.299000	23.669427	0.000522	20.838074
390.092726	-3.024500	3.796800	-11.482000	23.691115	0.000522	20.844644
391.100318	-2.976200	3.798800	-11.305000	23.644194	0.000524	20.832218
392.099729	-2.980200	3.797300	-11.315000	23.662376	0.000523	20.830531
393.096044	-2.990800	3.796800	-11.355000	23.718208	0.000524	20.836246
394.103884	-2.982000	3.796000	-11.319000	23.710076	0.000525	20.826671
395.099039	-2.989300	3.795500	-11.344000	23.731462	0.000523	20.833413
396.096886	-2.959000	3.796100	-11.231000	23.754513	0.000524	20.814799
397.101153	-2.983000	3.796700	-11.325000	23.732617	0.000522	20.811812
398.100361	-2.994700	3.795300	-11.363000	23.741050	0.000524	20.824534
399.105159	-3.004600	3.795200	-11.402000	23.756571	0.000522	20.817810
400.104908	-3.015400	3.796300	-11.446000	23.756927	0.000525	20.827650
401.106258	-3.001400	3.794200	-11.387000	23.738385	0.000522	20.826604
402.101389	-2.998800	3.795900	-11.382000	23.748544	0.000521	20.800279
403.104231	-2.982000	3.795600	-11.318000	23.781734	0.000526	20.827392
404.100160	-2.999100	3.793400	-11.376000	23.790971	0.000523	20.814369
405.102356	-2.995900	3.793900	-11.366000	23.835625	0.000523	20.807934
406.104699	-3.019200	3.792600	-11.450000	23.816348	0.000526	20.811838
407.115798	-2.991900	3.794200	-11.351000	23.831487	0.000525	20.810896
408.104382	-2.988100	3.794100	-11.337000	23.867032	0.000524	20.810976
409.108180	-3.013400	3.793000	-11.429000	23.872528	0.000525	20.800841
410.102641	-2.990000	3.791700	-11.336000	23.876741	0.000525	20.808384
411.105453	-2.983200	3.792000	-11.311000	23.837874	0.000526	20.814456
412.106708	-2.984100	3.792800	-11.317000	23.809360	0.000524	20.808151
413.101453	-2.977300	3.792500	-11.291000	23.813339	0.000525	20.822572
414.104062	-3.010400	3.790900	-11.411000	23.819248	0.000526	20.810004
415.105447	-3.001200	3.792200	-11.379000	23.817934	0.000527	20.798255
416.104065	-2.998500	3.789500	-11.362000	23.830008	0.000526	20.805146
417.101645	-2.980700	3.790300	-11.297000	23.841160	0.000527	20.799259
418.113351	-2.990900	3.789800	-11.334000	23.804251	0.000526	20.811088
419.105887	-2.957700	3.791900	-11.214000	23.775238	0.000528	20.795276
420.107344	-2.991600	3.790400	-11.338000	23.810233	0.000529	20.828940
421.106793	-2.985200	3.790500	-11.314000	23.812548	0.000527	20.780527
422.101579	-2.995700	3.790300	-11.354000	23.810491	0.000528	20.798379
423.103358	-3.011900	3.789400	-11.413000	23.826195	0.000529	20.807961
424.103886	-2.997900	3.788100	-11.356000	23.838815	0.000528	20.801175
425.108703	-2.976000	3.789000	-11.275000	23.844864	0.000527	20.802499
426.108607	-2.999300	3.788900	-11.363000	23.855820	0.000528	20.805898
427.106531	-3.029900	3.787400	-11.475000	23.857817	0.000529	20.792253
428.109826	-2.998500	3.788100	-11.357000	23.839553	0.000531	20.786742
429.109675	-2.993600	3.788300	-11.339000	23.875730	0.000529	20.792197
430.109025	-2.989800	3.787300	-11.322000	23.849950	0.000528	20.783890
431.109036	-2.991500	3.785600	-11.324000	23.867231	0.000529	20.783201
432.110275	-2.985100	3.788200	-11.308000	23.865112	0.000529	20.792930
433.106435	-2.991200	3.785600	-11.322000	23.825170	0.000528	20.800769
434.108150	-3.015300	3.786000	-11.415000	23.852572	0.000528	20.802167
435.105263	-2.992100	3.786100	-11.327000	23.880275	0.000529	20.802919
436.110539	-3.018100	3.785800	-11.424000	23.867391	0.000528	20.781939
437.111103	-3.002500	3.785200	-11.364000	23.876376	0.000531	20.795690
438.113145	-3.008900	3.784200	-11.385000	23.901585	0.000532	20.774974
439.112120	-2.986200	3.784900	-11.301000	23.919031	0.000531	20.782986
440.114451	-3.000500	3.784400	-11.354000	23.946658	0.000532	20.786508
441.112062	-3.000600	3.784200	-11.354000	23.979437	0.000532	20.783343
442.110263	-2.999200	3.784300	-11.349000	23.998178	0.000531	20.794077
443.110585	-3.006200	3.783800	-11.373000	23.990539	0.000531	20.770769
444.112515	-3.018100	3.783100	-11.416000	23.959235	0.000531	20.774464
445.110142	-2.986100	3.783600	-11.298000	23.954310	0.000532	20.791336
446.108649	-2.997200	3.783800	-11.340000	23.939449	0.000533	20.773589
447.111149	-2.978700	3.784500	-11.273000	23.978897	0.000532	20.778060
448.110898	-3.014400	3.782000	-11.399000	23.965431	0.000533	20.792057
449.115809	-2.989200	3.782300	-11.305000	23.968747	0.000532	20.776416
450.109664	-2.994500	3.781800	-11.323000	23.965763	0.000532	20.780062
451.113341	-3.006600	3.781500	-11.369000	23.980193	0.000534	20.805438
452.106983	-2.993800	3.782000	-11.322000	23.990220	0.000533	20.801743
453.109262	-3.010900	3.782100	-11.386000	23.996416	0.000535	20.766705
454.115374	-3.002800	3.780700	-11.352000	23.992259	0.000534	20.803788
455.116510	-3.003100	3.779600	-11.349000	24.044292	0.000536	20.763035
456.113548	-2.991000	3.780100	-11.306000	24.037771	0.000535	20.771194
457.113575	-3.021900	3.778800	-11.419000	24.056602	0.000534	20.809046
458.111707	-3.010100	3.780300	-11.378000	24.058475	0.000535	20.780104
459.115452	-2.998100	3.780700	-11.333000	24.102861	0.000534	20.764401
460.114957	-3.017700	3.779800	-11.405000	24.069269	0.000535	20.756316
461.113727	-2.999400	3.779300	-11.334000	24.101289	0.000536	20.774679
462.113069	-2.991700	3.779400	-11.306000	24.128961	0.000534	20.765448
463.114787	-2.981700	3.779500	-11.268000	24.123687	0.000533	20.790979
464.118780	-2.983400	3.778400	-11.272000	24.087677	0.000535	20.788528
465.115283	-2.979700	3.778400	-11.257000	24.096389	0.000534	20.776877
466.115585	-2.981900	3.779100	-11.268000	24.083016	0.000533	20.779112
467.112724	-3.010700	3.776200	-11.368000	24.106262	0.000531	20.761648
468.116511	-3.005000	3.777100	-11.349000	24.115963	0.000534	20.776120
469.117649	-3.017900	3.776000	-11.395000	24.122231	0.000531	20.764389
470.116015	-2.996000	3.776300	-11.311000	24.130072	0.000534	20.756605
471.114360	-3.003400	3.776000	-11.341000	24.139005	0.000533	20.758452
472.120939	-3.020900	3.775900	-11.406000	24.123754	0.000533	20.787253
473.119606	-3.003600	3.776600	-11.342000	24.105519	0.000534	20.772283
474.119364	-2.980500	3.776300	-11.254000	24.112359	0.000533	20.770134
475.123331	-3.012600	3.773500	-11.367000	24.105789	0.000533	20.760226
476.117929	-3.009600	3.775600	-11.361000	24.117492	0.000533	20.780024
477.125484	-3.022300	3.774400	-11.406000	24.115804	0.000533	20.766951
478.123012	-3.021400	3.773900	-11.401000	24.142106	0.000533	20.767253
479.117867	-3.026200	3.774500	-11.421000	24.136678	0.000533	20.764654
480.117148	-3.012300	3.773700	-11.366000	24.162391	0.000532	20.767684
481.122530	-2.968600	3.775200	-11.206000	24.138355	0.000531	20.769180
482.117742	-2.962800	3.775700	-11.185000	24.158014	0.000533	20.771354
483.121706	-3.015000	3.772800	-11.374000	24.201064	0.000532	20.770911
484.122852	-2.990900	3.773900	-11.287000	24.157106	0.000533	20.747209
485.121398	-3.011600	3.771300	-11.357000	24.127918	0.000533	20.759661
486.122543	-2.992500	3.772600	-11.289000	24.131921	0.000533	20.775530
487.123715	-2.999500	3.772900	-11.316000	24.119341	0.000532	20.764335
488.119260	-3.011500	3.772300	-11.359000	24.158887	0.000534	20.775549
489.116547	-2.998100	3.772100	-11.308000	24.161177	0.000533	20.788278
490.125262	-3.026800	3.769900	-11.410000	24.175789	0.000533	20.758837
491.118199	-2.994900	3.772200	-11.297000	24.186669	0.000531	20.738454
492.119341	-2.996500	3.770100	-11.297000	24.192114	0.000531	20.749606
493.120233	-2.995000	3.770700	-11.293000	24.198469	0.000533	20.772576
494.126535	-2.980700	3.771900	-11.241000	24.197278	0.000534	20.759053
495.124345	-3.002400	3.770000	-11.318000	24.188597	0.000534	20.748923
496.124447	-2.980600	3.770400	-11.237000	24.201661	0.000534	20.748751
497.124752	-3.003400	3.769400	-11.320000	24.191188	0.000536	20.751048
498.122712	-2.998600	3.769200	-11.302000	24.239412	0.000535	20.746312
499.125173	-3.015300	3.770000	-11.367000	24.242377	0.000534	20.764935
500.126863	-2.992000	3.770600	-11.280000	24.249750	0.000534	20.746726
501.125686	-3.011800	3.769100	-11.351000	24.232635	0.000536	20.751843
502.127349	-2.994000	3.769100	-11.283000	24.227435	0.000536	20.768913
503.126473	-2.980300	3.769200	-11.233000	24.210325	0.000535	20.753174
504.124700	-2.993600	3.767300	-11.277000	24.241525	0.000534	20.727094
505.128253	-2.974900	3.769000	-11.212000	24.238443	0.000534	20.744867
506.125337	-3.008900	3.767200	-11.334000	24.237203	0.000536	20.755003
507.125235	-3.040700	3.765900	-11.450000	24.240445	0.000535	20.745452
508.129055	-3.009500	3.766700	-11.335000	24.268512	0.000534	20.744683
509.130934	-2.966800	3.767500	-11.176000	24.245129	0.000533	20.743513
510.130862	-2.996500	3.766600	-11.286000	24.266824	0.000534	20.761482
511.133401	-3.007200	3.766000	-11.324000	24.241753	0.000534	20.748661
512.130745	-2.988700	3.766300	-11.255000	24.222022	0.000534	20.735508
513.131642	-2.996600	3.765300	-11.282000	24.245314	0.000533	20.731844
514.132411	-2.978000	3.765800	-11.214000	24.236763	0.000533	20.758355
515.131485	-2.995800	3.763600	-11.274000	24.215073	0.000535	20.741814
516.128314	-2.990800	3.763700	-11.256000	24.219457	0.000535	20.747160
517.132098	-2.990700	3.763800	-11.256000	24.158027	0.000531	20.723950
518.146124	-3.013200	3.763700	-11.338000	24.202372	0.000535	20.728600
519.128624	-3.013400	3.763900	-11.341000	24.208426	0.000532	20.747001
520.132692	-3.014700	3.763700	-11.346000	24.228151	0.000533	20.749242
521.132257	-3.015700	3.762800	-11.347000	24.261530	0.000537	20.740049
522.128673	-2.969100	3.764800	-11.177000	24.265077	0.000536	20.723218
523.128766	-3.012300	3.763400	-11.336000	24.265066	0.000535	20.728897
524.133289	-2.991300	3.762800	-11.255000	24.264176	0.000534	20.725159
525.132617	-3.029500	3.762600	-11.398000	24.276312	0.000534	20.743972
526.129180	-3.012000	3.762200	-11.331000	24.258412	0.000532	20.727438
527.133254	-2.997200	3.762900	-11.277000	24.260849	0.000535	20.739366
528.130055	-2.978400	3.762900	-11.206000	24.250008	0.000535	20.745087
529.133407	-3.003100	3.762200	-11.298000	24.250610	0.000532	20.750907
530.132314	-2.989300	3.761600	-11.243000	24.246982	0.000534	20.756277
531.132664	-2.988900	3.761400	-11.240000	24.271888	0.000534	20.737637
532.129535	-2.996800	3.760700	-11.268000	24.279377	0.000535	20.723812
533.136041	-2.995200	3.760100	-11.261000	24.283988	0.000532	20.711841
534.131175	-3.001800	3.760200	-11.287000	24.324117	0.000534	20.713688
535.131610	-3.019700	3.760000	-11.353000	24.312503	0.000532	20.726695
536.139171	-2.978600	3.759000	-11.196000	24.316592	0.000532	20.727951
537.138782	-2.990900	3.759300	-11.242000	24.346468	0.000531	20.730895
538.136183	-2.982600	3.758900	-11.211000	24.377320	0.000533	20.730550
539.136050	-3.010700	3.758200	-11.313000	24.351747	0.000533	20.738562
540.133995	-2.993800	3.759600	-11.255000	24.398669	0.000533	20.734424
541.133453	-3.010500	3.758000	-11.312000	24.405145	0.000533	20.748034
542.142924	-3.001300	3.757300	-11.275000	24.399326	0.000532	20.738403
543.137931	-2.991300	3.759200	-11.244000	24.369851	0.000533	20.738705
544.137806	-3.003300	3.757600	-11.284000	24.372742	0.000534	20.733071
545.139425	-3.029100	3.757200	-11.380000	24.395625	0.000533	20.736113
546.135332	-3.010000	3.756600	-11.306000	24.367795	0.000533	20.732375
547.136907	-2.994400	3.757800	-11.251000	24.382706	0.000533	20.723151
548.138493	-3.016800	3.755600	-11.328000	24.383528	0.000530	20.719708
549.134901	-2.977600	3.757300	-11.187000	24.387733	0.000532	20.737204
550.134410	-2.984800	3.756700	-11.212000	24.404405	0.000532	20.735911
551.139398	-3.033400	3.754300	-11.387000	24.394265	0.000533	20.717203
552.134636	-3.003700	3.754600	-11.276000	24.379994	0.000534	20.723750
553.135226	-3.015100	3.754700	-11.320000	24.371714	0.000532	20.716865
554.139790	-3.002300	3.754700	-11.272000	24.379878	0.000533	20.712253
555.138677	-2.995400	3.754600	-11.244000	24.382739	0.000533	20.725081
556.139293	-2.980400	3.754900	-11.190000	24.380725	0.000535	20.737286
557.139357	-2.997600	3.754300	-11.253000	24.385035	0.000535	20.727384
558.137177	-2.973300	3.755700	-11.166000	24.335265	0.000535	20.733882
559.136911	-2.997600	3.752900	-11.249000	24.341508	0.000532	20.740145
560.141322	-3.004200	3.753300	-11.275000	24.352442	0.000533	20.732620
561.141747	-2.977700	3.753900	-11.178000	24.355148	0.000533	20.727749
562.137707	-3.006500	3.753200	-11.283000	24.393415	0.000534	20.718247
563.142516	-3.014700	3.751600	-11.308000	24.413322	0.000532	20.714510
564.143269	-3.008200	3.752600	-11.288000	24.436610	0.000533	20.725545
565.141000	-3.006900	3.752100	-11.281000	24.435051	0.000534	20.723034
566.142077	-2.991200	3.751300	-11.220000	24.398480	0.000532	20.727122
567.138972	-3.023900	3.752000	-11.344000	24.384056	0.000532	20.721660
568.136019	-3.008100	3.751400	-11.283000	24.355280	0.000532	20.718871
569.141731	-3.003900	3.750500	-11.264000	24.396677	0.000531	20.747125
570.142799	-3.008200	3.750200	-11.281000	24.418271	0.000532	20.726113
571.141581	-2.995700	3.750700	-11.235000	24.426134	0.000534	20.744434
572.138612	-2.994600	3.751200	-11.232000	24.442308	0.000531	20.731262
573.137631	-3.005000	3.749400	-11.266000	24.449355	0.000533	20.740703
574.142238	-3.014300	3.750000	-11.303000	24.468333	0.000530	20.723707
575.141338	-3.004100	3.749100	-11.262000	24.452467	0.000533	20.715375
576.141676	-3.002700	3.750300	-11.260000	24.455978	0.000533	20.738813
577.139411	-3.014200	3.749900	-11.302000	24.419666	0.000533	20.747429
578.145307	-3.020900	3.748800	-11.323000	24.440265	0.000531	20.736326
579.142094	-2.994300	3.749300	-11.226000	24.461908	0.000532	20.726270
580.144730	-3.000200	3.747300	-11.242000	24.478799	0.000531	20.731363
581.144025	-3.016000	3.746700	-11.300000	24.481456	0.000534	20.717433
582.142359	-3.001400	3.747400	-11.246000	24.493670	0.000531	20.736800
583.145270	-3.028600	3.747300	-11.348000	24.444526	0.000531	20.723056
584.148045	-2.992600	3.746500	-11.211000	24.439757	0.000531	20.727755
585.147296	-2.992200	3.746800	-11.210000	24.419557	0.000532	20.729301
586.146086	-2.984400	3.747000	-11.182000	24.472018	0.000529	20.727878
587.148228	-2.978100	3.747700	-11.159000	24.496495	0.000530	20.715451
588.146542	-3.012900	3.745500	-11.284000	24.518234	0.000532	20.746273
589.150366	-3.000400	3.747000	-11.241000	24.526741	0.000530	20.721615
590.148622	-2.971500	3.746200	-11.130000	24.495304	0.000531	20.738914
591.145577	-2.992900	3.745100	-11.207000	24.479040	0.000530	20.724966
592.150830	-3.002400	3.745000	-11.243000	24.488044	0.000529	20.721671
593.151470	-3.000100	3.744300	-11.232000	24.520586	0.000532	20.734881
594.151168	-2.978000	3.745600	-11.154000	24.548321	0.000530	20.756546
595.147778	-3.007800	3.744100	-11.261000	24.526281	0.000531	20.736802
596.149422	-3.005400	3.744500	-11.253000	24.524139	0.000529	20.737972
597.158870	-3.005700	3.743600	-11.251000	24.481693	0.000530	20.738534
598.147159	-3.007300	3.744400	-11.260000	24.469405	0.000531	20.742327
599.148249	-3.024800	3.742600	-11.319000	24.468859	0.000530	20.745573
600.147031	-2.986200	3.743100	-11.177000	24.528927	0.000530	20.736138
601.146646	-2.997500	3.743200	-11.219000	24.587109	0.000530	20.755635
602.148998	-3.007100	3.743000	-11.255000	24.560621	0.000532	20.738066
603.150830	-2.998700	3.743800	-11.226000	24.532984	0.000530	20.735467
604.151814	-3.001700	3.741200	-11.230000	24.532918	0.000530	20.726391
605.147391	-2.985900	3.743400	-11.177000	24.545572	0.000530	20.750469
606.151833	-3.012900	3.740800	-11.270000	24.559634	0.000529	20.741817
607.149782	-3.006900	3.740700	-11.247000	24.543745	0.000529	20.734409
608.148768	-2.988500	3.740600	-11.178000	24.531556	0.000532	20.746362
609.149754	-2.982000	3.741400	-11.156000	24.531986	0.000529	20.736836
610.149045	-2.987800	3.740600	-11.175000	24.587528	0.000530	20.741356
611.149297	-2.993000	3.740600	-11.195000	24.623473	0.000529	20.734749
612.148422	-3.023800	3.739700	-11.307000	24.581042	0.000530	20.744805
613.149559	-2.976700	3.741400	-11.136000	24.563582	0.000530	20.737243
614.155951	-3.000300	3.738800	-11.216000	24.549534	0.000532	20.740218
615.151544	-2.991200	3.738600	-11.181000	24.573641	0.000531	20.749708
616.151085	-3.015700	3.738300	-11.273000	24.555684	0.000529	20.727422
617.153429	-3.008300	3.737800	-11.243000	24.501245	0.000530	20.736340
618.153214	-2.983100	3.737700	-11.149000	24.500577	0.000529	20.750368
619.152186	-2.996100	3.737700	-11.197000	24.529233	0.000530	20.754464
620.153341	-2.985000	3.739100	-11.161000	24.568327	0.000529	20.748644
621.153531	-3.000700	3.737700	-11.215000	24.560976	0.000529	20.764502
622.154224	-3.019500	3.737400	-11.284000	24.600450	0.000529	20.733459
623.153230	-3.033000	3.737400	-11.335000	24.589680	0.000528	20.780974
624.155834	-2.993500	3.738600	-11.191000	24.588521	0.000529	20.741404
625.154261	-3.009200	3.736600	-11.243000	24.604735	0.000528	20.763363
626.155068	-3.001100	3.736500	-11.213000	24.610510	0.000529	20.743553
627.157191	-2.993400	3.736300	-11.183000	24.651173	0.000529	20.758277
628.153896	-2.991100	3.736400	-11.175000	24.681992	0.000530	20.754589
629.152300	-2.984900	3.736100	-11.150000	24.646387	0.000530	20.761536
630.156937	-3.016600	3.735100	-11.265000	24.662982	0.000529	20.744048
631.156851	-3.021300	3.734400	-11.281000	24.671984	0.000529	20.745021
632.154986	-2.984700	3.736300	-11.151000	24.651746	0.000530	20.747472
633.159027	-3.001900	3.733900	-11.207000	24.651924	0.000528	20.748599
634.157154	-3.029900	3.733200	-11.310000	24.612409	0.000527	20.746408
635.156633	-2.994100	3.733600	-11.177000	24.611814	0.000528	20.753871
636.158404	-2.988800	3.734200	-11.160000	24.646838	0.000527	20.752031
637.156538	-3.018100	3.731800	-11.262000	24.615682	0.000528	20.752536
638.158031	-2.988200	3.734100	-11.158000	24.624439	0.000527	20.766540
639.166374	-2.992800	3.734800	-11.177000	24.636179	0.000529	20.770734
640.163004	-3.003700	3.732800	-11.211000	24.653075	0.000527	20.773462
641.165061	-2.974400	3.733600	-11.104000	24.643925	0.000529	20.768074
642.169799	-2.990000	3.732700	-11.159000	24.648381	0.000526	20.768278
643.163649	-2.974900	3.732800	-11.103000	24.649455	0.000528	20.772201
644.165166	-2.999100	3.732500	-11.193000	24.651296	0.000528	20.742753
645.165898	-3.011700	3.731900	-11.238000	24.611690	0.000526	20.751376
646.164849	-3.029100	3.729900	-11.296000	24.572395	0.000526	20.765527
647.163004	-3.016500	3.730800	-11.253000	24.584828	0.000528	20.754295
648.166285	-2.964700	3.732600	-11.064000	24.577820	0.000525	20.756746
649.165197	-3.010700	3.730700	-11.231000	24.587548	0.000525	20.748014
650.178916	-2.998900	3.731200	-11.189000	24.617203	0.000525	20.772555
651.175167	-3.003100	3.730800	-11.202000	24.643094	0.000525	20.759180
652.170241	-2.974800	3.730800	-11.097000	24.633651	0.000526	20.776257
653.169906	-2.993200	3.729400	-11.162000	24.692324	0.000526	20.756423
654.167059	-2.996100	3.730100	-11.175000	24.660763	0.000526	20.763159
655.169098	-2.991200	3.728800	-11.153000	24.647742	0.000525	20.758628
656.165999	-2.996500	3.728100	-11.170000	24.647049	0.000523	20.771683
657.168164	-3.002500	3.728800	-11.195000	24.652418	0.000524	20.755260
658.170357	-2.991700	3.729700	-11.156000	24.631560	0.000525	20.760883
659.165517	-3.007800	3.727200	-11.210000	24.630997	0.000524	20.751782
660.173615	-2.992500	3.729600	-11.160000	24.688718	0.000524	20.767978
661.170640	-3.004900	3.728200	-11.202000	24.724783	0.000525	20.770977
662.171738	-2.986600	3.728000	-11.133000	24.749237	0.000525	20.761378
663.176606	-3.002600	3.727200	-11.190000	24.725465	0.000524	20.778774
664.182945	-2.987200	3.727300	-11.133000	24.727631	0.000523	20.760085
665.171575	-3.003900	3.727400	-11.195000	24.759288	0.000523	20.750127
666.175045	-2.985700	3.726500	-11.125000	24.732510	0.000523	20.767352
667.175001	-2.989100	3.727000	-11.140000	24.660247	0.000525	20.780186
668.177045	-3.001600	3.725700	-11.182000	24.623519	0.000523	20.764194
669.170557	-2.981300	3.726000	-11.107000	24.646803	0.000525	20.787084
670.174230	-2.995000	3.726800	-11.160000	24.629018	0.000523	20.776824
671.174204	-2.992700	3.726100	-11.151000	24.609773	0.000524	20.767945
672.174110	-2.995200	3.726000	-11.159000	24.600329	0.000523	20.761314
673.176192	-2.970800	3.725200	-11.065000	24.658857	0.000522	20.766463
674.176482	-2.998700	3.724000	-11.167000	24.657839	0.000523	20.779191
675.175648	-2.998200	3.723800	-11.164000	24.725439	0.000523	20.760730
676.171530	-2.975700	3.724900	-11.084000	24.750537	0.000525	20.774537
677.171951	-2.984400	3.725000	-11.116000	24.751661	0.000522	20.785622
678.173841	-2.998200	3.723900	-11.165000	24.741788	0.000523	20.791835
679.180060	-2.983200	3.724700	-11.111000	24.757215	0.000523	20.775074
680.173059	-3.001200	3.722400	-11.171000	24.762045	0.000523	20.787982
681.178115	-2.988800	3.722600	-11.125000	24.787957	0.000522	20.791701
682.183331	-2.992100	3.721900	-11.135000	24.789179	0.000522	20.770168
683.176970	-3.004600	3.721200	-11.180000	24.804158	0.000523	20.792312
684.178291	-2.993800	3.722600	-11.143000	24.773619	0.000524	20.792010
685.175585	-2.986300	3.722900	-11.117000	24.782750	0.000524	20.782682
686.174618	-3.005300	3.721500	-11.183000	24.797532	0.000523	20.781870
687.177611	-3.006800	3.722300	-11.191000	24.781843	0.000522	20.787936
688.173928	-3.017300	3.721500	-11.228000	24.774038	0.000523	20.785319
689.172822	-3.013200	3.721300	-11.212000	24.797914	0.000522	20.767554
690.173119	-3.000800	3.719800	-11.161000	24.774542	0.000524	20.767333
691.177534	-3.000100	3.721800	-11.164000	24.767560	0.000523	20.794465
692.175375	-3.004500	3.720200	-11.177000	24.749980	0.000524	20.786306
693.184877	-3.003600	3.719900	-11.172000	24.723625	0.000524	20.775032
694.178505	-2.987400	3.721100	-11.116000	24.767738	0.000523	20.792273
695.179481	-2.995400	3.719600	-11.141000	24.791233	0.000523	20.771755
696.182045	-3.019900	3.719600	-11.232000	24.788527	0.000523	20.774730
697.186434	-2.996800	3.719400	-11.145000	24.755748	0.000525	20.788301
698.180376	-3.008800	3.719200	-11.189000	24.776992	0.000522	20.792077
699.180954	-3.003400	3.717700	-11.165000	24.752773	0.000521	20.781522
700.177961	-3.006100	3.717400	-11.173000	24.701645	0.000523	20.794226
701.177513	-3.012700	3.718300	-11.201000	24.713808	0.000522	20.782723
702.186841	-3.010600	3.716800	-11.189000	24.787736	0.000521	20.781522
703.182172	-2.975100	3.719800	-11.066000	24.777986	0.000522	20.789281
704.180215	-3.002800	3.717900	-11.163000	24.811580	0.000522	20.785063
705.179622	-2.985500	3.717500	-11.097000	24.851941	0.000521	20.813716
706.179925	-3.014600	3.717000	-11.203000	24.859550	0.000521	20.795273
707.184585	-3.008100	3.717800	-11.182000	24.814765	0.000521	20.793000
708.177529	-2.994700	3.717200	-11.131000	24.776575	0.000521	20.811099
709.184699	-3.010200	3.716400	-11.186000	24.808549	0.000520	20.783444
710.182047	-3.002400	3.716800	-11.158000	24.846745	0.000520	20.783370
711.176981	-3.019600	3.715000	-11.217000	24.870139	0.000520	20.810168
712.182867	-2.995300	3.716000	-11.129000	24.884840	0.000520	20.805957
713.181084	-3.027200	3.715300	-11.246000	24.904511	0.000518	20.804362
714.182162	-3.016200	3.714500	-11.203000	24.877674	0.000521	20.794023
715.184813	-3.001400	3.715500	-11.150000	24.876890	0.000517	20.816469
716.182460	-3.012000	3.715000	-11.189000	24.851476	0.000518	20.816093
717.178010	-3.008400	3.714000	-11.172000	24.832253	0.000518	20.821456
718.184405	-3.003200	3.715300	-11.156000	24.866773	0.000518	20.819591
719.178863	-2.980400	3.715200	-11.072000	24.883161	0.000517	20.806642
720.178341	-3.019100	3.714200	-11.212000	24.896592	0.000517	20.808742
721.184137	-3.007900	3.712400	-11.166000	24.900966	0.000520	20.790847
722.179306	-2.990200	3.713200	-11.102000	24.899370	0.000516	20.801100
723.183693	-3.002600	3.713500	-11.149000	24.907310	0.000517	20.819974
724.186021	-3.002100	3.713100	-11.146000	24.881204	0.000516	20.829334
725.184057	-3.001500	3.713800	-11.146000	24.858363	0.000516	20.820160
726.185095	-2.990800	3.713600	-11.106000	24.882090	0.000516	20.796558
727.182014	-3.019000	3.710900	-11.202000	24.868463	0.000515	20.815598
728.189180	-2.983100	3.712100	-11.072000	24.889005	0.000515	20.819619
729.183506	-3.008500	3.711700	-11.166000	24.909189	0.000515	20.797678
730.185207	-3.002800	3.711400	-11.143000	24.916307	0.000515	20.817150
731.180476	-3.004600	3.711300	-11.150000	24.944179	0.000515	20.821892
732.184861	-3.001600	3.711800	-11.140000	24.915068	0.000515	20.813536
733.181373	-2.973500	3.711300	-11.035000	24.881428	0.000515	20.810119
734.182815	-2.990300	3.711600	-11.098000	24.913308	0.000516	20.796597
735.183464	-2.988700	3.711000	-11.090000	24.836203	0.000515	20.821628
736.180654	-2.986300	3.710500	-11.080000	24.816906	0.000513	20.811745
737.181074	-2.982400	3.710700	-11.066000	24.850660	0.000516	20.824283
738.186399	-3.007700	3.708900	-11.154000	24.884399	0.000514	20.816894
739.182173	-2.997300	3.710100	-11.119000	24.876994	0.000513	20.823686
740.180727	-3.003500	3.709000	-11.139000	24.893228	0.000513	20.839979
741.185794	-2.985700	3.709200	-11.075000	24.901658	0.000513	20.822836
742.184333	-3.001200	3.709300	-11.132000	24.924537	0.000513	20.825885
743.185105	-2.982800	3.709900	-11.065000	24.911415	0.000513	20.807499
744.185183	-2.999200	3.708100	-11.120000	24.926410	0.000515	20.826816
745.185723	-3.013300	3.707000	-11.169000	24.900003	0.000514	20.827339
746.183400	-3.000300	3.708200	-11.125000	24.916188	0.000515	20.828884
747.184944	-3.008200	3.707200	-11.151000	24.930556	0.000514	20.812960
748.185145	-2.997400	3.707400	-11.112000	24.932925	0.000513	20.830985
749.187616	-2.982400	3.708300	-11.059000	24.910022	0.000515	20.821273
750.192713	-2.997900	3.706600	-11.111000	24.914967	0.000512	20.836667
751.186161	-3.011300	3.705400	-11.157000	24.918078	0.000514	20.846901
752.189877	-3.016000	3.705700	-11.175000	24.926581	0.000513	20.835996
753.190095	-2.988200	3.706500	-11.074000	24.928611	0.000511	20.853680
754.190849	-2.995600	3.705900	-11.100000	24.946513	0.000511	20.830872
755.193558	-3.031500	3.706100	-11.234000	24.941838	0.000513	20.830447
756.190817	-3.009900	3.704000	-11.147000	24.951171	0.000508	20.849297
757.187372	-3.004100	3.705100	-11.130000	24.900917	0.000510	20.838212
758.194478	-3.022200	3.704900	-11.195000	24.912482	0.000509	20.836544
759.188183	-3.006800	3.704900	-11.139000	24.914960	0.000509	20.863686
760.190361	-2.991000	3.704600	-11.080000	24.951360	0.000511	20.845693
761.191421	-3.021800	3.704400	-11.193000	24.942016	0.000511	20.836790
762.190494	-3.022200	3.704100	-11.194000	24.920611	0.000509	20.864142
763.191078	-3.010200	3.703900	-11.149000	24.991145	0.000510	20.842480
764.193774	-2.993100	3.703600	-11.085000	24.997507	0.000510	20.845546
765.197435	-2.991200	3.703000	-11.075000	24.984361	0.000509	20.846575
766.190823	-2.991300	3.702400	-11.074000	24.966126	0.000508	20.871893
767.193184	-3.030100	3.701800	-11.216000	24.940459	0.000507	20.844710
768.195951	-2.993400	3.703100	-11.084000	24.942741	0.000508	20.851267
769.196189	-3.006000	3.703400	-11.131000	24.976012	0.000506	20.853367
770.201250	-3.000000	3.701900	-11.105000	24.972355	0.000508	20.872455
771.195960	-2.985100	3.702300	-11.051000	24.981281	0.000508	20.838743
772.196862	-2.986800	3.702600	-11.058000	24.964576	0.000509	20.856114
773.198068	-3.015200	3.700800	-11.157000	24.955926	0.000504	20.846483
774.197411	-2.999800	3.702500	-11.106000	24.957963	0.000504	20.861803
775.197927	-2.992500	3.701500	-11.075000	24.952700	0.000505	20.856047
776.197113	-2.989600	3.701900	-11.066000	24.919876	0.000507	20.863405
777.193768	-3.008600	3.700900	-11.133000	24.930497	0.000506	20.842297
778.202490	-2.987000	3.702300	-11.058000	24.947227	0.000506	20.866200
779.196409	-3.019000	3.698500	-11.166000	24.919663	0.000504	20.839484
780.202653	-3.003400	3.699700	-11.110000	24.911478	0.000505	20.844545
781.197119	-3.004300	3.700800	-11.117000	24.922693	0.000504	20.858646
782.206862	-3.005200	3.698500	-11.114000	24.922417	0.000503	20.864058
783.199056	-2.988400	3.699200	-11.053000	24.934878	0.000505	20.858073
784.202441	-3.000800	3.699800	-11.101000	24.960167	0.000503	20.848369
785.203234	-2.994900	3.698200	-11.075000	24.995701	0.000506	20.834251
786.198785	-3.006400	3.699000	-11.120000	24.985008	0.000503	20.858130
787.199930	-3.008000	3.698700	-11.125000	24.981236	0.000502	20.861455
788.198353	-3.024000	3.697800	-11.180000	24.977131	0.000504	20.831733
789.203953	-2.996800	3.698100	-11.081000	24.956850	0.000504	20.838876
790.196622	-3.000500	3.697200	-11.093000	24.998917	0.000504	20.860237
791.198246	-3.007500	3.697000	-11.117000	24.987702	0.000504	20.842343
792.200023	-2.990600	3.697600	-11.057000	24.962673	0.000501	20.833341
793.197517	-2.996600	3.697400	-11.079000	24.952182	0.000502	20.827079
794.203184	-2.989900	3.697300	-11.053000	24.991128	0.000501	20.855738
795.206872	-3.005900	3.696500	-11.111000	24.942888	0.000502	20.867535
796.199332	-2.979600	3.695500	-11.010000	24.956790	0.000501	20.842610
797.197255	-3.008300	3.695900	-11.117000	24.935035	0.000501	20.821723
798.200549	-3.010000	3.695900	-11.123000	24.945134	0.000501	20.832333
799.200565	-2.966400	3.696400	-10.963000	24.911779	0.000500	20.832994
800.203156	-2.987000	3.696700	-11.041000	24.921846	0.000498	20.852106
801.203001	-2.979300	3.695300	-11.008000	24.945946	0.000499	20.858751
802.198608	-2.998400	3.694700	-11.077000	24.980554	0.000500	20.838961
803.201389	-2.980500	3.694900	-11.011000	25.006688	0.000500	20.831529
804.208270	-2.999100	3.693600	-11.077000	25.067151	0.000498	20.842908
805.203337	-2.981100	3.694300	-11.012000	25.036602	0.000498	20.835951
806.203707	-2.974000	3.694400	-10.986000	25.019506	0.000497	20.836334
807.208010	-2.981500	3.694700	-11.016000	25.037781	0.000496	20.830022
808.200074	-2.985100	3.694600	-11.028000	25.032039	0.000497	20.860767
809.205425	-2.997600	3.692800	-11.069000	25.000870	0.000498	20.823792
810.202436	-2.981400	3.694500	-11.015000	25.044107	0.000498	20.831631
811.201442	-2.975400	3.692800	-10.987000	25.061469	0.000499	20.827722
812.200745	-2.991400	3.692100	-11.044000	25.068106	0.000498	20.831540
813.202400	-3.020800	3.690400	-11.147000	25.068806	0.000498	20.834613
814.206677	-2.987100	3.693100	-11.030000	25.053950	0.000499	20.840088
815.204298	-2.988600	3.692300	-11.034000	25.041595	0.000498	20.820575
816.202757	-3.012200	3.690500	-11.115000	25.029394	0.000498	20.823501
817.205133	-3.014000	3.691100	-11.123000	25.063509	0.000499	20.810330
818.207242	-3.003200	3.690600	-11.082000	25.022088	0.000498	20.828021
819.206269	-2.988100	3.690500	-11.026000	25.014065	0.000497	20.825657
820.210666	-2.997000	3.691000	-11.061000	25.010188	0.000496	20.829352
821.208413	-3.005500	3.690300	-11.091000	25.020654	0.000497	20.814727
822.210729	-3.005100	3.691400	-11.093000	25.092501	0.000495	20.811932
823.209647	-3.006400	3.689100	-11.091000	25.086010	0.000498	20.813003
824.207911	-2.999000	3.691000	-11.068000	25.074957	0.000498	20.812339
825.211769	-3.003800	3.690100	-11.084000	25.083883	0.000497	20.802807
826.208231	-3.001000	3.690100	-11.073000	25.048530	0.000495	20.835123
827.209118	-2.986500	3.689100	-11.016000	25.036746	0.000497	20.814285
828.208697	-3.002700	3.689000	-11.075000	25.043359	0.000499	20.826613
829.210533	-2.980600	3.689300	-10.996000	25.047211	0.000497	20.802979
830.212069	-3.020700	3.688800	-11.142000	25.045819	0.000496	20.826237
831.211323	-2.994400	3.688400	-11.043000	25.029832	0.000496	20.781740
832.212180	-2.996300	3.687700	-11.048000	24.996962	0.000495	20.840257
833.211634	-3.005000	3.688800	-11.084000	24.975907	0.000495	20.825763
834.213764	-3.019300	3.685400	-11.126000	25.016378	0.000494	20.812806
835.211484	-3.021800	3.686200	-11.138000	25.081784	0.000496	20.812553
836.215673	-2.993700	3.686700	-11.036000	25.102909	0.000495	20.803889
837.213593	-3.012200	3.686700	-11.104000	25.104179	0.000496	20.817966
838.220823	-2.993400	3.686300	-11.033000	25.064405	0.000495	20.815022
839.218785	-2.974100	3.686900	-10.963000	25.082046	0.000495	20.818506
840.218719	-2.996000	3.686300	-11.044000	25.080157	0.000493	20.805704
841.217812	-3.004600	3.686600	-11.076000	25.110876	0.000494	20.808567
842.222847	-3.001000	3.684900	-11.058000	25.124794	0.000494	20.804995
843.217370	-2.995800	3.685000	-11.039000	25.118849	0.000495	20.808036
844.218387	-3.006600	3.685200	-11.079000	25.120095	0.000491	20.822089
845.220969	-2.993500	3.685900	-11.033000	25.119290	0.000493	20.795203
846.215554	-2.991700	3.683500	-11.019000	25.073491	0.000491	20.820824
847.221696	-3.003500	3.683400	-11.062000	25.061315	0.000492	20.792006
848.215195	-3.005500	3.684100	-11.072000	25.107947	0.000492	20.816058
849.224994	-2.991600	3.682900	-11.017000	25.129496	0.000493	20.797387
850.215559	-3.002900	3.682800	-11.058000	25.126287	0.000490	20.788951
851.219619	-3.018100	3.682900	-11.113000	25.172795	0.000490	20.801500
852.223267	-3.006300	3.682900	-11.070000	25.206475	0.000489	20.802122
853.219832	-3.009900	3.681800	-11.081000	25.193642	0.000491	20.798248
854.217978	-2.991000	3.684200	-11.018000	25.190532	0.000490	20.795599
855.219061	-2.983200	3.682300	-10.984000	25.169278	0.000488	20.812669
856.222806	-2.998000	3.681500	-11.036000	25.174897	0.000489	20.808352
857.223977	-3.007700	3.680900	-11.069000	25.168204	0.000486	20.808746
858.225114	-3.025600	3.680900	-11.136000	25.173123	0.000489	20.804201
859.217113	-2.991400	3.680100	-11.007000	25.180152	0.000489	20.808886
860.225737	-3.000300	3.679200	-11.038000	25.210582	0.000485	20.804822
861.220940	-3.001300	3.679300	-11.042000	25.199264	0.000485	20.792512
862.226619	-3.017400	3.678600	-11.098000	25.254398	0.000486	20.805665
863.217923	-3.003700	3.679400	-11.050000	25.217008	0.000485	20.814119
864.220130	-3.005500	3.680400	-11.060000	25.199215	0.000487	20.803842
865.222840	-3.019300	3.678600	-11.106000	25.207562	0.000486	20.810800
866.217299	-3.007200	3.679300	-11.063000	25.179438	0.000485	20.814333
867.221578	-3.004100	3.679400	-11.052000	25.181051	0.000485	20.802676
868.227198	-3.010400	3.679000	-11.074000	25.142696	0.000485	20.790724
869.219749	-3.013300	3.678400	-11.082000	25.127361	0.000481	20.794770
870.221354	-3.005400	3.677500	-11.051000	25.091034	0.000484	20.810934
871.222536	-2.989300	3.678800	-10.996000	25.137224	0.000484	20.799456
872.223079	-2.996700	3.678300	-11.022000	25.157656	0.000485	20.811906
873.219759	-2.998700	3.677200	-11.026000	25.159318	0.000482	20.807411
874.221169	-3.018300	3.677100	-11.098000	25.141346	0.000484	20.789368
875.223710	-3.015000	3.676600	-11.084000	25.111834	0.000479	20.806210
876.222572	-2.995000	3.677000	-11.012000	25.105008	0.000483	20.807892
877.221619	-2.998900	3.677200	-11.027000	25.133659	0.000480	20.793980
878.222314	-3.004100	3.675900	-11.042000	25.152128	0.000481	20.800193
879.222509	-3.005500	3.676900	-11.050000	25.072466	0.000480	20.796561
880.227705	-3.005300	3.674900	-11.043000	25.087028	0.000480	20.791739
881.228082	-3.004000	3.674900	-11.039000	25.065951	0.000480	20.803298
882.226842	-2.997900	3.675400	-11.018000	25.093126	0.000478	20.795964
883.230754	-3.010900	3.674300	-11.061000	25.124968	0.000481	20.792368
884.227041	-3.028500	3.674100	-11.125000	25.112191	0.000480	20.803723
885.226926	-3.009000	3.674500	-11.056000	25.122330	0.000479	20.793987
886.224140	-3.011400	3.673800	-11.062000	25.102482	0.000479	20.812943
887.227515	-3.002600	3.673300	-11.028000	25.096586	0.000478	20.798964
888.227572	-2.999600	3.674500	-11.021000	25.110333	0.000480	20.802806
889.224876	-3.017300	3.671300	-11.076000	25.098777	0.000480	20.782196
890.230604	-3.016300	3.673100	-11.077000	25.087734	0.000480	20.785810
891.230469	-2.999200	3.674200	-11.019000	25.099029	0.000479	20.797148
892.226711	-3.013100	3.673500	-11.068000	25.084257	0.000477	20.792751
893.228773	-3.021300	3.671900	-11.093000	25.074369	0.000478	20.797524
894.226559	-3.006100	3.673300	-11.041000	25.072829	0.000477	20.800720
895.226481	-3.009400	3.672500	-11.051000	25.080485	0.000477	20.802715
896.227014	-2.987700	3.672600	-10.972000	25.088735	0.000478	20.781599
897.226564	-3.035700	3.670300	-11.141000	25.150358	0.000478	20.785140
898.230917	-2.976100	3.672700	-10.930000	25.170324	0.000477	20.791908
899.228315	-2.974600	3.672000	-10.922000	25.176188	0.000475	20.780251
900.235857	-2.999000	3.672100	-11.012000	25.192467	0.000475	20.792326
901.235530	-2.999800	3.669400	-11.006000	25.144218	0.000475	20.786088
902.228121	-2.982600	3.670000	-10.945000	25.187124	0.000475	20.809722
903.233269	-2.990200	3.670700	-10.975000	25.196546	0.000472	20.781248
904.233042	-3.008500	3.669200	-11.038000	25.168355	0.000475	20.764800
905.233095	-3.013900	3.669500	-11.058000	25.122761	0.000473	20.795841
906.233057	-3.003800	3.668800	-11.019000	25.158608	0.000474	20.786309
907.230180	-3.006700	3.669000	-11.030000	25.188559	0.000475	20.777497
908.233918	-3.003500	3.670100	-11.022000	25.190920	0.000475	20.760427
909.232853	-2.996700	3.668900	-10.993000	25.160651	0.000475	20.781248
910.235043	-2.996000	3.667800	-10.988000	25.172126	0.000473	20.784233
911.232658	-3.009200	3.667400	-11.034000	25.125521	0.000471	20.776327
912.232865	-3.022200	3.667700	-11.082000	25.147622	0.000473	20.789031
913.231098	-3.036300	3.666200	-11.131000	25.199568	0.000473	20.770058
914.234235	-2.990300	3.666800	-10.963000	25.190724	0.000470	20.754066
915.236639	-2.990700	3.667100	-10.966000	25.216001	0.000473	20.782762
916.234363	-2.988000	3.668100	-10.959000	25.184112	0.000472	20.784887
917.240499	-2.990400	3.665600	-10.960000	25.193908	0.000471	20.782867
918.236891	-3.005700	3.666400	-11.019000	25.200789	0.000472	20.756584
919.239381	-2.998600	3.666100	-10.992000	25.168323	0.000470	20.788476
920.239847	-2.991300	3.666900	-10.968000	25.190994	0.000471	20.797011
921.237367	-3.009500	3.666400	-11.033000	25.214909	0.000470	20.775028
922.234766	-3.014700	3.666000	-11.051000	25.215308	0.000472	20.783015
923.239097	-3.001500	3.665600	-11.002000	25.218191	0.000470	20.775477
924.236819	-2.976000	3.664900	-10.905000	25.249133	0.000468	20.783784
925.242262	-3.003000	3.664100	-11.002000	25.268325	0.000468	20.764171
926.246937	-3.003600	3.664900	-11.007000	25.268129	0.000469	20.768716
927.241972	-2.983300	3.664300	-10.931000	25.298581	0.000469	20.772264
928.241806	-2.976000	3.663700	-10.902000	25.265351	0.000467	20.772566
929.246754	-2.966500	3.664600	-10.871000	25.236543	0.000467	20.757866
930.249212	-2.991700	3.665000	-10.964000	25.219160	0.000468	20.760329
931.240303	-2.990100	3.662800	-10.951000	25.226324	0.000466	20.746658
932.245309	-2.997000	3.662400	-10.974000	25.245485	0.000467	20.760206
933.243661	-3.000700	3.662300	-10.989000	25.233587	0.000467	20.751579
934.242284	-2.996800	3.663100	-10.976000	25.223963	0.000463	20.761358
935.243445	-3.003900	3.662600	-11.001000	25.279169	0.000465	20.757989
936.244923	-2.998200	3.661300	-10.977000	25.252926	0.000464	20.766728
937.246526	-3.013900	3.661000	-11.033000	25.239279	0.000462	20.765829
938.246533	-3.014300	3.660000	-11.032000	25.234923	0.000463	20.766198
939.249269	-3.002700	3.661200	-10.993000	25.266597	0.000462	20.777609
940.244911	-3.011900	3.660600	-11.025000	25.268087	0.000463	20.776735
941.245050	-2.996000	3.660400	-10.966000	25.312356	0.000462	20.780879
942.243052	-3.013600	3.658800	-11.025000	25.280642	0.000461	20.751407
943.247480	-2.999500	3.659000	-10.974000	25.320563	0.000461	20.755453
944.246958	-3.015600	3.658000	-11.030000	25.316785	0.000462	20.763040
945.246767	-2.992700	3.660700	-10.954000	25.309603	0.000459	20.772425
946.247776	-3.024400	3.657900	-11.062000	25.346885	0.000461	20.760546
947.248358	-3.028800	3.658100	-11.078000	25.322158	0.000459	20.776496
948.246363	-3.015400	3.657600	-11.029000	25.328451	0.000458	20.741088
949.246518	-3.028700	3.658500	-11.080000	25.348194	0.000459	20.754748
950.251328	-3.029200	3.657100	-11.078000	25.323613	0.000460	20.749507
951.244242	-3.006500	3.658200	-10.998000	25.363728	0.000458	20.735731
952.246742	-3.015200	3.656700	-11.024000	25.382103	0.000459	20.750389
953.250807	-3.025200	3.656400	-11.060000	25.397066	0.000460	20.740758
954.247118	-3.029400	3.655800	-11.073000	25.368335	0.000458	20.729925
955.243081	-3.005200	3.656700	-10.987000	25.337249	0.000459	20.745180
956.251837	-3.015900	3.654800	-11.022000	25.319010	0.000459	20.761955
957.243578	-3.003200	3.655400	-10.976000	25.289983	0.000457	20.756518
958.246315	-3.013600	3.654900	-11.014000	25.260402	0.000456	20.763328
959.253055	-3.031100	3.653900	-11.075000	25.258226	0.000455	20.745496
960.248158	-3.027000	3.654300	-11.061000	25.267874	0.000456	20.748071
961.248307	-3.022200	3.654400	-11.044000	25.229865	0.000455	20.748791
962.249955	-3.015500	3.653900	-11.018000	25.247094	0.000454	20.729104
963.250740	-3.025700	3.653400	-11.053000	25.283109	0.000454	20.751513
964.246055	-3.005900	3.654200	-10.983000	25.304066	0.000456	20.749321
965.248016	-3.011400	3.654300	-11.004000	25.325618	0.000455	20.744882
966.248181	-3.016900	3.653100	-11.020000	25.286673	0.000456	20.763153
967.249729	-2.977700	3.653400	-10.878000	25.254868	0.000455	20.738805
968.251477	-2.976400	3.653000	-10.871000	25.274678	0.000454	20.735461
969.252417	-3.000700	3.652600	-10.959000	25.266674	0.000454	20.742124
970.250742	-3.005500	3.651800	-10.974000	25.237530	0.000455	20.749848
971.246129	-3.023400	3.651900	-11.040000	25.219153	0.000456	20.714327
972.247073	-3.021400	3.651000	-11.030000	25.228060	0.000454	20.741289
973.249758	-2.982000	3.653100	-10.893000	25.206507	0.000453	20.743357
974.249631	-2.981300	3.653600	-10.892000	25.212125	0.000453	20.725764
975.255403	-2.972300	3.652800	-10.857000	25.263879	0.000454	20.743112
976.252011	-2.990000	3.651100	-10.916000	25.284708	0.000454	20.739367
977.254851	-2.990100	3.651200	-10.917000	25.295398	0.000452	20.731608
978.252345	-2.988700	3.649900	-10.908000	25.300519	0.000452	20.740544
979.256527	-3.004400	3.650600	-10.967000	25.267640	0.000451	20.734085
980.253300	-3.008900	3.649800	-10.981000	25.290553	0.000452	20.725321
981.251194	-3.010600	3.649600	-10.986000	25.307131	0.000452	20.746708
982.252764	-3.004600	3.648900	-10.962000	25.291106	0.000451	20.748637
983.251750	-3.007300	3.648900	-10.973000	25.264904	0.000449	20.751253
984.252177	-3.010200	3.648400	-10.981000	25.213776	0.000450	20.723628
985.256017	-3.006200	3.648000	-10.966000	25.206251	0.000449	20.721289
986.254764	-3.006400	3.646400	-10.961000	25.211447	0.000451	20.719392
987.256867	-2.994700	3.648000	-10.924000	25.276613	0.000448	20.720808
988.257946	-3.023000	3.647100	-11.024000	25.307593	0.000449	20.737689
989.257250	-2.986800	3.647300	-10.893000	25.360532	0.000449	20.736315
990.261199	-2.998900	3.647900	-10.939000	25.379249	0.000449	20.728556
991.257599	-3.003900	3.646300	-10.952000	25.330823	0.000447	20.732090
992.259771	-3.012200	3.646100	-10.982000	25.364659	0.000450	20.733822
993.259818	-3.026700	3.645100	-11.032000	25.316597	0.000447	20.724443
994.259421	-3.014700	3.644600	-10.986000	25.339208	0.000446	20.743828
995.262086	-3.014000	3.644900	-10.985000	25.333419	0.000447	20.740386
996.262170	-3.010600	3.645200	-10.974000	25.294573	0.000449	20.734573
997.271006	-2.992500	3.645500	-10.908000	25.295566	0.000446	20.717552
998.271342	-3.001900	3.644800	-10.941000	25.315555	0.000444	20.748054
999.265498	-2.996300	3.645000	-10.920000	25.341356	0.000445	20.716586
1000.266717	-2.993900	3.645100	-10.913000	25.355344	0.000445	20.723045
1001.262949	-2.973300	3.643900	-10.833000	25.389075	0.000446	20.734630
1002.260181	-2.977800	3.644200	-10.851000	25.357331	0.000445	20.722670
1003.265255	-2.973300	3.642800	-10.830000	25.357160	0.000447	20.730084
1004.261489	-2.994800	3.643200	-10.910000	25.366255	0.000447	20.734949
1005.262604	-2.968100	3.645000	-10.818000	25.365831	0.000445	20.739266
1006.260852	-2.992500	3.642000	-10.897000	25.345753	0.000445	20.732382
1007.263340	-2.999500	3.643000	-10.926000	25.328060	0.000443	20.723151
1008.267474	-3.014400	3.641900	-10.978000	25.336357	0.000443	20.724370
1009.262121	-2.985600	3.641900	-10.872000	25.340209	0.000444	20.729185
1010.266778	-2.992600	3.642100	-10.898000	25.371253	0.000444	20.727640
1011.270833	-3.004400	3.641000	-10.938000	25.373117	0.000443	20.714812
1012.265714	-2.991700	3.642000	-10.895000	25.395157	0.000443	20.721770
1013.266498	-3.012700	3.641200	-10.969000	25.379973	0.000443	20.733077
1014.263026	-3.007900	3.640700	-10.950000	25.358895	0.000442	20.722343
1015.261587	-3.000500	3.640300	-10.922000	25.349506	0.000440	20.729512
1016.265410	-2.981600	3.640100	-10.852000	25.321540	0.000442	20.702378
1017.263900	-3.005900	3.639500	-10.939000	25.359196	0.000440	20.738293
1018.265148	-3.018400	3.639000	-10.983000	25.363096	0.000442	20.730355
1019.269031	-3.017900	3.637300	-10.976000	25.395794	0.000442	20.730945
1020.272680	-2.990700	3.637800	-10.878000	25.407029	0.000442	20.733691
1021.268293	-2.990500	3.637500	-10.877000	25.400719	0.000439	20.737313
1022.263651	-2.990400	3.638500	-10.880000	25.415805	0.000442	20.724960
1023.268566	-2.989400	3.636900	-10.871000	25.407900	0.000441	20.716073
1024.267399	-2.998600	3.637800	-10.908000	25.383793	0.000440	20.754931
1025.267128	-2.984300	3.637300	-10.854000	25.387766	0.000438	20.728100
1026.264150	-2.998000	3.636300	-10.901000	25.361574	0.000439	20.716498
1027.271641	-2.999700	3.636900	-10.909000	25.360875	0.000438	20.735711
1028.269394	-3.017500	3.635900	-10.970000	25.349363	0.000439	20.725574
1029.272674	-2.975400	3.636200	-10.818000	25.328081	0.000435	20.733604
1030.276132	-2.968700	3.635100	-10.789000	25.330774	0.000437	20.732041
1031.273447	-3.006500	3.634100	-10.925000	25.335115	0.000435	20.723122
1032.276721	-2.996800	3.634900	-10.892000	25.342923	0.000436	20.730962
1033.270854	-3.005300	3.634900	-10.923000	25.389966	0.000435	20.715609
1034.276569	-3.007400	3.633600	-10.927000	25.363848	0.000436	20.734429
1035.272284	-3.004500	3.634000	-10.917000	25.355348	0.000434	20.735851
1036.275053	-2.987600	3.634400	-10.858000	25.353410	0.000433	20.736276
1037.275010	-2.994000	3.633800	-10.877000	25.348485	0.000434	20.729908
1038.274966	-2.994600	3.633400	-10.879000	25.316282	0.000432	20.737878
1039.274900	-2.994600	3.632700	-10.877000	25.307505	0.000431	20.731436
1040.278211	-3.006100	3.631300	-10.915000	25.281133	0.000433	20.727242
1041.275050	-3.007800	3.632900	-10.925000	25.304021	0.000431	20.743586
1042.273108	-2.981100	3.632600	-10.828000	25.334797	0.000433	20.713793
1043.274283	-3.013700	3.631300	-10.942000	25.366412	0.000431	20.739375
1044.271399	-2.999800	3.631300	-10.891000	25.346480	0.000430	20.734060
1045.282454	-2.988300	3.632800	-10.854000	25.335448	0.000430	20.724879
1046.275482	-3.020800	3.629000	-10.962000	25.318895	0.000431	20.731493
1047.275990	-3.018300	3.630600	-10.956000	25.371785	0.000430	20.749037
1048.272481	-3.019700	3.629800	-10.960000	25.386839	0.000428	20.739023
1049.276264	-3.019300	3.629100	-10.956000	25.431429	0.000431	20.731166
1050.275432	-3.007000	3.628800	-10.911000	25.445822	0.000427	20.741352
1051.278161	-2.975100	3.629200	-10.795000	25.391397	0.000427	20.746919
1052.277341	-2.982500	3.629800	-10.825000	25.393122	0.000429	20.745332
1053.274336	-3.000800	3.628600	-10.887000	25.400995	0.000427	20.743755
1054.277111	-2.988600	3.628400	-10.843000	25.396647	0.000427	20.752191
1055.274664	-3.001800	3.628200	-10.890000	25.390736	0.000428	20.721598
1056.279707	-3.005000	3.627000	-10.897000	25.397127	0.000426	20.734180
1057.278726	-3.001100	3.627500	-10.885000	25.383083	0.000427	20.727190
1058.277334	-2.995800	3.626500	-10.864000	25.378385	0.000427	20.743811
1059.275730	-2.992200	3.628300	-10.856000	25.365838	0.000425	20.744015
1060.279438	-3.005300	3.627200	-10.900000	25.341951	0.000423	20.737099
1061.279185	-3.007900	3.625600	-10.904000	25.378238	0.000426	20.755518
1062.282610	-3.004200	3.626200	-10.893000	25.379564	0.000424	20.733140
1063.281580	-3.024700	3.625700	-10.965000	25.411024	0.000424	20.758567
1064.278546	-3.028100	3.623400	-10.971000	25.412717	0.000423	20.752206
1065.284258	-2.995100	3.625800	-10.858000	25.423560	0.000423	20.744127
1066.278424	-3.012600	3.624100	-10.917000	25.413325	0.000422	20.743334
1067.281315	-2.976800	3.626200	-10.794000	25.409044	0.000422	20.745673
1068.284236	-2.996300	3.624100	-10.857000	25.433077	0.000422	20.757004
1069.281842	-2.974400	3.626900	-10.786000	25.483950	0.000423	20.765890
1070.280784	-2.998000	3.623900	-10.863000	25.488843	0.000420	20.746147
1071.288723	-3.000500	3.624500	-10.875000	25.520950	0.000421	20.742354
1072.284920	-3.000400	3.623000	-10.870000	25.505344	0.000419	20.745174
1073.280097	-3.000000	3.624000	-10.871000	25.432287	0.000420	20.749097
1074.281669	-3.010200	3.622400	-10.903000	25.363142	0.000422	20.750790
1075.280221	-2.995100	3.622900	-10.851000	25.417299	0.000418	20.753962
1076.284020	-3.001500	3.621900	-10.871000	25.464811	0.000420	20.740980
1077.287049	-3.012400	3.622100	-10.910000	25.470183	0.000421	20.751117
1078.284476	-2.998100	3.621000	-10.856000	25.409481	0.000419	20.763656
1079.282105	-2.992500	3.621500	-10.834000	25.404410	0.000419	20.761408
1080.286670	-2.990700	3.620600	-10.827000	25.441363	0.000417	20.760109
1081.286395	-2.986400	3.620900	-10.812000	25.455511	0.000418	20.764833
1082.281239	-3.017300	3.620700	-10.924000	25.487318	0.000417	20.746987
1083.283296	-2.993300	3.619300	-10.833000	25.527598	0.000418	20.733383
1084.285903	-2.993900	3.620700	-10.840000	25.513514	0.000418	20.749586
1085.285585	-2.982500	3.620200	-10.796000	25.455088	0.000418	20.753976
1086.287466	-2.991200	3.620000	-10.827000	25.375734	0.000419	20.735933
1087.286750	-3.008600	3.618800	-10.887000	25.394354	0.000417	20.758897
1088.288170	-3.010700	3.618400	-10.892000	25.448607	0.000417	20.746520
1089.289056	-2.979000	3.618500	-10.778000	25.416921	0.000417	20.748367
1090.285728	-3.013100	3.617900	-10.900000	25.411010	0.000415	20.754286
1091.284461	-3.023600	3.616700	-10.935000	25.361404	0.000417	20.765641
1092.288272	-2.995700	3.617400	-10.835000	25.416523	0.000415	20.765037
1093.288916	-2.992900	3.617600	-10.826000	25.503533	0.000416	20.747623
1094.284493	-2.995200	3.615500	-10.829000	25.501319	0.000417	20.743028
1095.295835	-2.995300	3.616200	-10.831000	25.500602	0.000412	20.764594
1096.289182	-3.001700	3.615600	-10.852000	25.480844	0.000414	20.759452
1097.285587	-3.024800	3.614700	-10.932000	25.438919	0.000412	20.746274
1098.288177	-3.017900	3.615700	-10.911000	25.402339	0.000413	20.750794
1099.287762	-3.033100	3.615400	-10.965000	25.414186	0.000414	20.762216
1100.291053	-3.026500	3.613500	-10.936000	25.468022	0.000413	20.782613
1101.286455	-3.015200	3.613700	-10.895000	25.456641	0.000411	20.766442
1102.286762	-2.995800	3.614700	-10.828000	25.429475	0.000413	20.761447
1103.306952	-3.008500	3.613000	-10.869000	25.397390	0.000410	20.744402
1104.292018	-3.014600	3.613500	-10.892000	25.358000	0.000411	20.746102
1105.292493	-2.975200	3.615700	-10.757000	25.397463	0.000412	20.753959
1106.296197	-3.005300	3.613200	-10.858000	25.404595	0.000411	20.745947
1107.292564	-2.996900	3.612600	-10.825000	25.418159	0.000412	20.770000
1108.292905	-2.997000	3.612200	-10.825000	25.416767	0.000411	20.777611
1109.291051	-2.988200	3.613100	-10.796000	25.429590	0.000411	20.776736
1110.294863	-2.989200	3.611900	-10.795000	25.422084	0.000410	20.782001
1111.289965	-3.004500	3.611300	-10.849000	25.447404	0.000411	20.771390
1112.290454	-2.990200	3.611800	-10.799000	25.496485	0.000409	20.773263
1113.298241	-2.997300	3.612000	-10.825000	25.495614	0.000409	20.781871
1114.295255	-2.994900	3.610800	-10.813000	25.500654	0.000409	20.773182
1115.305894	-3.001800	3.610500	-10.837000	25.519988	0.000410	20.767467
1116.292080	-2.992500	3.609900	-10.801000	25.516081	0.000408	20.774450
1117.292702	-2.996300	3.609500	-10.815000	25.447267	0.000409	20.776943
1118.293893	-3.011500	3.609200	-10.868000	25.408817	0.000409	20.775317
1119.296527	-3.015000	3.608700	-10.879000	25.412139	0.000408	20.761109
1120.293476	-2.973400	3.609000	-10.730000	25.411636	0.000407	20.769613
1121.293917	-2.999900	3.607300	-10.821000	25.427365	0.000406	20.775450
1122.292841	-3.006500	3.607200	-10.844000	25.464139	0.000406	20.775868
1123.295338	-2.997700	3.607800	-10.814000	25.483946	0.000405	20.772524
1124.295425	-3.012400	3.606000	-10.861000	25.445626	0.000404	20.770554
1125.296609	-3.001700	3.607600	-10.827000	25.439928	0.000403	20.771945
1126.297726	-3.006200	3.607700	-10.845000	25.459354	0.000403	20.782443
1127.296309	-3.001600	3.605100	-10.820000	25.466185	0.000402	20.779345
1128.301598	-3.006100	3.606600	-10.841000	25.461187	0.000401	20.794241
1129.299659	-3.013900	3.605400	-10.865000	25.422646	0.000402	20.783514
1130.297974	-2.997200	3.606400	-10.808000	25.379490	0.000401	20.790914
1131.301385	-2.991100	3.605800	-10.785000	25.385360	0.000400	20.774523
1132.300069	-3.030500	3.605300	-10.925000	25.442691	0.000402	20.776142
1133.301554	-3.002400	3.605700	-10.825000	25.491944	0.000400	20.785298
1134.309739	-3.025000	3.603800	-10.901000	25.521421	0.000401	20.790244
1135.299348	-3.009600	3.603500	-10.844000	25.516692	0.000401	20.803987
1136.301530	-3.020300	3.603900	-10.883000	25.515626	0.000399	20.789165
1137.301854	-2.984600	3.603200	-10.754000	25.479343	0.000397	20.780230
1138.302673	-2.992400	3.603300	-10.781000	25.469647	0.000398	20.784719
1139.300084	-2.992200	3.603000	-10.780000	25.413464	0.000397	20.783303
1140.303381	-3.004600	3.602100	-10.821000	25.409215	0.000397	20.787571
1141.302713	-2.981100	3.602300	-10.738000	25.433646	0.000397	20.787922
1142.298337	-2.999600	3.601700	-10.803000	25.390750	0.000396	20.795108
1143.297519	-2.995900	3.602900	-10.793000	25.428477	0.000396	20.777515
1144.302907	-3.017500	3.600300	-10.863000	25.456930	0.000396	20.793285
1145.302538	-3.001500	3.600400	-10.806000	25.445997	0.000394	20.803643
1146.302765	-2.985600	3.600400	-10.748000	25.468245	0.000395	20.807018
1147.306951	-2.998200	3.602400	-10.800000	25.526744	0.000394	20.782787
1148.303230	-2.989800	3.600400	-10.764000	25.586195	0.000396	20.794602
1149.306248	-3.001700	3.599700	-10.805000	25.560591	0.000393	20.774105
1150.303197	-2.987500	3.599300	-10.752000	25.544490	0.000394	20.801082
1151.302406	-2.975700	3.600600	-10.713000	25.536782	0.000393	20.790497
1152.305459	-2.994600	3.599200	-10.778000	25.529829	0.000392	20.785885
1153.302321	-2.998200	3.598600	-10.789000	25.513125	0.000391	20.801353
1154.303486	-2.994100	3.598100	-10.772000	25.553558	0.000393	20.786482
1155.302890	-2.998600	3.598200	-10.788000	25.579452	0.000392	20.816280
1156.306070	-3.000500	3.598100	-10.795000	25.602261	0.000391	20.794142
1157.306113	-3.012200	3.596800	-10.833000	25.574657	0.000391	20.815258
1158.306281	-3.018200	3.595900	-10.852000	25.596627	0.000389	20.799390
1159.307642	-3.020800	3.596300	-10.863000	25.590930	0.000389	20.810263
1160.311302	-2.989500	3.596900	-10.752000	25.587601	0.000390	20.792221
1161.308609	-3.008400	3.596200	-10.818000	25.549855	0.000389	20.801729
1162.309372	-3.002500	3.596200	-10.797000	25.529871	0.000389	20.817221
1163.311124	-2.998300	3.595300	-10.778000	25.489314	0.000389	20.808261
1164.311162	-2.987800	3.596200	-10.744000	25.491504	0.000387	20.799080
1165.309257	-3.004600	3.595000	-10.800000	25.488524	0.000389	20.792295
1166.312287	-2.984700	3.595900	-10.732000	25.519018	0.000389	20.797314
1167.310036	-3.018900	3.594300	-10.850000	25.570849	0.000388	20.792467
1168.314436	-2.978200	3.594900	-10.705000	25.584817	0.000389	20.804124
1169.317127	-3.003100	3.593700	-10.791000	25.611070	0.000390	20.790187
1170.312927	-2.985500	3.594600	-10.731000	25.613315	0.000387	20.817098
1171.310426	-3.009700	3.593800	-10.814000	25.580438	0.000386	20.815848
1172.313347	-3.016900	3.592700	-10.838000	25.605160	0.000385	20.825029
1173.315085	-2.993500	3.592800	-10.754000	25.604044	0.000387	20.815374
1174.309565	-3.014600	3.593000	-10.831000	25.556409	0.000385	20.815423
1175.316811	-2.997200	3.592100	-10.764000	25.525394	0.000388	20.797078
1176.313884	-2.982300	3.591300	-10.709000	25.547504	0.000386	20.815015
1177.310678	-3.008000	3.590300	-10.799000	25.509106	0.000387	20.802533
1178.314724	-2.978600	3.593300	-10.702000	25.508960	0.000386	20.827515
1179.315648	-2.995800	3.591700	-10.759000	25.529612	0.000386	20.802262
1180.313824	-3.004400	3.591500	-10.790000	25.536257	0.000385	20.818893
1181.318429	-2.986500	3.590900	-10.724000	25.482260	0.000386	20.810660
1182.314384	-3.005500	3.590800	-10.791000	25.478727	0.000385	20.820389
1183.317158	-3.013900	3.588900	-10.816000	25.522582	0.000385	20.847833
1184.315233	-2.979200	3.590500	-10.696000	25.562119	0.000386	20.827322
1185.314544	-2.998800	3.588500	-10.760000	25.546938	0.000385	20.828196
1186.319917	-3.024300	3.589500	-10.854000	25.574989	0.000383	20.813220
1187.317813	-3.008900	3.588700	-10.797000	25.530853	0.000386	20.842863
1188.318849	-3.007600	3.588600	-10.792000	25.521508	0.000384	20.829211
1189.321415	-3.008300	3.587900	-10.793000	25.524236	0.000382	20.828158
1190.319623	-3.009300	3.587400	-10.795000	25.533354	0.000383	20.856279
1191.315571	-3.006900	3.587100	-10.785000	25.520476	0.000383	20.830546
1192.326334	-3.010100	3.587400	-10.797000	25.527632	0.000384	20.836783
1193.322273	-2.999900	3.585600	-10.756000	25.491692	0.000379	20.823925
1194.316956	-3.002400	3.586100	-10.766000	25.480434	0.000382	20.849602
1195.320933	-2.970400	3.586000	-10.650000	25.515513	0.000381	20.835045
1196.318647	-2.994600	3.586600	-10.740000	25.533798	0.000380	20.839656
1197.331827	-2.997800	3.585000	-10.746000	25.560262	0.000379	20.830672
1198.324395	-2.980500	3.585900	-10.687000	25.561182	0.000378	20.840604
1199.326088	-2.982400	3.584800	-10.690000	25.598375	0.000380	20.853775
1200.319620	-2.986200	3.584100	-10.702000	25.628639	0.000378	20.843867
1201.325162	-2.992800	3.583900	-10.725000	25.567337	0.000378	20.842044
1202.319499	-3.016100	3.582600	-10.804000	25.613500	0.000378	20.834827
1203.323318	-3.019000	3.581900	-10.813000	25.601054	0.000375	20.828491
1204.320958	-2.990200	3.582700	-10.712000	25.610122	0.000377	20.843288
1205.324164	-2.994600	3.582500	-10.727000	25.581837	0.000375	20.836692
1206.321626	-2.985300	3.582400	-10.694000	25.565686	0.000375	20.856033
1207.321326	-2.994900	3.582600	-10.729000	25.598669	0.000374	20.856914
1208.323310	-2.987000	3.582700	-10.700000	25.622470	0.000376	20.840991
1209.322365	-3.000700	3.582100	-10.748000	25.608957	0.000374	20.854920
1210.323721	-3.001400	3.580900	-10.746000	25.598392	0.000374	20.858533
1211.322767	-3.013200	3.581500	-10.791000	25.606338	0.000373	20.844229
1212.322958	-2.997000	3.580700	-10.731000	25.588894	0.000373	20.846150
1213.326644	-3.000100	3.580600	-10.741000	25.609471	0.000374	20.864444
1214.325838	-2.989300	3.581100	-10.704000	25.628975	0.000374	20.862695
1215.324354	-2.982000	3.579800	-10.673000	25.596749	0.000372	20.860676
1216.326334	-2.985300	3.579900	-10.686000	25.591531	0.000373	20.855910
1217.325422	-3.009800	3.579000	-10.770000	25.620819	0.000372	20.868729
1218.324858	-3.010100	3.579200	-10.773000	25.617882	0.000373	20.856296
1219.331997	-3.007100	3.577500	-10.757000	25.599249	0.000373	20.856549
1220.328318	-3.022300	3.577200	-10.811000	25.620494	0.000371	20.853230
1221.328826	-3.004700	3.577200	-10.747000	25.594196	0.000369	20.855267
1222.327311	-3.032600	3.577800	-10.849000	25.623939	0.000369	20.848629
1223.329084	-3.020500	3.576600	-10.802000	25.660860	0.000372	20.868167
1224.336607	-3.005700	3.576600	-10.750000	25.719433	0.000370	20.858245
1225.331001	-3.016900	3.576900	-10.790000	25.752232	0.000369	20.845198
1226.331964	-2.979200	3.576400	-10.654000	25.712132	0.000369	20.859921
1227.329006	-2.996700	3.576100	-10.715000	25.691053	0.000369	20.856767
1228.330147	-2.995900	3.576000	-10.712000	25.687447	0.000366	20.864999
1229.332220	-2.982600	3.575900	-10.665000	25.694473	0.000368	20.858779
1230.332358	-3.000200	3.575400	-10.726000	25.652873	0.000367	20.873895
1231.327756	-2.997600	3.574700	-10.715000	25.630758	0.000368	20.859271
1232.333377	-2.986800	3.573600	-10.672000	25.667410	0.000368	20.875693
1233.333889	-3.003900	3.573000	-10.731000	25.694189	0.000367	20.882201
1234.331495	-2.976900	3.574600	-10.640000	25.716621	0.000366	20.883869
1235.334133	-3.011900	3.572200	-10.758000	25.727699	0.000366	20.883616
1236.335197	-3.007300	3.573600	-10.745000	25.716209	0.000366	20.879662
1237.331707	-3.004400	3.573500	-10.736000	25.740511	0.000366	20.881787
1238.330808	-2.987100	3.572200	-10.669000	25.661944	0.000366	20.876842
1239.336289	-2.997200	3.573000	-10.708000	25.649590	0.000365	20.866804
1240.339163	-2.998200	3.573100	-10.712000	25.624194	0.000365	20.869748
1241.334866	-3.013300	3.572100	-10.764000	25.573678	0.000365	20.879230
1242.331168	-3.016000	3.570800	-10.769000	25.572849	0.000364	20.896888
1243.338842	-2.995000	3.570400	-10.692000	25.551400	0.000362	20.900003
1244.332529	-2.985600	3.570200	-10.659000	25.520679	0.000367	20.882904
1245.335398	-3.009100	3.569100	-10.739000	25.572314	0.000362	20.889713
1246.335954	-2.996800	3.571100	-10.700000	25.568009	0.000361	20.898665
1247.333230	-2.992700	3.568800	-10.680000	25.541048	0.000362	20.890556
1248.338931	-3.019000	3.567400	-10.769000	25.560846	0.000362	20.886258
1249.339545	-2.991500	3.569500	-10.677000	25.557216	0.000362	20.876449
1250.334750	-2.977700	3.569600	-10.628000	25.636151	0.000360	20.892660
1251.330965	-3.010900	3.568500	-10.742000	25.639449	0.000363	20.889808
1252.335051	-3.003500	3.568500	-10.716000	25.630031	0.000362	20.878928
1253.339373	-3.022600	3.567300	-10.781000	25.611318	0.000361	20.879100
1254.333953	-3.032100	3.566800	-10.813000	25.602334	0.000363	20.884302
1255.334383	-2.999800	3.568300	-10.703000	25.613885	0.000361	20.887842
1256.341931	-3.013300	3.565500	-10.742000	25.577354	0.000360	20.885292
1257.336127	-3.001000	3.566300	-10.702000	25.557217	0.000360	20.884983
1258.337204	-2.995600	3.565700	-10.680000	25.557168	0.000361	20.882090
1259.338367	-2.983800	3.566800	-10.642000	25.569013	0.000359	20.895407
1260.334375	-2.999300	3.565200	-10.692000	25.584887	0.000360	20.878160
1261.338161	-3.008500	3.564800	-10.724000	25.595298	0.000360	20.895253
1262.346967	-2.998900	3.564000	-10.686000	25.604709	0.000360	20.898066
1263.337964	-3.014900	3.564000	-10.744000	25.589937	0.000357	20.890343
1264.334981	-3.008700	3.564200	-10.723000	25.641814	0.000359	20.892658
1265.338950	-3.008900	3.563200	-10.720000	25.664817	0.000357	20.905803
1266.342906	-3.023600	3.562600	-10.771000	25.616387	0.000356	20.877553
1267.336132	-2.972900	3.563800	-10.594000	25.590120	0.000357	20.877725
1268.338804	-2.971300	3.564000	-10.589000	25.560092	0.000355	20.868432
1269.342050	-3.003600	3.562300	-10.699000	25.598230	0.000354	20.861689
1270.337660	-3.000800	3.562600	-10.690000	25.567192	0.000353	20.867976
1271.339296	-3.000800	3.562200	-10.689000	25.587389	0.000356	20.868345
1272.343243	-3.002600	3.562000	-10.694000	25.596856	0.000353	20.885438
1273.338949	-3.015100	3.562000	-10.739000	25.595929	0.000355	20.874551
1274.346478	-3.011000	3.561000	-10.721000	25.604518	0.000354	20.884124
1275.340893	-2.984800	3.561500	-10.629000	25.612324	0.000352	20.872998
1276.338983	-2.981400	3.561400	-10.616000	25.598650	0.000351	20.881550
1277.339289	-3.018000	3.560300	-10.745000	25.612464	0.000353	20.866975
1278.335638	-2.988700	3.560700	-10.641000	25.633807	0.000354	20.854747
1279.342215	-3.016500	3.559400	-10.736000	25.632611	0.000352	20.882467
1280.336294	-2.992100	3.559700	-10.650000	25.611733	0.000351	20.856285
1281.342768	-3.008200	3.559300	-10.706000	25.600476	0.000350	20.867264
1282.345931	-3.005300	3.559300	-10.696000	25.632303	0.000352	20.873624
1283.342713	-2.995800	3.558300	-10.659000	25.684975	0.000350	20.876265
1284.342053	-3.009000	3.556700	-10.701000	25.705396	0.000348	20.888241
1285.340062	-3.002300	3.557900	-10.681000	25.735031	0.000349	20.880076
1286.339290	-3.040500	3.555900	-10.811000	25.719233	0.000348	20.882699
1287.339570	-3.006300	3.557200	-10.693000	25.688720	0.000348	20.871967
1288.336441	-2.995200	3.558000	-10.657000	25.665207	0.000349	20.850722
1289.336666	-2.996200	3.556400	-10.655000	25.694378	0.000348	20.857736
1290.337981	-3.003500	3.556200	-10.681000	25.753931	0.000347	20.893369
1291.338554	-3.000900	3.556200	-10.670000	25.727650	0.000345	20.875981
1292.337867	-3.000400	3.555100	-10.665000	25.696511	0.000344	20.869361
1293.345450	-2.992600	3.555000	-10.638000	25.705897	0.000346	20.860297
1294.345897	-3.012200	3.554100	-10.704000	25.701484	0.000345	20.863450
1295.343006	-2.989800	3.554300	-10.626000	25.690993	0.000345	20.862871
1296.337339	-2.999500	3.554400	-10.661000	25.650890	0.000345	20.868585
1297.340850	-2.990200	3.554400	-10.627000	25.653754	0.000343	20.867194
1298.336660	-2.985100	3.552500	-10.603000	25.635678	0.000343	20.859945
1299.337106	-2.997300	3.552700	-10.649000	25.641197	0.000343	20.855531
1300.341542	-3.006900	3.551900	-10.679000	25.652908	0.000342	20.873930
1301.341242	-3.004000	3.553200	-10.673000	25.673079	0.000342	20.838241
1302.344220	-3.013000	3.551200	-10.698000	25.661032	0.000342	20.861227
1303.344165	-3.001300	3.551000	-10.657000	25.673005	0.000341	20.858554
1304.349172	-3.027800	3.551200	-10.751000	25.640787	0.000340	20.852275
1305.341980	-3.003500	3.551100	-10.665000	25.670351	0.000341	20.848303
1306.345151	-3.014900	3.551200	-10.706000	25.699001	0.000340	20.851474
1307.345698	-3.004700	3.549900	-10.666000	25.671928	0.000339	20.846567
1308.343491	-2.996300	3.551400	-10.640000	25.615325	0.000340	20.860366
1309.346674	-2.999000	3.550600	-10.647000	25.599990	0.000338	20.847337
1310.343497	-3.000500	3.550300	-10.652000	25.613104	0.000340	20.849128
1311.348356	-3.002300	3.551600	-10.663000	25.603026	0.000337	20.851807
1312.345195	-2.989200	3.548900	-10.607000	25.644270	0.000338	20.847238
1313.348823	-3.005400	3.549100	-10.666000	25.610016	0.000339	20.845078
1314.347843	-3.005500	3.548400	-10.664000	25.623627	0.000339	20.837411
1315.343937	-3.002300	3.548400	-10.652000	25.631862	0.000339	20.829087
1316.348957	-3.013100	3.546800	-10.686000	25.667171	0.000338	20.827566
1317.348480	-3.005900	3.547100	-10.662000	25.661531	0.000338	20.860306
1318.346465	-3.019200	3.546200	-10.706000	25.705662	0.000336	20.828767
1319.349786	-2.997900	3.548100	-10.636000	25.663272	0.000338	20.844038
1320.349668	-2.995500	3.547400	-10.625000	25.629865	0.000338	20.827556
1321.351056	-3.015900	3.546000	-10.692000	25.596209	0.000335	20.823152
1322.347766	-3.012000	3.545200	-10.678000	25.596461	0.000338	20.844266
1323.348949	-3.014100	3.546100	-10.687000	25.653788	0.000335	20.818867
1324.349845	-3.010300	3.544600	-10.670000	25.663328	0.000336	20.819439
1325.347913	-2.967900	3.545200	-10.521000	25.628792	0.000336	20.848762
1326.348425	-3.004400	3.544900	-10.650000	25.610907	0.000336	20.824637
1327.348921	-3.004900	3.544800	-10.651000	25.627645	0.000335	20.825800
1328.347896	-3.003000	3.543700	-10.640000	25.671647	0.000333	20.831114
1329.350127	-2.999400	3.544200	-10.629000	25.637835	0.000334	20.830344
1330.352925	-2.968900	3.544800	-10.523000	25.596779	0.000333	20.833207
1331.349338	-2.978300	3.544400	-10.555000	25.558708	0.000335	20.833379
1332.350091	-3.007100	3.542600	-10.651000	25.534059	0.000334	20.826643
1333.351147	-3.009200	3.543200	-10.661000	25.531422	0.000334	20.808822
1334.353374	-2.982900	3.542900	-10.567000	25.578366	0.000333	20.832733
1335.353586	-3.007800	3.541800	-10.651000	25.633653	0.000334	20.838946
1336.354730	-2.998400	3.541300	-10.616000	25.694252	0.000333	20.841489
1337.358454	-3.010500	3.541500	-10.661000	25.765379	0.000332	20.812886
1338.356795	-2.982200	3.540700	-10.558000	25.758029	0.000334	20.824469
1339.355668	-2.982000	3.541400	-10.559000	25.735283	0.000333	20.814898
1340.359886	-3.002200	3.539800	-10.627000	25.722041	0.000333	20.820089
1341.355400	-3.013400	3.539200	-10.664000	25.748329	0.000332	20.812830
1342.357645	-3.013500	3.538200	-10.661000	25.656373	0.000331	20.822885
1343.365701	-2.970000	3.540000	-10.513000	25.626778	0.000333	20.831567
1344.361841	-2.985900	3.538700	-10.565000	25.635147	0.000331	20.802989
1345.364433	-3.017200	3.538000	-10.674000	25.650082	0.000331	20.841222
1346.365182	-3.008500	3.538000	-10.643000	25.683171	0.000329	20.820402
1347.358458	-3.006600	3.538100	-10.637000	25.706523	0.000330	20.811141
1348.360619	-3.000200	3.537300	-10.612000	25.705383	0.000331	20.833229
1349.365361	-3.011300	3.536000	-10.647000	25.700631	0.000330	20.818499
1350.361718	-3.004200	3.535900	-10.622000	25.684874	0.000330	20.825432
1351.363183	-2.997300	3.536100	-10.598000	25.668424	0.000328	20.809385
1352.359271	-3.002000	3.535400	-10.612000	25.671177	0.000330	20.790812
1353.363049	-2.989400	3.536300	-10.570000	25.675719	0.000326	20.814815
1354.362205	-2.970600	3.538100	-10.509000	25.629430	0.000327	20.821903
1355.362927	-3.017900	3.536000	-10.670000	25.639711	0.000327	20.819901
1356.360989	-2.981100	3.535000	-10.536000	25.708359	0.000324	20.814408
1357.361326	-3.001800	3.534200	-10.608000	25.715213	0.000327	20.811809
1358.359036	-3.032200	3.533200	-10.712000	25.667435	0.000325	20.803176
1359.366124	-2.985100	3.533600	-10.547000	25.681413	0.000326	20.815318
1360.359806	-3.027600	3.532300	-10.694000	25.669887	0.000325	20.822233
1361.364873	-3.009800	3.533500	-10.634000	25.681364	0.000321	20.815743
1362.369402	-2.989900	3.533200	-10.563000	25.680297	0.000324	20.809456
1363.366158	-3.008400	3.532900	-10.628000	25.682951	0.000323	20.823501
1364.369311	-2.992600	3.532100	-10.570000	25.713213	0.000325	20.807904
1365.369542	-2.994800	3.531800	-10.576000	25.705132	0.000322	20.801684
1366.369525	-3.018900	3.530400	-10.657000	25.690750	0.000321	20.811894
1367.366911	-2.999900	3.529900	-10.588000	25.678818	0.000323	20.815557
1368.375261	-2.977000	3.530900	-10.510000	25.633204	0.000321	20.804831
1369.365305	-2.989700	3.530600	-10.554000	25.632333	0.000320	20.812017
1370.365508	-2.995200	3.531100	-10.574000	25.586954	0.000321	20.820021
1371.371406	-3.011500	3.529300	-10.627000	25.578456	0.000322	20.810538
1372.363242	-2.986100	3.530400	-10.541000	25.614068	0.000321	20.809793
1373.366478	-3.015500	3.528200	-10.638000	25.655686	0.000319	20.811290
1374.371752	-2.985500	3.528500	-10.533000	25.684109	0.000322	20.816129
1375.363803	-3.019600	3.528700	-10.653000	25.755244	0.000321	20.798438
1376.371113	-3.010000	3.527800	-10.618000	25.797053	0.000317	20.823839
1377.365433	-3.003800	3.527600	-10.595000	25.805598	0.000319	20.795439
1378.370034	-3.014800	3.526200	-10.630000	25.824192	0.000320	20.806530
1379.368569	-2.989600	3.527500	-10.545000	25.775867	0.000318	20.801610
1380.371660	-2.994900	3.527700	-10.563000	25.774542	0.000318	20.816400
1381.370409	-3.014900	3.525700	-10.629000	25.761472	0.000318	20.801849
1382.369405	-2.968900	3.526200	-10.468000	25.803140	0.000320	20.805298
1383.369178	-2.995300	3.526600	-10.562000	25.832472	0.000317	20.799675
1384.374909	-3.018800	3.524400	-10.639000	25.801969	0.000318	20.804121
1385.371611	-3.004600	3.525800	-10.593000	25.775927	0.000315	20.773695
1386.373476	-2.956900	3.525700	-10.423000	25.713959	0.000316	20.782574
1387.369257	-3.011700	3.523400	-10.611000	25.694432	0.000315	20.787618
1388.370681	-3.010600	3.523200	-10.606000	25.684176	0.000316	20.788696
1389.368668	-2.994400	3.523700	-10.550000	25.705168	0.000316	20.808357
1390.370215	-3.031400	3.522300	-10.676000	25.776123	0.000317	20.781004
1391.371357	-3.015400	3.522800	-10.622000	25.792938	0.000316	20.786989
1392.369633	-3.007400	3.522600	-10.592000	25.792221	0.000315	20.774889
1393.371355	-3.022300	3.522600	-10.645000	25.829976	0.000316	20.782469
1394.370804	-3.000900	3.522900	-10.571000	25.831294	0.000314	20.779051
1395.370739	-3.008000	3.520900	-10.590000	25.778746	0.000315	20.788380
1396.367579	-3.008600	3.520000	-10.588000	25.731142	0.000316	20.786557
1397.381078	-2.972000	3.521700	-10.466000	25.757700	0.000314	20.806595
1398.371320	-2.986100	3.521100	-10.514000	25.742367	0.000313	20.773650
1399.372404	-2.978000	3.521100	-10.485000	25.734783	0.000313	20.785472
1400.373322	-3.018900	3.519900	-10.626000	25.738161	0.000313	20.775589
1401.369245	-3.017300	3.519600	-10.619000	25.754676	0.000312	20.791229
1402.370316	-2.992500	3.519500	-10.531000	25.762333	0.000313	20.789438
1403.379544	-2.978300	3.519200	-10.480000	25.730129	0.000313	20.788384
1404.370481	-2.980000	3.519600	-10.488000	25.694563	0.000310	20.767834
1405.377662	-2.995500	3.519400	-10.542000	25.721293	0.000312	20.792786
1406.374672	-2.986300	3.517600	-10.503000	25.694802	0.000313	20.793204
1407.378270	-3.012000	3.517700	-10.594000	25.696487	0.000312	20.772137
1408.375168	-2.988700	3.518500	-10.515000	25.688805	0.000311	20.772482
1409.376882	-2.998100	3.516800	-10.543000	25.721070	0.000310	20.761267
1410.375158	-2.997200	3.516500	-10.539000	25.729242	0.000309	20.792235
1411.379605	-2.986700	3.515900	-10.500000	25.755377	0.000309	20.798097
1412.381271	-3.008500	3.515700	-10.577000	25.815042	0.000310	20.793072
1413.380817	-2.971700	3.517300	-10.451000	25.811959	0.000310	20.776224
1414.379289	-2.975800	3.515100	-10.460000	25.821619	0.000310	20.774074
1415.378464	-2.988000	3.515000	-10.502000	25.796865	0.000307	20.771967
1416.383654	-3.005100	3.514500	-10.560000	25.753504	0.000306	20.768715
1417.381795	-3.005100	3.513500	-10.558000	25.748483	0.000307	20.775051
1418.379668	-2.989300	3.514100	-10.503000	25.731979	0.000308	20.777914
1419.380618	-3.001000	3.513600	-10.543000	25.746385	0.000306	20.781479
1420.384466	-3.015100	3.513300	-10.592000	25.738354	0.000304	20.791430
1421.378918	-3.007800	3.512400	-10.563000	25.742050	0.000304	20.771909
1422.385310	-3.015200	3.511200	-10.586000	25.708429	0.000307	20.774649
1423.384519	-2.981800	3.512400	-10.472000	25.742981	0.000305	20.777111
1424.384022	-2.981100	3.512800	-10.471000	25.780542	0.000304	20.785917
1425.386094	-3.004100	3.512400	-10.550000	25.827566	0.000305	20.785264
1426.383781	-3.000500	3.511300	-10.535000	25.817825	0.000301	20.787807
1427.381905	-2.987100	3.512100	-10.490000	25.779909	0.000302	20.762048
1428.380047	-2.990400	3.511300	-10.499000	25.769371	0.000304	20.759048
1429.385480	-3.007800	3.509600	-10.555000	25.728407	0.000301	20.774327
1430.382513	-2.992500	3.510200	-10.504000	25.767011	0.000299	20.763316
1431.383030	-3.000200	3.508900	-10.527000	25.773797	0.000299	20.774875
1432.380827	-3.013200	3.507800	-10.569000	25.814085	0.000298	20.776463
1433.386527	-3.024500	3.508000	-10.609000	25.797882	0.000298	20.763980
1434.382514	-3.004300	3.509200	-10.542000	25.756864	0.000297	20.764029
1435.382373	-3.030500	3.508000	-10.631000	25.736296	0.000297	20.768975
1436.383980	-3.034400	3.506700	-10.639000	25.725439	0.000298	20.777984
1437.381286	-2.983100	3.507400	-10.462000	25.693013	0.000299	20.764381
1438.386826	-3.012300	3.505400	-10.558000	25.676368	0.000296	20.783698
1439.388300	-3.007400	3.506000	-10.543000	25.699573	0.000297	20.761486
1440.386010	-3.008900	3.505100	-10.546000	25.707028	0.000295	20.762336
1441.384141	-2.993600	3.507400	-10.499000	25.691572	0.000295	20.775262
1442.390064	-3.010600	3.505300	-10.551000	25.712375	0.000295	20.783828
1443.382397	-2.994300	3.506000	-10.497000	25.709358	0.000295	20.761831
1444.387143	-3.008400	3.505200	-10.545000	25.707476	0.000295	20.767053
1445.383573	-3.009900	3.504600	-10.547000	25.767906	0.000296	20.763267
1446.384789	-2.988400	3.505200	-10.474000	25.782312	0.000294	20.767780
1447.385611	-2.997300	3.503900	-10.502000	25.815875	0.000294	20.741276
1448.388733	-2.982200	3.503700	-10.447000	25.738289	0.000292	20.757226
1449.390917	-2.988100	3.505200	-10.473000	25.697618	0.000293	20.758574
1450.389237	-3.002900	3.502600	-10.516000	25.652225	0.000292	20.748069
1451.388998	-2.985600	3.503400	-10.459000	25.660796	0.000293	20.753833
1452.396977	-2.990700	3.502800	-10.476000	25.701702	0.000291	20.756512
1453.388503	-2.998900	3.502000	-10.500000	25.721179	0.000289	20.760903
1454.386814	-3.006300	3.500800	-10.524000	25.709941	0.000288	20.744398
1455.390607	-3.028700	3.500700	-10.602000	25.717133	0.000290	20.749252
1456.386677	-2.992300	3.501000	-10.474000	25.724956	0.000290	20.738142
1457.397813	-2.988500	3.500500	-10.461000	25.711094	0.000290	20.751721
1458.388753	-3.002400	3.499000	-10.504000	25.666401	0.000288	20.750927
1459.390288	-2.982900	3.500700	-10.442000	25.693358	0.000290	20.745760
1460.387830	-2.972400	3.499800	-10.401000	25.712787	0.000290	20.759585
1461.391287	-2.985000	3.499500	-10.446000	25.780591	0.000288	20.763206
1462.390728	-2.995400	3.499900	-10.482000	25.825899	0.000288	20.763674
1463.392591	-3.015000	3.497800	-10.544000	25.846625	0.000290	20.738026
1464.392014	-2.971700	3.499000	-10.397000	25.812321	0.000287	20.741974
1465.391310	-3.001500	3.498400	-10.498000	25.774915	0.000286	20.758928
1466.388079	-2.987300	3.498500	-10.450000	25.767307	0.000287	20.744647
1467.391209	-2.985700	3.497500	-10.441000	25.776300	0.000285	20.743723
1468.389739	-2.999800	3.496800	-10.489000	25.789499	0.000286	20.753188
1469.390654	-2.981300	3.497300	-10.426000	25.827580	0.000285	20.755879
1470.404258	-3.004900	3.496500	-10.505000	25.859603	0.000285	20.731622
1471.393586	-3.003500	3.495900	-10.499000	25.867462	0.000286	20.745208
1472.393603	-2.983900	3.496000	-10.430000	25.848379	0.000286	20.741211
1473.391530	-2.978000	3.495900	-10.410000	25.816901	0.000287	20.747049
1474.394354	-2.981800	3.496500	-10.425000	25.786919	0.000283	20.745854
1475.392766	-2.994100	3.494200	-10.461000	25.773310	0.000282	20.743564
1476.391571	-2.987600	3.494800	-10.439000	25.792565	0.000283	20.734456
1477.389012	-3.025800	3.493500	-10.570000	25.801460	0.000285	20.741969
1478.394912	-2.985800	3.493800	-10.431000	25.781733	0.000284	20.747284
1479.392561	-3.011500	3.492100	-10.516000	25.762736	0.000283	20.736735
1480.394149	-2.979400	3.493700	-10.408000	25.723604	0.000283	20.750536
1481.396865	-2.995600	3.492900	-10.463000	25.716775	0.000283	20.741779
1482.390048	-3.010100	3.492500	-10.512000	25.687849	0.000281	20.730269
1483.393029	-3.000500	3.492100	-10.477000	25.752050	0.000284	20.736908
1484.392489	-2.991800	3.491300	-10.444000	25.719957	0.000284	20.743079
1485.395150	-3.007400	3.491400	-10.498000	25.672498	0.000282	20.735239
1486.390964	-3.038400	3.490500	-10.604000	25.726909	0.000283	20.727775
1487.395300	-2.986800	3.490400	-10.424000	25.753277	0.000283	20.725337
1488.390630	-2.999700	3.490800	-10.470000	25.762019	0.000283	20.742179
1489.393915	-3.003000	3.490000	-10.480000	25.710166	0.000283	20.733718
1490.392878	-3.021100	3.488900	-10.539000	25.724205	0.000282	20.747820
1491.397152	-2.988300	3.489900	-10.427000	25.687083	0.000281	20.738509
1492.391584	-2.974000	3.490000	-10.379000	25.658083	0.000281	20.743996
1493.393410	-3.015900	3.488600	-10.520000	25.704176	0.000283	20.735762
1494.395025	-2.989700	3.488900	-10.430000	25.742676	0.000281	20.742665
1495.394108	-2.996800	3.488600	-10.453000	25.777436	0.000281	20.732535
1496.395131	-3.004100	3.487200	-10.475000	25.780733	0.000281	20.743434
1497.391280	-2.983900	3.487600	-10.406000	25.776362	0.000280	20.751846
1498.395977	-2.985200	3.487700	-10.411000	25.767835	0.000278	20.732848
1499.393299	-3.010500	3.485200	-10.491000	25.803905	0.000280	20.736838
1500.395767	-3.016600	3.486300	-10.516000	25.774289	0.000280	20.762092
1501.391166	-3.002300	3.485500	-10.464000	25.739082	0.000277	20.767979
1502.400964	-3.000800	3.485500	-10.459000	25.703027	0.000278	20.753575
1503.396461	-2.987000	3.484900	-10.408000	25.732711	0.000277	20.749252
1504.392354	-2.973600	3.484600	-10.360000	25.718843	0.000279	20.741960
1505.393990	-2.984700	3.484400	-10.399000	25.739037	0.000277	20.741381
1506.399967	-2.987100	3.484100	-10.406000	25.788099	0.000278	20.738031
1507.395226	-2.991000	3.483100	-10.417000	25.772718	0.000278	20.755772
1508.391940	-2.985300	3.482900	-10.397000	25.759476	0.000276	20.745790
1509.396582	-3.001800	3.484500	-10.459000	25.753081	0.000278	20.743159
1510.396915	-3.006600	3.484000	-10.475000	25.754816	0.000277	20.755808
1511.404302	-3.006700	3.483000	-10.471000	25.778240	0.000279	20.759896
1512.393745	-2.996800	3.481700	-10.433000	25.786184	0.000276	20.753177
1513.399014	-3.021900	3.481200	-10.519000	25.791996	0.000277	20.750954
1514.419861	-2.990200	3.482300	-10.411000	25.841006	0.000275	20.749925
1515.396736	-2.997000	3.481700	-10.434000	25.812206	0.000278	20.732848
1516.401389	-2.992200	3.480300	-10.413000	25.825115	0.000276	20.742972
1517.395610	-2.981500	3.480100	-10.375000	25.818826	0.000276	20.735705
1518.399471	-2.989500	3.480100	-10.403000	25.856255	0.000276	20.744855
1519.403329	-3.004600	3.480300	-10.456000	25.855053	0.000276	20.739380
1520.402315	-3.006000	3.480200	-10.460000	25.830428	0.000275	20.745464
1521.398710	-2.979300	3.480000	-10.367000	25.815422	0.000275	20.728492
1522.400512	-3.007500	3.478900	-10.462000	25.796534	0.000275	20.753142
1523.399988	-3.005700	3.478900	-10.456000	25.782789	0.000273	20.758776
1524.399773	-3.017200	3.479100	-10.496000	25.758733	0.000273	20.740302
1525.396261	-3.007700	3.478500	-10.461000	25.727399	0.000274	20.752926
1526.400596	-3.036500	3.477000	-10.557000	25.735712	0.000271	20.740886
1527.398079	-3.008000	3.478000	-10.461000	25.735209	0.000274	20.754606
1528.398698	-3.015300	3.478500	-10.488000	25.741615	0.000272	20.744919
1529.405434	-3.011200	3.476400	-10.467000	25.828082	0.000272	20.756858
1530.400079	-3.009700	3.476400	-10.462000	25.847110	0.000271	20.772179
1531.399778	-2.990700	3.477300	-10.399000	25.765498	0.000271	20.758952
1532.401876	-3.017500	3.475200	-10.486000	25.723129	0.000271	20.751481
1533.400442	-2.982500	3.475400	-10.364000	25.701671	0.000270	20.750317
1534.401582	-3.031800	3.472900	-10.528000	25.739779	0.000271	20.791913
1535.398029	-2.977800	3.475600	-10.349000	25.783949	0.000271	20.758519
1536.400822	-2.993500	3.474800	-10.401000	25.822152	0.000270	20.749478
1537.397858	-2.997300	3.472900	-10.408000	25.821765	0.000270	20.768530
1538.397761	-3.001600	3.473400	-10.425000	25.867029	0.000271	20.773223
1539.404539	-3.026500	3.473500	-10.512000	25.895685	0.000269	20.747007
1540.400896	-3.024000	3.473400	-10.502000	25.899283	0.000268	20.757734
1541.402575	-3.019100	3.473000	-10.484000	25.884246	0.000267	20.765388
1542.400726	-3.016100	3.470700	-10.468000	25.879961	0.000268	20.762980
1543.403150	-2.984500	3.472200	-10.362000	25.846001	0.000269	20.777704
1544.403984	-3.003300	3.472100	-10.426000	25.834243	0.000267	20.763521
1545.406818	-3.010000	3.473000	-10.453000	25.845559	0.000267	20.772992
1546.410060	-2.968200	3.472800	-10.307000	25.848912	0.000267	20.773515
1547.403302	-3.004800	3.471800	-10.431000	25.793973	0.000268	20.742035
1548.402577	-3.030400	3.470000	-10.514000	25.822907	0.000265	20.771100
1549.401020	-3.000800	3.471700	-10.417000	25.821135	0.000267	20.764104
1550.405350	-3.003700	3.470600	-10.424000	25.792188	0.000264	20.753518
1551.405193	-2.973400	3.470600	-10.317000	25.792825	0.000265	20.769806
1552.404068	-2.967900	3.470400	-10.299000	25.806636	0.000265	20.749066
1553.405323	-2.981800	3.468800	-10.342000	25.836686	0.000263	20.782097
1554.411434	-3.022400	3.467800	-10.480000	25.844403	0.000265	20.768512
1555.410756	-3.020100	3.468600	-10.475000	25.794883	0.000264	20.763813
1556.405717	-2.989300	3.469500	-10.371000	25.828170	0.000263	20.777810
1557.410499	-2.970400	3.467300	-10.298000	25.872704	0.000261	20.773708
1558.409440	-2.989500	3.468300	-10.368000	25.862026	0.000262	20.781473
1559.412286	-3.000500	3.467200	-10.403000	25.903377	0.000263	20.784607
1560.406327	-3.001000	3.466800	-10.403000	25.944898	0.000262	20.777956
1561.410250	-2.996600	3.465900	-10.385000	25.986822	0.000261	20.787359
1562.413187	-3.020100	3.466200	-10.467000	25.994251	0.000260	20.772537
1563.409786	-3.014900	3.465000	-10.446000	25.963764	0.000260	20.793591
1564.409686	-3.016100	3.466100	-10.453000	25.929972	0.000261	20.762961
1565.414065	-2.992500	3.465700	-10.370000	25.922371	0.000260	20.780930
1566.410158	-2.986500	3.465900	-10.349000	25.939919	0.000259	20.772006
1567.409510	-2.974300	3.464600	-10.304000	25.966171	0.000258	20.779888
1568.414388	-3.007200	3.463300	-10.413000	25.925723	0.000260	20.795677
1569.409157	-2.991500	3.464300	-10.363000	25.934984	0.000261	20.780799
1570.410193	-3.003800	3.462800	-10.402000	25.923504	0.000259	20.798663
1571.409985	-2.995900	3.463300	-10.375000	25.879891	0.000259	20.807006
1572.410984	-2.992900	3.462300	-10.361000	25.885904	0.000257	20.777960
1573.415083	-2.980800	3.463900	-10.324000	25.881104	0.000257	20.780724
1574.414827	-2.999200	3.461800	-10.382000	25.875832	0.000258	20.792972
1575.414165	-3.004900	3.460800	-10.399000	25.901412	0.000259	20.771253
1576.419930	-2.993000	3.462600	-10.362000	25.920407	0.000257	20.766154
1577.411088	-2.986200	3.461200	-10.335000	25.923637	0.000255	20.796426
1578.420068	-3.012200	3.459900	-10.421000	25.928050	0.000256	20.783316
1579.426113	-3.031000	3.460300	-10.487000	25.878363	0.000254	20.789825
1580.411486	-3.012300	3.460500	-10.422000	25.894919	0.000256	20.793654
1581.418351	-3.027900	3.460400	-10.477000	25.871197	0.000253	20.820084
1582.413749	-3.011100	3.458600	-10.413000	25.887263	0.000254	20.792127
1583.412223	-2.993500	3.460600	-10.359000	25.864055	0.000254	20.790624
1584.422102	-2.985100	3.459100	-10.325000	25.856675	0.000253	20.802651
1585.414910	-2.986200	3.458100	-10.326000	25.884866	0.000252	20.786400
1586.416334	-2.993200	3.459700	-10.354000	25.928306	0.000252	20.798272
1587.417071	-2.974400	3.459500	-10.288000	25.934988	0.000253	20.794553
1588.417865	-2.965200	3.458000	-10.252000	25.901348	0.000254	20.784940
1589.416554	-2.974000	3.457900	-10.282000	25.925940	0.000254	20.801111
1590.419715	-3.008200	3.455800	-10.394000	25.945861	0.000252	20.799787
1591.415401	-2.987100	3.456300	-10.324000	25.967369	0.000251	20.791997
1592.417114	-2.989300	3.457300	-10.334000	26.012645	0.000251	20.802872
1593.426854	-3.003400	3.456900	-10.381000	25.995483	0.000249	20.820717
1594.418168	-2.991000	3.456500	-10.338000	25.946247	0.000251	20.813451
1595.416953	-2.991100	3.455800	-10.336000	25.898179	0.000248	20.802145
1596.423198	-2.976700	3.455000	-10.284000	25.895568	0.000249	20.796677
1597.416746	-3.009100	3.454100	-10.393000	25.875640	0.000251	20.797520
1598.418121	-2.993500	3.454700	-10.341000	25.875315	0.000248	20.819953
1599.418164	-2.985900	3.454400	-10.313000	25.870975	0.000250	20.793783
1600.418685	-2.992800	3.454600	-10.338000	25.868339	0.000251	20.785445
1601.417338	-2.989300	3.454200	-10.325000	25.859659	0.000248	20.807545
1602.415545	-2.988300	3.453500	-10.319000	25.901991	0.000248	20.806923
1603.418772	-2.989600	3.453300	-10.323000	25.918780	0.000248	20.796763
1604.416525	-2.994700	3.452900	-10.340000	25.929709	0.000248	20.792095
1605.418337	-3.026500	3.452200	-10.447000	25.863833	0.000249	20.797988
1606.418276	-3.004400	3.451300	-10.368000	25.881585	0.000247	20.806812
1607.424401	-2.999300	3.450700	-10.349000	25.837566	0.000245	20.820913
1608.418919	-2.986300	3.451300	-10.306000	25.849164	0.000247	20.821184
1609.421360	-3.016500	3.451600	-10.411000	25.889732	0.000246	20.818315
1610.425643	-3.007700	3.449500	-10.375000	25.897553	0.000247	20.809577
1611.423343	-3.019900	3.450800	-10.420000	25.908562	0.000246	20.807834
1612.425708	-2.964900	3.449800	-10.227000	25.882897	0.000244	20.816664
1613.421701	-2.995900	3.450200	-10.335000	25.900134	0.000245	20.799367
1614.424754	-2.996700	3.449300	-10.336000	25.921814	0.000243	20.814509
1615.426348	-3.003400	3.449600	-10.360000	25.927006	0.000242	20.812138
1616.425186	-3.008000	3.448800	-10.374000	25.885894	0.000243	20.819675
1617.427586	-3.004600	3.449000	-10.362000	25.869252	0.000240	20.820975
1618.423270	-2.994900	3.447100	-10.323000	25.895309	0.000241	20.812538
1619.425129	-3.005100	3.447700	-10.360000	25.904271	0.000243	20.836713
1620.429965	-3.004700	3.446200	-10.354000	25.870263	0.000238	20.829103
1621.435106	-3.008300	3.446000	-10.365000	25.865145	0.000241	20.823013
1622.427456	-2.993000	3.447200	-10.317000	25.935268	0.000242	20.828025
1623.436360	-3.002900	3.445000	-10.343000	25.943739	0.000241	20.796232
1624.429798	-3.013400	3.445900	-10.383000	25.949574	0.000239	20.836707
1625.434100	-2.997700	3.445500	-10.328000	25.951793	0.000241	20.827557
1626.430544	-2.998900	3.445100	-10.331000	25.989997	0.000237	20.828481
1627.430785	-2.997700	3.445500	-10.328000	25.919846	0.000239	20.816799
1628.428085	-2.996700	3.444900	-10.323000	25.946424	0.000240	20.822163
1629.431665	-2.996400	3.445300	-10.323000	25.977843	0.000237	20.805839
1630.427714	-3.005100	3.443700	-10.348000	26.017314	0.000237	20.816572
1631.431139	-3.012000	3.443200	-10.369000	25.984033	0.000237	20.824860
1632.434145	-2.999800	3.444000	-10.331000	25.945253	0.000237	20.821935
1633.431387	-3.001000	3.444100	-10.335000	25.909763	0.000237	20.816627
1634.430958	-2.966800	3.444000	-10.217000	25.873966	0.000237	20.819546
1635.429287	-2.990800	3.442800	-10.296000	25.897118	0.000238	20.840433
1636.437188	-3.009100	3.441600	-10.356000	25.809600	0.000235	20.817477
1637.430030	-2.996000	3.441500	-10.309000	25.837155	0.000236	20.828561
1638.432773	-2.999900	3.443400	-10.329000	25.834391	0.000235	20.808240
1639.428817	-2.994200	3.441800	-10.305000	25.885992	0.000233	20.834472
1640.431952	-3.014700	3.441000	-10.373000	25.926687	0.000235	20.824146
1641.432355	-2.986500	3.441000	-10.276000	25.947975	0.000235	20.822298
1642.439479	-2.996400	3.440100	-10.307000	25.970384	0.000233	20.854294
1643.433189	-2.999400	3.439500	-10.315000	26.000735	0.000234	20.826941
1644.430152	-2.991500	3.439200	-10.288000	25.968888	0.000234	20.841886
1645.437114	-2.999000	3.438600	-10.311000	26.001440	0.000234	20.829546
1646.432814	-3.005800	3.438600	-10.334000	25.961735	0.000233	20.822847
1647.433996	-3.002800	3.438300	-10.323000	25.932902	0.000231	20.856941
1648.432683	-3.012600	3.438700	-10.358000	25.965597	0.000230	20.830993
1649.432254	-3.008800	3.438400	-10.343000	25.929801	0.000230	20.833912
1650.429191	-3.002200	3.437200	-10.319000	25.884276	0.000230	20.832748
1651.435153	-2.977300	3.437500	-10.234000	25.870883	0.000230	20.845846
1652.432204	-2.998000	3.436800	-10.303000	25.889094	0.000230	20.843278
1653.434849	-2.996000	3.437000	-10.296000	25.902659	0.000229	20.838413
1654.434087	-3.032100	3.435800	-10.416000	25.899852	0.000229	20.837490
1655.432013	-3.016200	3.436200	-10.363000	25.893820	0.000230	20.840914
1656.435963	-2.990700	3.436600	-10.277000	25.900759	0.000228	20.827022
1657.434043	-2.982400	3.435600	-10.246000	25.882946	0.000229	20.854171
1658.431645	-3.002000	3.436100	-10.314000	25.924309	0.000228	20.841197
1659.431968	-2.963300	3.436600	-10.182000	25.963667	0.000228	20.868407
1660.436779	-3.012800	3.434100	-10.345000	25.966879	0.000228	20.847454
1661.461602	-2.997900	3.433900	-10.294000	26.024603	0.000230	20.845705
1662.439534	-3.020700	3.433400	-10.371000	26.021030	0.000227	20.839744
1663.433980	-2.999000	3.433500	-10.296000	25.997139	0.000227	20.838026
1664.436151	-3.029000	3.433000	-10.397000	25.968252	0.000227	20.855945
1665.441228	-3.015000	3.432000	-10.347000	25.966021	0.000227	20.848488
1666.432946	-2.997700	3.431700	-10.287000	25.981871	0.000224	20.847343
1667.438477	-2.992700	3.432400	-10.271000	25.979462	0.000227	20.839708
1668.439435	-2.999600	3.432200	-10.294000	25.956692	0.000223	20.860927
1669.439463	-2.981600	3.431500	-10.230000	25.925120	0.000225	20.845330
1670.442717	-3.015200	3.430700	-10.343000	25.918322	0.000225	20.844191
1671.438412	-2.973800	3.431100	-10.203000	25.933051	0.000223	20.845712
1672.438252	-3.017400	3.429500	-10.348000	25.943846	0.000222	20.860349
1673.434728	-3.005900	3.430200	-10.310000	25.968884	0.000222	20.845675
1674.438639	-3.015600	3.429600	-10.342000	25.956858	0.000222	20.846870
1675.445793	-3.000500	3.430800	-10.293000	25.936668	0.000225	20.854561
1676.438911	-3.017000	3.429200	-10.345000	25.993750	0.000221	20.850269
1677.438929	-3.004700	3.428100	-10.300000	25.978851	0.000221	20.836248
1678.440156	-2.977500	3.429600	-10.210000	25.947033	0.000221	20.849801
1679.437101	-2.982400	3.429400	-10.226000	25.938961	0.000219	20.852123
1680.439186	-2.982200	3.428500	-10.224000	25.923809	0.000221	20.853970
1681.436617	-3.007300	3.427400	-10.306000	25.945900	0.000219	20.855300
1682.439286	-3.003600	3.427300	-10.293000	25.942302	0.000220	20.827505
1683.439001	-3.016600	3.426800	-10.336000	25.934554	0.000219	20.846273
1684.440005	-3.035300	3.425600	-10.396000	25.936320	0.000220	20.861797
1685.441379	-2.995400	3.428100	-10.268000	25.961438	0.000220	20.858582
1686.437472	-3.000700	3.425500	-10.278000	25.997460	0.000220	20.869641
1687.439816	-2.980900	3.427100	-10.215000	25.989179	0.000219	20.849943
1688.449080	-3.000300	3.425800	-10.278000	25.965539	0.000220	20.857012
1689.441338	-2.998300	3.426700	-10.273000	25.985238	0.000218	20.864475
1690.438374	-3.009100	3.425700	-10.307000	25.958864	0.000217	20.875910
1691.443149	-3.009500	3.424600	-10.305000	25.915467	0.000217	20.852228
1692.442897	-2.995800	3.424500	-10.258000	25.941849	0.000215	20.861662
1693.445465	-3.004200	3.424500	-10.287000	25.976780	0.000216	20.839384
1694.443572	-3.008400	3.422600	-10.296000	26.034633	0.000218	20.871428
1695.445402	-3.000100	3.423400	-10.271000	26.037985	0.000217	20.871951
1696.443308	-3.010200	3.423300	-10.304000	26.055097	0.000218	20.876341
1697.443649	-3.024500	3.421100	-10.346000	26.043881	0.000217	20.856539
1698.446681	-3.001400	3.423300	-10.274000	26.088088	0.000218	20.853066
1699.440902	-3.012700	3.421900	-10.309000	26.117027	0.000217	20.858436
1700.444016	-2.988000	3.421900	-10.224000	26.080096	0.000216	20.837451
1701.445838	-2.975400	3.421200	-10.178000	26.051806	0.000215	20.875880
1702.447641	-3.016200	3.420800	-10.317000	26.051733	0.000215	20.857789
1703.445411	-3.005800	3.419600	-10.278000	25.989070	0.000215	20.860739
1704.445161	-2.995800	3.420500	-10.246000	25.989958	0.000215	20.874907
1705.447327	-3.023300	3.420200	-10.339000	25.961151	0.000215	20.862562
1706.446323	-3.001700	3.421000	-10.267000	26.027671	0.000214	20.860640
1707.449463	-3.011300	3.420700	-10.300000	26.030925	0.000212	20.860117
1708.446500	-3.007500	3.419600	-10.284000	26.050624	0.000214	20.859046
1709.444541	-2.998200	3.418500	-10.249000	26.066540	0.000215	20.858442
1710.445215	-2.987600	3.419700	-10.216000	26.062195	0.000211	20.866878
1711.448728	-2.984300	3.419000	-10.203000	26.053480	0.000214	20.874716
1712.449071	-2.998900	3.418700	-10.252000	26.072479	0.000211	20.864409
1713.446260	-2.992500	3.417900	-10.226000	26.104053	0.000213	20.881434
1714.450895	-2.996700	3.417900	-10.240000	26.070377	0.000212	20.861823
1715.457239	-3.016200	3.416400	-10.304000	26.083363	0.000209	20.881508
1716.450177	-2.985500	3.416500	-10.199000	26.020500	0.000211	20.873824
1717.448395	-2.994300	3.417100	-10.232000	26.032599	0.000209	20.868436
1718.454838	-2.992700	3.415500	-10.220000	26.045439	0.000208	20.882758
1719.448905	-2.974900	3.416900	-10.164000	26.045666	0.000208	20.892469
1720.451496	-3.011700	3.414200	-10.282000	26.087047	0.000208	20.881416
1721.454381	-3.019500	3.415300	-10.312000	26.047731	0.000208	20.862304
1722.452919	-3.022000	3.415200	-10.320000	26.009628	0.000208	20.885185
1723.454998	-3.002900	3.413900	-10.251000	26.008267	0.000209	20.853948
1724.454133	-2.996600	3.413300	-10.227000	26.025575	0.000205	20.892672
1725.450289	-3.004900	3.413900	-10.258000	26.046224	0.000208	20.871220
1726.450887	-2.991300	3.413800	-10.212000	26.064678	0.000205	20.874588
1727.454648	-2.992600	3.413500	-10.214000	26.045875	0.000205	20.873714
1728.458127	-2.996600	3.411600	-10.222000	26.016940	0.000205	20.875936
1729.451971	-3.001600	3.413700	-10.246000	26.032091	0.000204	20.839004
1730.451791	-2.995200	3.412800	-10.221000	26.006735	0.000205	20.847193
1731.453776	-2.999900	3.411900	-10.234000	25.965032	0.000204	20.868831
1732.452754	-3.001200	3.411500	-10.238000	25.946804	0.000205	20.856208
1733.453333	-3.010100	3.411200	-10.266000	25.972657	0.000204	20.857526
1734.452522	-2.995700	3.410700	-10.216000	25.984554	0.000206	20.857624
1735.453785	-2.983600	3.410800	-10.175000	26.048572	0.000204	20.860777
1736.460610	-2.981800	3.410800	-10.170000	26.074772	0.000204	20.845377
1737.458787	-3.001100	3.409600	-10.232000	26.071395	0.000204	20.856208
1738.456671	-2.981800	3.410100	-10.168000	26.105722	0.000202	20.863197
1739.453659	-2.984800	3.410100	-10.177000	26.082844	0.000203	20.857280
1740.459177	-3.002100	3.409800	-10.236000	26.107707	0.000203	20.862347
1741.454679	-3.009100	3.408800	-10.256000	26.186137	0.000204	20.853437
1742.455131	-2.979300	3.409400	-10.156000	26.147866	0.000203	20.845802
1743.458578	-2.987100	3.408100	-10.180000	26.090149	0.000205	20.842335
1744.456094	-3.003700	3.407300	-10.234000	26.110085	0.000201	20.858573
1745.462834	-3.010200	3.406600	-10.253000	26.129512	0.000201	20.860075
1746.460238	-2.985500	3.407500	-10.172000	26.168261	0.000202	20.853493
1747.458945	-3.003600	3.405600	-10.228000	26.120277	0.000201	20.857434
1748.458119	-2.989900	3.405600	-10.182000	26.049222	0.000199	20.862853
1749.461979	-3.012200	3.404900	-10.255000	26.050539	0.000200	20.824349
1750.461184	-2.994300	3.406800	-10.200000	26.010003	0.000200	20.849528
1751.456688	-3.012700	3.405800	-10.259000	26.057202	0.000201	20.846215
1752.465670	-2.977100	3.406300	-10.140000	26.048536	0.000201	20.859319
1753.464402	-2.971100	3.406800	-10.121000	26.107793	0.000198	20.857219
1754.461548	-2.994600	3.404900	-10.195000	26.118898	0.000199	20.843247
1755.466448	-2.979300	3.404500	-10.142000	26.092570	0.000199	20.838604
1756.464804	-2.998700	3.403300	-10.204000	26.114731	0.000199	20.839535
1757.468585	-2.981100	3.405500	-10.151000	26.127129	0.000198	20.846776
1758.464570	-3.014900	3.403600	-10.261000	26.159217	0.000200	20.832078
1759.465357	-2.984200	3.403900	-10.157000	26.160290	0.000196	20.814664
1760.460854	-3.013900	3.403000	-10.255000	26.124304	0.000196	20.863377
1761.464428	-2.992500	3.402500	-10.181000	26.060549	0.000196	20.837251
1762.463014	-3.002400	3.401700	-10.212000	26.104271	0.000197	20.852257
1763.465345	-3.011200	3.400900	-10.239000	26.132658	0.000195	20.814874
1764.467746	-3.002800	3.399900	-10.209000	26.130029	0.000195	20.801801
1765.469111	-2.999000	3.401400	-10.200000	26.088527	0.000195	20.826956
1766.466981	-2.996700	3.400400	-10.189000	26.099362	0.000195	20.819825
1767.463454	-3.017700	3.398500	-10.255000	26.097457	0.000194	20.834980
1768.468854	-2.990400	3.400300	-10.167000	26.064993	0.000195	20.831285
1769.465432	-3.001900	3.400100	-10.206000	26.087921	0.000193	20.827769
1770.467031	-3.013300	3.398500	-10.239000	26.133369	0.000195	20.817486
1771.469721	-3.027300	3.398400	-10.288000	26.163576	0.000195	20.815121
1772.466875	-3.013300	3.399200	-10.241000	26.164551	0.000192	20.802825
1773.470429	-2.990600	3.397700	-10.160000	26.123424	0.000192	20.816027
1774.469612	-2.993300	3.398900	-10.173000	26.100644	0.000193	20.822535
1775.472336	-3.014900	3.395900	-10.237000	26.062230	0.000194	20.808121
1776.464302	-2.990900	3.398600	-10.164000	26.077062	0.000191	20.803582
1777.469469	-3.003400	3.398300	-10.206000	26.073060	0.000193	20.823269
1778.470195	-3.016400	3.395900	-10.243000	26.136447	0.000191	20.812992
1779.470054	-3.015600	3.397400	-10.244000	26.152148	0.000191	20.817863
1780.469911	-3.013800	3.396000	-10.233000	26.151872	0.000192	20.817585
1781.467798	-2.986000	3.397500	-10.144000	26.124957	0.000191	20.817567
1782.468379	-3.026100	3.394200	-10.270000	26.165716	0.000188	20.811108
1783.469757	-2.988500	3.394900	-10.144000	26.239999	0.000190	20.826958
1784.469635	-2.995000	3.394600	-10.166000	26.272231	0.000189	20.809088
1785.469387	-3.007200	3.394000	-10.204000	26.291226	0.000189	20.803996
1786.467852	-2.990800	3.394400	-10.151000	26.317825	0.000189	20.783312
1787.473756	-2.990300	3.393900	-10.148000	26.264143	0.000187	20.784839
1788.474533	-2.999800	3.393200	-10.178000	26.182943	0.000188	20.798073
1789.470810	-3.003900	3.392900	-10.191000	26.180737	0.000185	20.820038
1790.480176	-3.009100	3.392800	-10.208000	26.160974	0.000188	20.808240
1791.473326	-3.003400	3.392100	-10.187000	26.209257	0.000187	20.800808
1792.476665	-3.005200	3.393100	-10.196000	26.239406	0.000186	20.806448
1793.477225	-2.995200	3.393700	-10.164000	26.247250	0.000185	20.800105
1794.478362	-3.011700	3.390900	-10.212000	26.233751	0.000185	20.793653
1795.474603	-3.022200	3.390100	-10.245000	26.257992	0.000186	20.787193
1796.475364	-2.978100	3.391500	-10.099000	26.211857	0.000184	20.808161
1797.479100	-3.007500	3.391200	-10.198000	26.212954	0.000183	20.808789
1798.473835	-2.995200	3.389500	-10.152000	26.230663	0.000183	20.800507
1799.475605	-2.999400	3.390700	-10.169000	26.269874	0.000184	20.801505
1800.475399	-2.991000	3.390500	-10.140000	26.264715	0.000181	20.807700
1801.477186	-3.000900	3.390100	-10.173000	26.282644	0.000181	20.812441
1802.477804	-2.994100	3.389600	-10.148000	26.288313	0.000185	20.818138
1803.475838	-3.003800	3.391000	-10.185000	26.243116	0.000181	20.790261
1804.473663	-3.012400	3.388900	-10.207000	26.213096	0.000182	20.808932
1805.477355	-2.988100	3.389100	-10.126000	26.176769	0.000181	20.786653
1806.477272	-3.003700	3.387700	-10.175000	26.142525	0.000181	20.788279
1807.476029	-2.963000	3.388800	-10.040000	26.081088	0.000181	20.781075
1808.479164	-3.020600	3.387000	-10.230000	26.050738	0.000178	20.778557
1809.478789	-2.997200	3.386900	-10.151000	26.077515	0.000180	20.783649
1810.485880	-2.994500	3.387500	-10.143000	26.037734	0.000179	20.776870
1811.478771	-2.998500	3.387200	-10.156000	26.069432	0.000181	20.790701
1812.478673	-3.021000	3.386800	-10.230000	26.071344	0.000179	20.790251
1813.476089	-2.995000	3.387800	-10.146000	26.144844	0.000179	20.760737
1814.479321	-3.004100	3.384800	-10.168000	26.066571	0.000178	20.792094
1815.476522	-2.987500	3.385900	-10.114000	26.073919	0.000178	20.772450
1816.475993	-2.964700	3.386600	-10.039000	26.111353	0.000178	20.798683
1817.476061	-2.994400	3.385700	-10.137000	26.139869	0.000178	20.807895
1818.480689	-2.992700	3.384300	-10.127000	26.135328	0.000179	20.780573
1819.475686	-2.999400	3.384600	-10.151000	26.157114	0.000176	20.785395
1820.477690	-2.994400	3.384600	-10.133000	26.118671	0.000177	20.774268
1821.478257	-3.016900	3.383800	-10.207000	26.109160	0.000177	20.786996
1822.481514	-3.024700	3.382100	-10.229000	26.167564	0.000177	20.798740
1823.480595	-3.018600	3.381600	-10.206000	26.162894	0.000177	20.781246
1824.475995	-3.004900	3.381300	-10.159000	26.126738	0.000175	20.784270
1825.478628	-2.989300	3.382300	-10.110000	26.145644	0.000177	20.767231
1826.478829	-2.981800	3.382900	-10.086000	26.151674	0.000177	20.783722
1827.476285	-2.996600	3.382100	-10.133000	26.117663	0.000173	20.773254
1828.482423	-3.012500	3.382100	-10.188000	26.100007	0.000175	20.770686
1829.483315	-3.009500	3.380600	-10.173000	26.109476	0.000174	20.777830
1830.477196	-2.992800	3.381900	-10.120000	26.122738	0.000172	20.754171
1831.482545	-3.010300	3.380500	-10.177000	26.144224	0.000174	20.775287
1832.479709	-3.013400	3.379000	-10.180000	26.164576	0.000173	20.775824
1833.478280	-2.992200	3.379400	-10.111000	26.130730	0.000174	20.765048
1834.477362	-3.008800	3.378400	-10.164000	26.136791	0.000176	20.775880
1835.482986	-2.988100	3.380200	-10.099000	26.177079	0.000173	20.769420
1836.479974	-2.993700	3.377800	-10.111000	26.220122	0.000174	20.759094
1837.480602	-2.995800	3.378000	-10.119000	26.210563	0.000173	20.743323
1838.482216	-2.985400	3.378400	-10.085000	26.210821	0.000175	20.756385
1839.485278	-3.017900	3.375200	-10.185000	26.195372	0.000170	20.765991
1840.483085	-3.006100	3.375800	-10.147000	26.207206	0.000170	20.753227
1841.482617	-2.982100	3.377500	-10.071000	26.142910	0.000170	20.777760
1842.485203	-2.996600	3.377300	-10.119000	26.187713	0.000170	20.775839
1843.485977	-2.992300	3.377200	-10.105000	26.130623	0.000170	20.776794
1844.482895	-3.007800	3.376600	-10.155000	26.202378	0.000170	20.771135
1845.486543	-2.999200	3.376500	-10.125000	26.235708	0.000168	20.754367
1846.484874	-3.011600	3.375500	-10.165000	26.266125	0.000167	20.770236
1847.481514	-3.013500	3.374600	-10.168000	26.243656	0.000170	20.755716
1848.487906	-2.991500	3.373900	-10.092000	26.264821	0.000167	20.747114
1849.484899	-3.009100	3.375100	-10.155000	26.247290	0.000167	20.758894
1850.488707	-3.001200	3.374800	-10.128000	26.273939	0.000167	20.749165
1851.485397	-2.990800	3.374600	-10.092000	26.259092	0.000167	20.772177
1852.486043	-3.002900	3.373300	-10.129000	26.273939	0.000167	20.753906
1853.489727	-2.970700	3.374400	-10.023000	26.301017	0.000167	20.779223
1854.486813	-2.999800	3.372600	-10.116000	26.234246	0.000163	20.747208
1855.492387	-3.025400	3.373600	-10.206000	26.201964	0.000164	20.759339
1856.490409	-3.022700	3.371200	-10.188000	26.177931	0.000163	20.738507
1857.495147	-2.974500	3.372800	-10.031000	26.193802	0.000165	20.746396
1858.494365	-2.988600	3.371800	-10.076000	26.169566	0.000163	20.743378
1859.492398	-2.982100	3.370600	-10.051000	26.214490	0.000164	20.757702
1860.492790	-2.990600	3.370700	-10.078000	26.245044	0.000162	20.749051
1861.495266	-3.021300	3.370800	-10.183000	26.254481	0.000162	20.753318
1862.491107	-2.991600	3.370800	-10.083000	26.263446	0.000161	20.766595
1863.491169	-3.007000	3.369700	-10.132000	26.272668	0.000164	20.732714
1864.493237	-2.981100	3.370700	-10.047000	26.299072	0.000163	20.754982
1865.495398	-3.032000	3.367800	-10.210000	26.304042	0.000161	20.730104
1866.494958	-2.994800	3.369100	-10.089000	26.286879	0.000163	20.734192
1867.498037	-2.987900	3.369600	-10.067000	26.296248	0.000159	20.752618
1868.498319	-2.978300	3.369700	-10.035000	26.255745	0.000160	20.750321
1869.494394	-3.007600	3.367700	-10.128000	26.231964	0.000159	20.756769
1870.495174	-3.025600	3.366800	-10.185000	26.230653	0.000159	20.755926
1871.492459	-3.004200	3.367400	-10.116000	26.227724	0.000159	20.737335
1872.493199	-2.994000	3.367700	-10.082000	26.260882	0.000160	20.743155
1873.497327	-2.990300	3.367000	-10.068000	26.311324	0.000160	20.735525
1874.495730	-3.001300	3.366200	-10.103000	26.296820	0.000159	20.734226
1875.495862	-3.021200	3.365200	-10.166000	26.295509	0.000158	20.735754
1876.502406	-3.036800	3.365300	-10.219000	26.212792	0.000158	20.745090
1877.498241	-3.005700	3.366900	-10.119000	26.219803	0.000158	20.738858
1878.491858	-3.000000	3.365800	-10.097000	26.263317	0.000159	20.737067
1879.493817	-3.006900	3.365300	-10.118000	26.225448	0.000158	20.758281
1880.498939	-3.003100	3.365100	-10.104000	26.238219	0.000158	20.742191
1881.494413	-2.990900	3.363000	-10.058000	26.275217	0.000158	20.731956
1882.502896	-2.985900	3.364500	-10.046000	26.291542	0.000158	20.727972
1883.502747	-2.978800	3.364900	-10.023000	26.284758	0.000160	20.734432
1884.498953	-3.003800	3.364200	-10.104000	26.271155	0.000157	20.711278
1885.498314	-3.012200	3.362300	-10.127000	26.282878	0.000157	20.733490
1886.502900	-2.979100	3.363900	-10.020000	26.341308	0.000157	20.729623
1887.498861	-2.994700	3.362600	-10.069000	26.280648	0.000157	20.721291
1888.496585	-2.978300	3.363200	-10.016000	26.281665	0.000153	20.726581
1889.500864	-3.002700	3.361800	-10.093000	26.348765	0.000157	20.717203
1890.498091	-3.001300	3.361100	-10.086000	26.301757	0.000154	20.729704
1891.499879	-2.992100	3.362000	-10.059000	26.272204	0.000153	20.739359
1892.503762	-3.005700	3.360700	-10.100000	26.226031	0.000153	20.730891
1893.503885	-3.018300	3.359500	-10.138000	26.224549	0.000153	20.730824
1894.500827	-3.001300	3.361800	-10.088000	26.247148	0.000152	20.708014
1895.500625	-3.009300	3.359000	-10.107000	26.232643	0.000152	20.725208
1896.499733	-2.997900	3.360500	-10.073000	26.258668	0.000152	20.704417
1897.495879	-3.022500	3.359600	-10.154000	26.339567	0.000152	20.726451
1898.498507	-2.994800	3.359500	-10.060000	26.381500	0.000151	20.730663
1899.499078	-3.009100	3.358900	-10.106000	26.324746	0.000151	20.717719
1900.501617	-3.008400	3.358000	-10.100000	26.290916	0.000152	20.711696
1901.501243	-3.007000	3.358600	-10.098000	26.312993	0.000151	20.736255
1902.502776	-2.983000	3.359200	-10.020000	26.290598	0.000147	20.722756
1903.499296	-2.995800	3.357800	-10.059000	26.318054	0.000150	20.707674
1904.501088	-3.015700	3.356200	-10.120000	26.318550	0.000148	20.740891
1905.504167	-2.990200	3.357900	-10.040000	26.363517	0.000148	20.729185
1906.499621	-3.013800	3.355500	-10.111000	26.369902	0.000151	20.735602
1907.502812	-2.985200	3.357300	-10.021000	26.370465	0.000149	20.741858
1908.499072	-3.020500	3.354500	-10.131000	26.382829	0.000152	20.726308
1909.500823	-3.012800	3.353800	-10.104000	26.373841	0.000147	20.723913
1910.500632	-3.008100	3.355700	-10.093000	26.366764	0.000149	20.706368
1911.505545	-2.999400	3.354400	-10.060000	26.309775	0.000145	20.732546
1912.506048	-2.983600	3.354300	-10.006000	26.380917	0.000148	20.718222
1913.504743	-2.986800	3.355000	-10.020000	26.440904	0.000147	20.733944
1914.507359	-3.023000	3.354500	-10.140000	26.439912	0.000145	20.730102
1915.504990	-2.999900	3.354000	-10.061000	26.424834	0.000143	20.717316
1916.508205	-2.987300	3.354200	-10.019000	26.357566	0.000143	20.708504
1917.504619	-2.990000	3.354200	-10.028000	26.307483	0.000146	20.709853
1918.504565	-2.989400	3.353900	-10.025000	26.322961	0.000145	20.726357
1919.503153	-2.991400	3.352800	-10.028000	26.353100	0.000143	20.729621
1920.507836	-2.962300	3.353400	-9.932000	26.338237	0.000142	20.709940
1921.501515	-2.999800	3.351700	-10.053000	26.312165	0.000144	20.721197
1922.507592	-3.003900	3.351500	-10.067000	26.314199	0.000144	20.717077
1923.506935	-3.018000	3.352000	-10.116000	26.340945	0.000142	20.725465
1924.506295	-2.993500	3.351000	-10.030000	26.367389	0.000142	20.738767
1925.507231	-2.995000	3.350600	-10.034000	26.391610	0.000142	20.715693
1926.505442	-2.986100	3.350800	-10.005000	26.388147	0.000142	20.736396
1927.505892	-3.002200	3.350600	-10.058000	26.398876	0.000140	20.741014
1928.504101	-2.975900	3.349700	-9.966900	26.397572	0.000140	20.716943
1929.503209	-2.989200	3.349700	-10.012000	26.354714	0.000140	20.735036
1930.502477	-3.010300	3.348300	-10.077000	26.359396	0.000139	20.705127
1931.504730	-2.981800	3.349300	-9.985100	26.374063	0.000139	20.705169
1932.504113	-2.995100	3.349400	-10.031000	26.390509	0.000139	20.748727
1933.504984	-2.992800	3.348300	-10.020000	26.445753	0.000140	20.715109
1934.507634	-3.003900	3.346900	-10.052000	26.435927	0.000139	20.717561
1935.506584	-3.016500	3.345900	-10.092000	26.439278	0.000139	20.729464
1936.509945	-3.006200	3.347700	-10.063000	26.412321	0.000137	20.719914
1937.511951	-2.980800	3.345900	-9.972900	26.433428	0.000137	20.721688
1938.506572	-3.019900	3.344900	-10.100000	26.402194	0.000136	20.702147
1939.513339	-2.993200	3.347300	-10.018000	26.371952	0.000137	20.714427
1940.512601	-3.006700	3.346000	-10.060000	26.335355	0.000137	20.729805
1941.515645	-3.008100	3.345100	-10.062000	26.323567	0.000136	20.709896
1942.512911	-2.986800	3.346500	-9.994500	26.344081	0.000137	20.721978
1943.514627	-2.982900	3.345900	-9.979300	26.390836	0.000133	20.721079
1944.509105	-2.982500	3.343700	-9.971200	26.365441	0.000136	20.718789
1945.513430	-2.992900	3.345500	-10.013000	26.433896	0.000134	20.727373
1946.523086	-2.998200	3.344800	-10.027000	26.384116	0.000135	20.718118
1947.517258	-3.020700	3.344200	-10.100000	26.336197	0.000133	20.723063
1948.516334	-2.983500	3.344600	-9.976300	26.358231	0.000135	20.716284
1949.512373	-3.003400	3.342100	-10.037000	26.358678	0.000130	20.723372
1950.516164	-3.018200	3.340800	-10.082000	26.383707	0.000132	20.726242
1951.515240	-2.988700	3.343100	-9.990600	26.344996	0.000135	20.709147
1952.514689	-3.005000	3.341200	-10.039000	26.350916	0.000134	20.711303
1953.515624	-2.998200	3.342700	-10.022000	26.378555	0.000131	20.712055
1954.516019	-3.004900	3.341300	-10.039000	26.428415	0.000131	20.717123
1955.516357	-2.997700	3.341900	-10.017000	26.419263	0.000131	20.727839
1956.514880	-3.001500	3.340400	-10.025000	26.434188	0.000131	20.713916
1957.521768	-2.977000	3.341200	-9.945300	26.467185	0.000132	20.730013
1958.516370	-2.976700	3.339800	-9.940400	26.431762	0.000130	20.730919
1959.517971	-2.997500	3.338900	-10.008000	26.457114	0.000130	20.707561
1960.516520	-2.985800	3.340300	-9.972100	26.416103	0.000129	20.736518
1961.513200	-3.004000	3.339000	-10.028000	26.371935	0.000129	20.714885
1962.517179	-3.017200	3.338900	-10.073000	26.343401	0.000126	20.736943
1963.519184	-3.011100	3.338400	-10.051000	26.423113	0.000129	20.725545
1964.516834	-2.993300	3.338900	-9.993300	26.472978	0.000129	20.727775
1965.514838	-3.019900	3.337200	-10.077000	26.501233	0.000128	20.691688
1966.518397	-2.995400	3.338100	-9.998400	26.474344	0.000124	20.707336
1967.519177	-2.981800	3.336600	-9.948100	26.521548	0.000127	20.723490
1968.521356	-3.016300	3.336900	-10.064000	26.553900	0.000127	20.720448
1969.512934	-3.000800	3.337000	-10.012000	26.556436	0.000128	20.739594
1970.518018	-2.985600	3.336700	-9.961300	26.580297	0.000126	20.737027
1971.518834	-2.991500	3.336200	-9.979900	26.574839	0.000126	20.732014
1972.514841	-2.996800	3.336500	-9.998700	26.539885	0.000128	20.733862
1973.520185	-3.004000	3.334500	-10.016000	26.511386	0.000125	20.728449
1974.518505	-3.005400	3.334900	-10.022000	26.487611	0.000124	20.728259
1975.524032	-2.995700	3.334200	-9.987700	26.505603	0.000123	20.728326
1976.522625	-2.999600	3.334900	-10.002000	26.493663	0.000125	20.713005
1977.522929	-2.999300	3.335500	-10.004000	26.487384	0.000126	20.733721
1978.519638	-3.022400	3.332700	-10.072000	26.548186	0.000124	20.710911
1979.519387	-3.016000	3.333300	-10.052000	26.540321	0.000122	20.727662
1980.528869	-3.006700	3.333000	-10.020000	26.499583	0.000124	20.720851
1981.516004	-2.995400	3.332900	-9.982800	26.506487	0.000124	20.725895
1982.525594	-3.005600	3.332300	-10.015000	26.565768	0.000121	20.734750
1983.519891	-3.011100	3.331300	-10.030000	26.571705	0.000121	20.714163
1984.519042	-2.987600	3.332800	-9.955800	26.570971	0.000122	20.718642
1985.519924	-3.022500	3.331500	-10.068000	26.548127	0.000122	20.719386
1986.522348	-3.009300	3.330500	-10.022000	26.598021	0.000120	20.734929
1987.520207	-2.994200	3.331800	-9.975500	26.590034	0.000120	20.745867
1988.525583	-2.994200	3.330400	-9.971500	26.596001	0.000121	20.740960
1989.525028	-2.986100	3.331600	-9.947300	26.594139	0.000119	20.731026
1990.524232	-2.982700	3.330100	-9.931200	26.579223	0.000119	20.742586
1991.519171	-2.993300	3.330000	-9.967300	26.504596	0.000119	20.730633
1992.523059	-3.015700	3.328200	-10.036000	26.507126	0.000118	20.732228
1993.520961	-2.996400	3.327700	-9.970200	26.528011	0.000118	20.737099
1994.518650	-3.013700	3.328000	-10.030000	26.538542	0.000116	20.733460
1995.521140	-3.013900	3.327700	-10.029000	26.533409	0.000117	20.728300
1996.521764	-2.996400	3.327700	-9.970100	26.593632	0.000116	20.738578
1997.520683	-3.019100	3.325700	-10.040000	26.558832	0.000116	20.727777
1998.520837	-2.973900	3.328400	-9.897200	26.625622	0.000115	20.728061
1999.523782	-2.985400	3.327300	-9.932200	26.668291	0.000116	20.736818
2000.524269	-2.995400	3.326600	-9.962600	26.659452	0.000116	20.730777
2001.521805	-3.000300	3.326400	-9.979200	26.667924	0.000115	20.732182
2002.521940	-2.997900	3.326100	-9.970500	26.696792	0.000115	20.726116
2003.517186	-2.980900	3.326000	-9.914000	26.719755	0.000115	20.742564
2004.521700	-3.009900	3.325500	-10.008000	26.716859	0.000115	20.752929
2005.525255	-2.989500	3.324300	-9.936200	26.718703	0.000115	20.730601
2006.521948	-3.006900	3.323500	-9.992300	26.727486	0.000115	20.740379
2007.521847	-3.012000	3.324100	-10.011000	26.708100	0.000113	20.724208
2008.524773	-2.994400	3.325100	-9.955800	26.723273	0.000114	20.725237
2009.522186	-3.005300	3.323900	-9.988200	26.702350	0.000114	20.744506
2010.525428	-2.979800	3.324300	-9.904800	26.668018	0.000112	20.741760
2011.520500	-2.987700	3.323200	-9.927900	26.678848	0.000111	20.742690
2012.521086	-2.996400	3.322000	-9.953000	26.692176	0.000111	20.719104
2013.521355	-3.009600	3.321600	-9.995100	26.728646	0.000111	20.737278
2014.520011	-3.013500	3.322800	-10.012000	26.731678	0.000111	20.741275
2015.524296	-3.018100	3.321700	-10.023000	26.688539	0.000112	20.751485
2016.524174	-3.032600	3.320600	-10.069000	26.651188	0.000111	20.763722
2017.524395	-2.990100	3.321700	-9.931500	26.672835	0.000109	20.736645
2018.524415	-2.983100	3.320100	-9.903500	26.682684	0.000109	20.734218
2019.524102	-3.007000	3.321100	-9.985600	26.668688	0.000108	20.755236
2020.523033	-3.011900	3.319300	-9.995100	26.612341	0.000108	20.737471
2021.525233	-3.008300	3.319100	-9.984000	26.584592	0.000107	20.744664
2022.521682	-3.008400	3.318900	-9.982800	26.594001	0.000108	20.766925
2023.525433	-2.985500	3.320100	-9.910900	26.629482	0.000110	20.746167
2024.528290	-2.992200	3.319200	-9.930200	26.697993	0.000108	20.746764
2025.526202	-3.029000	3.317800	-10.049000	26.696927	0.000108	20.729097
2026.528703	-2.994300	3.318400	-9.935800	26.641476	0.000108	20.770079
2027.525160	-3.020900	3.316900	-10.018000	26.660317	0.000107	20.752036
2028.524184	-2.992400	3.317400	-9.926300	26.707953	0.000108	20.764365
2029.525727	-3.015700	3.316500	-10.000000	26.712302	0.000108	20.772057
2030.521791	-2.944200	3.317500	-9.766200	26.716725	0.000107	20.747105
2031.526234	-3.000800	3.316400	-9.951100	26.703188	0.000107	20.753410
2032.523949	-3.001600	3.315600	-9.950800	26.725166	0.000107	20.748478
2033.523826	-3.004100	3.314900	-9.957100	26.739852	0.000105	20.759451
2034.527483	-2.992900	3.315300	-9.921400	26.806135	0.000108	20.765401
2035.525345	-3.010400	3.314000	-9.975200	26.801621	0.000106	20.757544
2036.531207	-3.012200	3.314400	-9.982900	26.818941	0.000105	20.761207
2037.528194	-3.001000	3.314200	-9.945000	26.794817	0.000106	20.757340
2038.525343	-3.020300	3.314000	-10.009000	26.827087	0.000107	20.757069
2039.531626	-2.988700	3.313600	-9.902100	26.828998	0.000106	20.761362
2040.528934	-3.021600	3.312300	-10.008000	26.863716	0.000103	20.770666
2041.529497	-2.986000	3.313000	-9.891200	26.847609	0.000104	20.753522
2042.529765	-2.991800	3.311500	-9.906000	26.876650	0.000104	20.761386
2043.531167	-2.995700	3.311700	-9.919800	26.841112	0.000106	20.771646
2044.527097	-2.992600	3.310400	-9.905700	26.812859	0.000105	20.757937
2045.533505	-2.995100	3.310600	-9.914100	26.715219	0.000103	20.758394
2046.529957	-2.992300	3.311600	-9.908400	26.773993	0.000106	20.774336
2047.531775	-3.005800	3.311300	-9.952000	26.753113	0.000105	20.770413
2048.529262	-2.991400	3.310000	-9.900600	26.744208	0.000103	20.751502
2049.530580	-3.004800	3.310300	-9.946400	26.771506	0.000104	20.758085
2050.530963	-2.999000	3.309500	-9.923300	26.814819	0.000103	20.752795
2051.529777	-2.989400	3.309300	-9.891700	26.846935	0.000105	20.773707
2052.533629	-3.009500	3.308700	-9.956300	26.820080	0.000105	20.762826
2053.532552	-3.000600	3.308700	-9.926900	26.787729	0.000103	20.763964
2054.526835	-2.973400	3.308800	-9.836400	26.789713	0.000102	20.785400
2055.526413	-2.992500	3.307200	-9.895900	26.764694	0.000101	20.767357
2056.535213	-2.989500	3.307100	-9.885900	26.822790	0.000102	20.752749
2057.530610	-2.980000	3.307500	-9.855800	26.809506	0.000101	20.788705
2058.532470	-2.969700	3.307600	-9.822300	26.818815	0.000101	20.777677
2059.530821	-2.991700	3.307800	-9.895000	26.821638	0.000102	20.773402
2060.534462	-3.001700	3.306200	-9.923900	26.836299	0.000101	20.771074
2061.532530	-2.997600	3.305700	-9.907800	26.861390	9.965081E-5	20.790613
2062.531250	-3.003700	3.305100	-9.926200	26.850690	9.974981E-5	20.801666
2063.526715	-2.998800	3.305000	-9.909300	26.872491	9.984882E-5	20.773799
2064.527358	-3.032400	3.303700	-10.017000	26.880581	9.737364E-5	20.791891
2065.533468	-2.982600	3.304000	-9.854200	26.840938	0.000101	20.786170
2066.527827	-3.001600	3.304100	-9.916700	26.813555	9.823170E-5	20.794673
2067.530313	-2.992000	3.304500	-9.886300	26.816923	9.852872E-5	20.778145
2068.531541	-3.017100	3.303800	-9.966200	26.804906	9.644957E-5	20.767959
2069.531598	-2.972300	3.304000	-9.819900	26.810436	9.816570E-5	20.792011
2070.534390	-3.000400	3.302100	-9.906600	26.853196	9.852872E-5	20.787115
2071.532157	-3.012300	3.302300	-9.946800	26.892897	0.000100	20.785784
2072.528837	-3.002700	3.301600	-9.912200	26.896087	9.717563E-5	20.794207
2073.531705	-2.996300	3.303400	-9.897600	26.885755	9.417241E-5	20.798991
2074.533319	-2.998700	3.301500	-9.899100	26.830502	9.750565E-5	20.792272
2075.527766	-3.001800	3.301000	-9.907300	26.853179	9.387538E-5	20.798952
2076.530724	-3.014000	3.299900	-9.945200	26.906035	9.440342E-5	20.792356
2077.531475	-2.997900	3.299100	-9.889900	26.914118	9.602054E-5	20.806648
2078.531546	-2.987300	3.300400	-9.858200	26.861200	9.364437E-5	20.804646
2079.529434	-3.023200	3.298300	-9.970200	26.825825	9.232427E-5	20.795630
2080.531365	-2.989700	3.299500	-9.863300	26.841251	9.328134E-5	20.800709
2081.533011	-2.988600	3.300300	-9.862600	26.881254	9.126819E-5	20.791146
2082.531816	-3.017400	3.298000	-9.951100	26.942970	9.371037E-5	20.792986
2083.530737	-2.991800	3.298800	-9.868700	26.975896	8.998110E-5	20.802389
2084.532237	-2.999900	3.296800	-9.888600	27.010798	9.239028E-5	20.791494
2085.533376	-2.997800	3.298200	-9.886600	27.045168	9.156522E-5	20.797609
2086.534948	-2.964000	3.298200	-9.775100	26.972048	9.050914E-5	20.809899
2087.539764	-3.005000	3.296300	-9.904900	26.951570	8.951907E-5	20.808747
2088.537029	-3.020300	3.296100	-9.954100	26.918759	9.103718E-5	20.803728
2089.539646	-3.003000	3.296800	-9.899500	26.895548	8.823197E-5	20.802200
2090.540375	-2.993300	3.295300	-9.861800	26.894923	9.014611E-5	20.814374
2091.536983	-2.988900	3.295000	-9.847200	26.908242	8.942006E-5	20.801688
2092.538403	-3.012800	3.294900	-9.925200	26.879024	9.107018E-5	20.827310
2093.541604	-2.984600	3.294100	-9.830900	26.929179	8.776994E-5	20.822266
2094.535520	-2.965300	3.295200	-9.770700	26.919766	8.905703E-5	20.804266
2095.543591	-2.994200	3.293800	-9.861300	26.954432	8.899103E-5	20.813995
2096.540679	-2.979100	3.294200	-9.812600	26.981895	8.846299E-5	20.814586
2097.535930	-2.973200	3.295400	-9.796700	26.988490	8.545977E-5	20.831174
2098.541102	-2.998100	3.293600	-9.873500	26.983743	8.786895E-5	20.831143
2099.542045	-3.018900	3.293100	-9.940000	26.985776	8.539376E-5	20.832713
2100.543403	-3.003800	3.292600	-9.888600	27.009767	8.691188E-5	20.840717
2101.541164	-2.998800	3.292900	-9.873900	27.013134	8.470071E-5	20.830353
2102.545580	-3.029800	3.290500	-9.967700	27.020696	8.321561E-5	20.852655
2103.543696	-2.999700	3.291600	-9.873200	27.014291	8.380965E-5	20.820136
2104.543240	-3.002400	3.292000	-9.882000	26.981701	8.509674E-5	20.809175
2105.547149	-3.010600	3.290500	-9.905200	26.960655	8.133447E-5	20.839218
2106.539693	-2.995800	3.290500	-9.857200	26.946551	8.219253E-5	20.816028
2107.542967	-3.004300	3.289800	-9.882800	26.945105	8.107045E-5	20.857721
2108.545954	-2.983300	3.290000	-9.814700	27.014693	8.192851E-5	20.820541
2109.546340	-3.012900	3.288900	-9.908400	27.093619	8.097144E-5	20.831637
2110.550511	-2.984900	3.290100	-9.820300	27.114859	8.338062E-5	20.839247
2111.544383	-3.008700	3.286900	-9.888600	27.092473	8.169749E-5	20.843286
2112.549510	-3.002300	3.288700	-9.872900	27.046036	8.097144E-5	20.836414
2113.550796	-3.011400	3.288000	-9.900100	27.043280	8.281958E-5	20.839332
2114.543765	-2.987200	3.287000	-9.817200	27.064741	8.404067E-5	20.841949
2115.545785	-3.023500	3.286500	-9.936300	27.062604	8.093844E-5	20.835532
2116.551244	-2.987200	3.286200	-9.815300	27.083244	8.159849E-5	20.835427
2117.544992	-2.966500	3.287600	-9.751800	27.097419	7.971735E-5	20.847786
2118.549300	-2.994300	3.286100	-9.838800	27.053364	8.110345E-5	20.861800
2119.546447	-2.996700	3.285500	-9.844800	27.015743	7.942033E-5	20.851942
2120.548208	-3.006100	3.284600	-9.873000	27.028920	7.958534E-5	20.838641
2121.550266	-3.003300	3.284100	-9.862100	27.041025	7.948633E-5	20.852711
2122.554219	-2.960300	3.285600	-9.725300	27.117696	7.975035E-5	20.846368
2123.552647	-3.010400	3.284900	-9.888000	27.135953	7.971735E-5	20.842445
2124.558369	-2.993400	3.284500	-9.830900	27.196223	7.793522E-5	20.856596
2125.552526	-2.990800	3.281900	-9.814300	27.195304	7.988236E-5	20.866103
2126.547565	-2.987200	3.283100	-9.805600	27.198947	7.872728E-5	20.853172
2127.550141	-2.994500	3.282300	-9.828100	27.166094	7.711016E-5	20.868017
2128.548105	-2.977800	3.282000	-9.772500	27.120162	7.671413E-5	20.854064
2129.552229	-2.989800	3.282200	-9.812300	27.060416	7.902430E-5	20.848978
2130.550809	-3.014500	3.282200	-9.893800	26.998082	7.849626E-5	20.841294
2131.563963	-3.023400	3.279300	-9.913400	26.945486	7.717616E-5	20.857155
2132.554882	-3.038300	3.280000	-9.964300	26.965461	7.882628E-5	20.844525
2133.550582	-3.016900	3.280900	-9.897000	26.953379	7.744018E-5	20.863195
2134.550402	-3.016100	3.280700	-9.894200	26.947794	7.691214E-5	20.864217
2135.549335	-3.024200	3.279600	-9.917200	26.908877	7.711016E-5	20.863491
2136.549464	-2.971200	3.279700	-9.744100	26.948479	7.648311E-5	20.856372
2137.555944	-3.002300	3.277100	-9.837600	26.997779	7.585607E-5	20.841938
2138.551347	-2.990700	3.278100	-9.803400	27.035701	7.430495E-5	20.859210
2139.552381	-2.997200	3.277300	-9.822000	27.028151	7.499800E-5	20.869634
2140.554422	-3.010900	3.277500	-9.867400	27.039351	7.513001E-5	20.872837
2141.551586	-3.014700	3.276400	-9.876200	27.110229	7.361190E-5	20.871573
2142.553301	-3.015500	3.276100	-9.878300	27.081183	7.338089E-5	20.869388
2143.550258	-2.999400	3.276200	-9.826100	27.128786	7.278684E-5	20.872220
2144.550561	-3.010000	3.276000	-9.859600	27.205451	7.090571E-5	20.863032
2145.552310	-3.018900	3.273900	-9.882900	27.159105	7.202779E-5	20.856247
2146.554437	-2.985700	3.275500	-9.777500	27.170322	7.245682E-5	20.880329
2147.551245	-3.011200	3.273300	-9.855400	27.172054	7.031166E-5	20.888709
2148.550767	-2.987600	3.275400	-9.784600	27.151433	7.120273E-5	20.879349
2149.554353	-2.984400	3.274300	-9.770800	27.126667	7.113672E-5	20.879097
2150.553865	-3.029700	3.271700	-9.911300	27.108005	7.041067E-5	20.879293
2151.556454	-2.989600	3.273100	-9.784000	27.057191	6.988263E-5	20.886510
2152.557507	-2.997700	3.273100	-9.811000	27.130659	6.948660E-5	20.888800
2153.558520	-3.000300	3.273300	-9.819000	27.206957	6.932159E-5	20.886356
2154.558230	-3.011700	3.272600	-9.855700	27.251415	6.958561E-5	20.877970
2155.554439	-3.003300	3.271000	-9.822700	27.284338	7.146675E-5	20.878370
2156.563328	-3.003300	3.270700	-9.821400	27.298399	6.866154E-5	20.870703
2157.556820	-3.005800	3.270900	-9.831400	27.239697	6.869454E-5	20.874244
2158.557418	-3.012900	3.270600	-9.853400	27.188816	7.130173E-5	20.890869
2159.553612	-2.989400	3.271300	-9.778500	27.172090	6.885956E-5	20.887322
2160.562650	-3.017200	3.269700	-9.864400	27.200552	7.021265E-5	20.883234
2161.562002	-3.003900	3.269500	-9.820400	27.162116	6.889256E-5	20.907161
2162.559159	-2.997500	3.269900	-9.800500	27.213470	6.793549E-5	20.908078
2163.557379	-2.999000	3.269100	-9.801500	27.248873	6.945360E-5	20.890585
2164.560821	-3.000000	3.268100	-9.803700	27.246265	6.803450E-5	20.887014
2165.556453	-2.997700	3.268400	-9.796800	27.198898	6.608735E-5	20.893423
2166.562527	-2.990700	3.267700	-9.770800	27.138329	6.674740E-5	20.872808
2167.560545	-3.006100	3.267300	-9.821100	27.167785	6.720943E-5	20.895794
2168.560885	-3.010000	3.266400	-9.831300	27.159837	6.651638E-5	20.878319
2169.559170	-3.010100	3.266000	-9.830400	27.162047	6.618636E-5	20.890972
2170.555316	-2.983700	3.266900	-9.746600	27.248480	6.757246E-5	20.896827
2171.555665	-3.007000	3.265300	-9.817500	27.319284	6.414021E-5	20.897874
2172.556375	-3.013300	3.265500	-9.839000	27.286484	6.483326E-5	20.905182
2173.558539	-3.026500	3.264800	-9.880400	27.279689	6.470125E-5	20.904511
2174.557394	-3.013100	3.263500	-9.831900	27.327615	6.390919E-5	20.898194
2175.559812	-2.994700	3.264600	-9.775600	27.361601	6.305113E-5	20.906777
2176.560715	-3.004600	3.264500	-9.808200	27.354727	6.351316E-5	20.888957
2177.562794	-2.998500	3.263300	-9.784400	27.316303	6.262210E-5	20.877807
2178.561115	-2.999700	3.262000	-9.784500	27.341260	6.255609E-5	20.905281
2179.560080	-2.991900	3.262300	-9.760200	27.337814	6.516328E-5	20.886169
2180.567465	-3.028800	3.260800	-9.874900	27.348484	6.285312E-5	20.899746
2181.561521	-3.009700	3.260900	-9.813600	27.341138	6.156602E-5	20.889038
2182.563705	-3.019200	3.260300	-9.842400	27.314166	6.229207E-5	20.905053
2183.563152	-2.977500	3.260400	-9.706200	27.343917	6.143401E-5	20.886618
2184.565857	-3.009400	3.260400	-9.811100	27.334416	6.120299E-5	20.903612
2185.563437	-2.996200	3.261000	-9.769800	27.312427	6.041094E-5	20.914682
2186.570829	-2.993100	3.259700	-9.755600	27.335782	6.050994E-5	20.896926
2187.564790	-3.018200	3.258200	-9.833400	27.350736	5.988290E-5	20.878779
2188.565157	-3.004700	3.260500	-9.795900	27.393303	5.951987E-5	20.871815
2189.565493	-3.005500	3.259500	-9.795800	27.339375	6.146701E-5	20.909074
2190.570883	-3.000400	3.257700	-9.773300	27.333565	5.951987E-5	20.897541
2191.565629	-2.996300	3.257400	-9.758600	27.319547	6.041094E-5	20.903353
2192.563027	-3.007000	3.256700	-9.791500	27.304585	5.849680E-5	20.884511
2193.569642	-2.959400	3.257200	-9.638100	27.388761	5.763873E-5	20.893797
2194.569821	-3.001500	3.256700	-9.774000	27.381268	5.981689E-5	20.887209
2195.566171	-3.001300	3.255200	-9.768700	27.431082	5.711069E-5	20.891802
2196.569951	-3.003500	3.255100	-9.775500	27.478083	5.859580E-5	20.888828
2197.570864	-2.986900	3.255500	-9.722600	27.485128	5.869481E-5	20.882640
2198.569541	-3.005700	3.254800	-9.781800	27.442735	5.668166E-5	20.862277
2199.568673	-3.006100	3.254700	-9.782900	27.434901	5.654965E-5	20.888058
2200.570007	-3.005700	3.254100	-9.780000	27.387622	5.945387E-5	20.895022
2201.564509	-3.022400	3.254700	-9.836300	27.430764	5.796876E-5	20.876310
2202.567546	-2.995400	3.253000	-9.742300	27.428750	5.707769E-5	20.868121
2203.572124	-2.984000	3.252900	-9.705500	27.445692	5.513055E-5	20.880897
2204.566998	-3.009800	3.252500	-9.788500	27.419323	5.595561E-5	20.867172
2205.570313	-3.013800	3.253900	-9.806400	27.383656	5.592261E-5	20.888662
2206.568359	-3.004000	3.251000	-9.764200	27.412285	5.674767E-5	20.873367
2207.568204	-3.014500	3.250600	-9.797500	27.432306	5.595561E-5	20.876440
2208.567852	-3.004400	3.250500	-9.765700	27.521387	5.532856E-5	20.875024
2209.579860	-2.990500	3.250300	-9.719100	27.572307	5.489953E-5	20.868411
2210.568454	-2.993900	3.249600	-9.728300	27.596683	5.546057E-5	20.874445
2211.570606	-3.007300	3.249700	-9.771000	27.517348	5.536157E-5	20.885658
2212.568884	-2.995300	3.249500	-9.732900	27.522703	5.291939E-5	20.874452
2213.571417	-3.012100	3.248000	-9.782100	27.525506	5.536157E-5	20.876324
2214.569435	-2.977800	3.249700	-9.675800	27.584039	5.473452E-5	20.881637
2215.571748	-2.985400	3.249200	-9.699500	27.527862	5.559258E-5	20.870634
2216.571390	-2.998200	3.246700	-9.733800	27.503503	5.140128E-5	20.854662
2217.568209	-2.983300	3.248400	-9.690200	27.476211	5.249036E-5	20.861342
2218.571036	-3.018900	3.245300	-9.796400	27.454293	5.437149E-5	20.862525
2219.572249	-2.992600	3.246700	-9.714200	27.447273	5.242435E-5	20.864945
2220.572877	-3.003200	3.246100	-9.748500	27.485203	5.232534E-5	20.875604
2221.575029	-2.976300	3.246600	-9.661800	27.535605	5.113726E-5	20.873208
2222.573879	-2.992500	3.244600	-9.708500	27.561824	5.209433E-5	20.845063
2223.576053	-2.988700	3.244900	-9.696200	27.547239	4.958614E-5	20.863104
2224.572077	-2.985800	3.243500	-9.683400	27.584193	5.077423E-5	20.861879
2225.572995	-2.999400	3.242700	-9.725100	27.553341	4.942113E-5	20.854071
2226.570520	-2.990400	3.243600	-9.698400	27.538212	4.945413E-5	20.866349
2227.571469	-2.998100	3.242500	-9.720500	27.454355	4.958614E-5	20.870648
2228.572395	-3.002200	3.242400	-9.733400	27.438925	4.935513E-5	20.876934
2229.574646	-2.986400	3.243100	-9.684400	27.439371	4.763900E-5	20.860315
2230.571083	-3.032300	3.241300	-9.827400	27.429945	4.925612E-5	20.847988
2231.571410	-3.005900	3.241000	-9.740900	27.410841	4.744099E-5	20.857218
2232.574862	-2.999800	3.241100	-9.720800	27.452770	4.753999E-5	20.854829
2233.575979	-3.006800	3.240400	-9.742300	27.504734	4.638491E-5	20.864909
2234.576318	-2.988500	3.240600	-9.683500	27.477602	4.744099E-5	20.864164
2235.574295	-3.007300	3.238900	-9.738900	27.421793	4.730898E-5	20.858752
2236.577243	-3.009400	3.240000	-9.749800	27.372322	4.780401E-5	20.856873
2237.575191	-3.009300	3.238400	-9.744000	27.400552	4.397573E-5	20.863936
2238.577878	-3.015900	3.238100	-9.764700	27.460887	4.668193E-5	20.854934
2239.579756	-3.003100	3.238300	-9.723600	27.428740	4.631890E-5	20.844879
2240.579377	-2.998700	3.238300	-9.709400	27.427497	4.423975E-5	20.854060
2241.578984	-3.022700	3.235800	-9.780400	27.410659	4.354670E-5	20.850396
2242.580497	-2.988900	3.237600	-9.676100	27.442115	4.209459E-5	20.843161
2243.577062	-3.012100	3.237800	-9.751900	27.479616	4.229261E-5	20.851966
2244.577354	-3.006500	3.236600	-9.729800	27.484960	4.291965E-5	20.862558
2245.580805	-3.004100	3.236700	-9.722500	27.535484	4.579087E-5	20.868346
2246.579099	-2.997000	3.234300	-9.692200	27.582805	4.159956E-5	20.857638
2247.578723	-2.994300	3.234800	-9.685300	27.557836	4.404174E-5	20.854800
2248.579794	-2.985600	3.235000	-9.657400	27.551783	4.437176E-5	20.857719
2249.583324	-2.997400	3.233600	-9.691700	27.535467	4.308467E-5	20.839880
2250.582703	-3.015600	3.232800	-9.747100	27.489809	4.258963E-5	20.847048
2251.584117	-2.983800	3.235000	-9.651800	27.486632	4.216060E-5	20.857128
2252.582623	-2.985600	3.233400	-9.651800	27.538479	4.196258E-5	20.819204
2253.583123	-3.012700	3.230600	-9.732300	27.494828	4.186358E-5	20.848305
2254.589122	-3.006300	3.231200	-9.712500	27.512437	4.166556E-5	20.851322
2255.589122	-3.011700	3.230000	-9.727200	27.538608	4.268864E-5	20.848730
2256.585121	-2.997300	3.231300	-9.684600	27.578395	3.965241E-5	20.831865
2257.586001	-3.007100	3.230500	-9.714000	27.584772	4.074149E-5	20.827850
2258.592001	-3.002000	3.229500	-9.693600	27.577313	4.133554E-5	20.852112
2259.597092	-3.013300	3.228200	-9.726700	27.523338	4.100551E-5	20.814876
2260.591159	-2.985800	3.228900	-9.640100	27.506428	3.961941E-5	20.835794
2261.585160	-2.992200	3.228200	-9.658100	27.548768	4.031246E-5	20.841884
2262.587158	-2.967400	3.227800	-9.577000	27.535322	4.011445E-5	20.833097
2263.586157	-3.015700	3.227100	-9.731200	27.522898	4.027946E-5	20.848571
2264.586300	-2.995200	3.228000	-9.667200	27.587117	4.077450E-5	20.832106
2265.589003	-3.011500	3.226800	-9.717000	27.561450	4.037847E-5	20.827617
2266.586812	-3.003500	3.225700	-9.687300	27.550911	4.159956E-5	20.848307
2267.588463	-3.015500	3.225500	-9.724900	27.633274	3.853033E-5	20.853418
2268.592050	-3.019000	3.224000	-9.731700	27.668677	3.902537E-5	20.837834
2270.843916	-2.968100	3.225900	-9.574000	27.687494	3.744125E-5	20.849656
2271.845429	-3.020800	3.224100	-9.737900	27.684300	3.872835E-5	20.828899
2272.865429	-2.975600	3.225200	-9.596600	27.673291	3.869534E-5	20.827304
2273.849433	-2.998600	3.223500	-9.665200	27.693026	3.945440E-5	20.831516
2274.846364	-3.011700	3.222600	-9.704500	27.718348	4.024646E-5	20.827125
2275.853469	-2.998200	3.221900	-9.659100	27.727600	4.014745E-5	20.846867
2276.853007	-3.021300	3.223000	-9.736400	27.636243	3.968542E-5	20.841233
2277.851000	-2.995000	3.221000	-9.646400	27.614738	3.783728E-5	20.843776
2278.854354	-2.984300	3.220800	-9.610600	27.593655	4.031246E-5	20.824934
2279.853637	-2.977400	3.221000	-9.589700	27.593686	3.813430E-5	20.819749
2280.855333	-3.016800	3.219600	-9.712200	27.623551	3.800229E-5	20.800488
2281.854634	-3.012200	3.219300	-9.695800	27.623447	3.915738E-5	20.809866
2282.850158	-3.019300	3.221400	-9.725700	27.608374	3.836532E-5	20.834528
2283.857881	-3.022900	3.219000	-9.730400	27.616605	3.721024E-5	20.856086
2284.855193	-3.015000	3.219100	-9.703800	27.637014	3.846433E-5	20.830630
2285.851905	-3.007900	3.217400	-9.677000	27.685720	3.816731E-5	20.820371
2286.852225	-2.989600	3.217100	-9.616800	27.666432	3.625317E-5	20.827515
2287.853614	-2.994600	3.215500	-9.628300	27.733708	3.826631E-5	20.826935
2288.851690	-3.010100	3.216100	-9.679700	27.727436	3.740825E-5	20.811141
2289.857829	-3.007300	3.217200	-9.674600	27.667472	3.618716E-5	20.814337
2290.851893	-3.014500	3.214800	-9.689900	27.671137	3.526309E-5	20.818025
2291.851828	-2.990700	3.214700	-9.612800	27.670593	3.549411E-5	20.810839
2292.864708	-2.983900	3.216800	-9.598300	27.659559	3.255689E-5	20.813487
2293.865564	-2.987600	3.214900	-9.603800	27.668854	3.565912E-5	20.829004
2294.853525	-2.992800	3.214600	-9.619900	27.681877	3.572513E-5	20.830728
2295.852043	-3.024200	3.213100	-9.716000	27.700198	3.770527E-5	20.826405
2296.856158	-2.999200	3.212100	-9.633100	27.731872	3.519709E-5	20.834097
2297.855564	-2.994500	3.213400	-9.622100	27.683682	3.407501E-5	20.816898
2298.853640	-3.011300	3.210900	-9.668600	27.678150	3.486706E-5	20.834564
2299.856351	-3.021500	3.211000	-9.701300	27.692237	3.450404E-5	20.847316
2300.857589	-2.981600	3.213100	-9.579400	27.736675	3.229287E-5	20.835137
2301.855021	-2.972300	3.212100	-9.546700	27.785180	3.354697E-5	20.813776
2302.855202	-2.982400	3.210800	-9.574900	27.888026	3.400900E-5	20.804434
2303.858020	-2.974100	3.211300	-9.550200	27.892297	3.542810E-5	20.825327
2304.856071	-2.996900	3.209500	-9.618300	27.828641	3.173183E-5	20.827642
2305.856412	-2.995200	3.208500	-9.608200	27.742867	3.529610E-5	20.829514
2306.859320	-3.015700	3.209400	-9.678000	27.739673	3.216086E-5	20.816817
2307.857317	-3.005400	3.207400	-9.638400	27.765256	3.258990E-5	20.821700
2308.858319	-3.001200	3.207100	-9.625000	27.825741	3.153382E-5	20.818085
2309.857317	-2.998900	3.208300	-9.620500	27.853255	3.232588E-5	20.821120
2310.858318	-3.004100	3.207600	-9.634600	27.841183	3.179784E-5	20.810868
2311.857319	-2.999700	3.205200	-9.614400	27.869022	3.074176E-5	20.816126
2312.858533	-2.988500	3.205400	-9.579000	27.894860	3.179784E-5	20.843078
2313.893003	-3.005600	3.203700	-9.628200	27.800977	3.031273E-5	20.823983
2314.860009	-2.983900	3.204700	-9.561500	27.796021	3.044474E-5	20.823263
2315.858979	-3.001400	3.203300	-9.613300	27.794454	3.004871E-5	20.830221
2316.860329	-3.010800	3.202800	-9.642200	27.847668	3.034573E-5	20.819291
2317.860592	-3.007300	3.204500	-9.636200	27.869389	3.041174E-5	20.823133
2318.865681	-3.015300	3.203000	-9.657100	27.897086	3.070876E-5	20.813552
2319.864617	-2.986500	3.201600	-9.560100	27.867106	3.001571E-5	20.808034
2320.863627	-2.980600	3.203000	-9.545300	27.777413	3.103878E-5	20.821606
2321.863352	-2.980600	3.200700	-9.539200	27.754650	2.981769E-5	20.826674
2322.865355	-2.992400	3.198300	-9.569600	27.779377	2.948767E-5	20.823109
2323.862352	-2.988900	3.199800	-9.563500	27.806159	2.889362E-5	20.810707
2324.866350	-2.979400	3.198400	-9.528700	27.882506	2.971869E-5	20.796507
2325.864350	-3.000800	3.198900	-9.597500	27.881644	2.777154E-5	20.833571
2326.861804	-2.974100	3.197600	-9.509400	27.895697	3.057675E-5	20.822585
2327.864635	-3.013800	3.197700	-9.635800	27.910926	2.935566E-5	20.818946
2328.865951	-3.020400	3.195800	-9.651500	27.927836	2.787055E-5	20.806095
2329.864773	-3.024600	3.197000	-9.668800	27.933189	2.909164E-5	20.812431
2330.865159	-3.007600	3.194700	-9.607700	27.964752	2.813457E-5	20.807690
2331.869164	-2.980500	3.196600	-9.526200	28.025170	2.958668E-5	20.810184
2332.865159	-2.978000	3.196400	-9.517500	28.031024	2.882762E-5	20.811810
2333.865159	-2.986600	3.194700	-9.540500	28.048251	2.760653E-5	20.806391
2334.868159	-2.976500	3.194700	-9.508100	28.040916	2.671546E-5	20.810861
2335.866159	-2.980400	3.193600	-9.517400	28.044507	3.027973E-5	20.809734
2336.867160	-3.013700	3.192700	-9.620700	28.052814	2.777154E-5	20.805295
2337.869158	-3.020300	3.192400	-9.641600	27.999586	2.737551E-5	20.788225
2338.869719	-3.009400	3.192200	-9.606300	27.917417	2.747452E-5	20.794660
2339.867258	-3.006100	3.192000	-9.594200	27.803706	2.740852E-5	20.811557
2340.867640	-3.013400	3.190700	-9.614200	27.755177	2.526336E-5	20.798281
2341.871503	-2.990000	3.190400	-9.538400	27.821456	2.404227E-5	20.817567
2342.866688	-3.011800	3.190000	-9.607000	27.772872	2.394326E-5	20.786691
2343.867682	-2.985500	3.189700	-9.521600	27.754179	2.536237E-5	20.802492
2344.867980	-2.996900	3.188200	-9.553800	27.791890	2.536237E-5	20.793975
2345.868681	-2.997200	3.188300	-9.555300	27.834452	2.381125E-5	20.796033
2346.868693	-3.012000	3.186800	-9.597900	27.851179	2.377825E-5	20.792953
2347.869174	-2.996200	3.187700	-9.550400	27.854711	2.377825E-5	20.791291
2348.869693	-2.993400	3.187000	-9.540100	27.807933	2.450430E-5	20.795897
2349.870508	-3.011900	3.184600	-9.591000	27.802855	2.344822E-5	20.794579
2350.869670	-3.009200	3.184700	-9.582600	27.783140	2.483433E-5	20.790860
2351.876120	-3.015200	3.182900	-9.596300	27.808062	2.150108E-5	20.780853
2352.870087	-3.007300	3.183300	-9.572300	27.746114	2.268917E-5	20.789160
2353.871634	-2.997400	3.184000	-9.543100	27.685760	2.199612E-5	20.783428
2354.872630	-3.025600	3.181900	-9.624900	27.669390	2.301919E-5	20.788766
2355.871974	-3.019100	3.181700	-9.603700	27.650175	2.087404E-5	20.786975
2356.873679	-3.004300	3.180800	-9.554900	27.728522	2.094004E-5	20.772880
2357.875044	-2.969100	3.181200	-9.443600	27.832696	2.146808E-5	20.783835
2358.871660	-3.029600	3.179600	-9.631700	27.881595	2.282118E-5	20.787055
2359.871601	-2.987900	3.179700	-9.500100	27.868680	2.295319E-5	20.789229
2360.877885	-2.995900	3.177600	-9.518500	27.976113	2.166609E-5	20.786409
2361.870676	-2.990000	3.177300	-9.499400	28.046600	2.292019E-5	20.780547
2362.872287	-2.990400	3.178600	-9.504300	28.071100	2.252416E-5	20.776760
2363.872149	-2.977800	3.177900	-9.461800	28.055500	2.110505E-5	20.787610
2364.874990	-2.991800	3.175700	-9.499600	28.035999	2.047801E-5	20.793110
2365.871809	-2.976800	3.175500	-9.451900	28.036763	2.120406E-5	20.785819
2366.871637	-2.996900	3.175900	-9.517100	28.053085	2.334922E-5	20.775221
2367.874729	-2.997800	3.174800	-9.516500	28.028414	2.351423E-5	20.790690
2368.871332	-3.001100	3.174300	-9.525100	28.023061	1.975195E-5	20.766810
2369.872513	-3.002400	3.173600	-9.528400	27.952782	2.103905E-5	20.779994
2370.881418	-3.002400	3.173300	-9.525700	27.889453	2.166609E-5	20.772678
2371.872345	-2.993800	3.172400	-9.496300	27.902222	2.084103E-5	20.767512
2372.872485	-3.021300	3.170400	-9.577200	27.951644	1.879488E-5	20.767469
2373.878706	-3.038400	3.169800	-9.630100	27.972744	2.212813E-5	20.765948
2374.874421	-2.981800	3.170000	-9.451700	28.010136	1.902590E-5	20.758066
2375.876867	-2.973500	3.171100	-9.427900	27.988216	1.816784E-5	20.766823
2376.875872	-3.008800	3.169500	-9.535300	27.970933	2.097304E-5	20.756065
2377.878504	-2.975300	3.169300	-9.428300	27.897419	1.961994E-5	20.764101
2378.876697	-3.003800	3.167600	-9.514000	27.941580	2.001597E-5	20.756391
2379.879411	-3.016400	3.166600	-9.550600	27.980710	1.925692E-5	20.766380
2380.876340	-3.013600	3.164800	-9.535300	28.023154	1.813483E-5	20.764058
2381.879266	-2.985600	3.165800	-9.451100	28.020817	1.965295E-5	20.767870
2382.876704	-2.989800	3.165600	-9.463800	27.989685	1.787081E-5	20.768776
2383.885322	-2.970800	3.164100	-9.397300	27.996855	1.945493E-5	20.777416
2384.879839	-2.994400	3.162900	-9.470200	28.043611	1.754079E-5	20.759520
2385.881036	-2.990700	3.162200	-9.456600	28.056305	1.862987E-5	20.768031
2386.877610	-2.997700	3.161500	-9.476400	28.011262	1.932292E-5	20.758252
2387.878671	-3.011800	3.161000	-9.519800	28.016517	1.800282E-5	20.739833
2388.882882	-3.006100	3.161700	-9.504200	28.070571	1.942193E-5	20.744459
2389.880307	-3.024800	3.160600	-9.559400	28.085944	1.681474E-5	20.763253
2390.880144	-3.012000	3.159400	-9.515300	28.103340	1.905890E-5	20.766541
2391.877948	-2.986700	3.158200	-9.432200	28.155426	1.846486E-5	20.764448
2392.881206	-3.001700	3.156700	-9.474600	28.223099	1.928992E-5	20.752446
2393.883647	-2.993800	3.156600	-9.449100	28.204658	1.909190E-5	20.769442
2394.881494	-3.022800	3.155800	-9.538700	28.138788	1.948793E-5	20.763819
2395.884473	-3.002400	3.154700	-9.470500	28.093920	1.737578E-5	20.753739
2396.885613	-3.027200	3.154500	-9.548300	28.065212	1.978496E-5	20.755186
2397.879162	-2.993800	3.154500	-9.443100	28.009103	1.773881E-5	20.774096
2398.881874	-2.994100	3.153700	-9.441300	28.047833	1.628670E-5	20.764718
2399.885566	-2.968400	3.153600	-9.360400	28.057822	1.433956E-5	20.754859
2400.884799	-2.968400	3.151800	-9.354300	28.031957	1.532963E-5	20.748737
2401.883140	-3.007100	3.150600	-9.473500	28.003046	1.608868E-5	20.768474
2402.881340	-2.992000	3.150100	-9.424300	28.032680	1.605568E-5	20.757051
2403.885780	-3.000000	3.150200	-9.449700	28.092787	1.483459E-5	20.763978
2404.883616	-3.002500	3.149500	-9.456200	28.085233	1.490060E-5	20.768702
2405.882706	-3.030800	3.147600	-9.538600	28.078925	1.546164E-5	20.749075
2406.888733	-3.006800	3.146900	-9.461800	28.123867	1.486759E-5	20.764445
2407.884342	-2.994300	3.147900	-9.425200	28.111694	1.516462E-5	20.753139
2408.885597	-2.980300	3.146600	-9.377100	28.082809	1.199638E-5	20.766736
2409.890588	-2.989100	3.144700	-9.398800	28.090174	1.503261E-5	20.765141
2410.886070	-3.007600	3.143100	-9.452000	28.154799	1.575866E-5	20.749118
2411.884336	-2.984500	3.144100	-9.382800	28.093789	1.493360E-5	20.748865
2412.887966	-2.999100	3.141700	-9.421300	28.128717	1.341549E-5	20.739929
2413.883295	-2.990500	3.141100	-9.392800	28.129286	1.572566E-5	20.756624
2414.885915	-2.996400	3.140600	-9.409600	28.157319	1.410854E-5	20.775362
2415.895249	-2.996000	3.139700	-9.405800	28.174250	1.407554E-5	20.755897
2416.892367	-3.011800	3.139900	-9.456000	28.125591	1.417454E-5	20.733937
2417.891866	-2.965500	3.138800	-9.306900	28.202379	1.318447E-5	20.751500
2418.891662	-2.999600	3.139200	-9.415600	28.228589	1.437256E-5	20.742325
2419.887301	-3.002300	3.136300	-9.415400	28.255199	1.526362E-5	20.749677
2420.886388	-2.994100	3.135800	-9.388200	28.212196	1.470258E-5	20.762806
2421.888711	-2.992800	3.136000	-9.383800	28.216777	1.483459E-5	20.759357
2422.888442	-2.977900	3.134700	-9.334600	28.185369	1.354750E-5	20.761401
2423.890133	-3.017300	3.133500	-9.454000	28.126140	1.361350E-5	20.757724
2424.890309	-3.018300	3.133100	-9.455300	28.153580	1.242541E-5	20.755951
2425.890885	-3.012300	3.132400	-9.434800	28.152540	1.516462E-5	20.763439
2426.889808	-2.995500	3.130300	-9.376000	28.233962	1.140234E-5	20.761961
2427.894600	-2.995200	3.128700	-9.370300	28.315159	1.361350E-5	20.745087
2428.893376	-3.002800	3.129300	-9.395200	28.250763	1.384452E-5	20.749004
2429.889910	-3.003800	3.128700	-9.397400	28.270732	1.450457E-5	20.743030
2430.894263	-3.003900	3.126600	-9.390800	28.222297	1.282144E-5	20.754009
2431.891334	-3.010100	3.126500	-9.410000	28.294694	1.249142E-5	20.752931
2432.889350	-3.003700	3.127200	-9.392500	28.315537	1.166636E-5	20.769650
2433.891389	-3.022800	3.124000	-9.442000	28.352083	1.235941E-5	20.760930
2434.893489	-3.002400	3.124500	-9.380200	28.405740	1.011524E-5	20.764698
2435.894373	-2.986300	3.124800	-9.330800	28.356064	1.024725E-5	20.747868
2436.896094	-2.997000	3.122400	-9.356900	28.274993	1.212839E-5	20.764864
2437.900110	-3.011600	3.121200	-9.398700	28.295212	1.249142E-5	20.740650
2438.899227	-2.998400	3.120900	-9.356800	28.251359	1.014825E-5	20.757190
2439.896719	-3.019900	3.118000	-9.415000	28.319118	1.014825E-5	20.770885
2440.892924	-3.012300	3.119500	-9.396100	28.292984	1.001624E-5	20.761167
2441.896222	-3.013200	3.118400	-9.395700	28.259945	9.026164E-6	20.751610
2442.894182	-3.014400	3.116600	-9.394300	28.270568	1.084130E-5	20.753771
2443.895066	-3.002400	3.115600	-9.353200	28.279876	1.070929E-5	20.744176
2444.897811	-2.999700	3.116200	-9.346900	28.287142	8.234106E-6	20.754337
2445.896918	-2.994900	3.113900	-9.325400	28.310730	8.333113E-6	20.770501
2446.897128	-2.997300	3.113600	-9.331500	28.289208	9.356189E-6	20.782496
2447.897342	-3.004900	3.111500	-9.347400	28.325096	8.993162E-6	20.767421
2448.903039	-2.982100	3.111400	-9.277400	28.388318	9.521201E-6	20.770389
2449.902122	-3.015400	3.110400	-9.377500	28.434353	8.135099E-6	20.759846
2450.900141	-2.982500	3.110300	-9.275800	28.372393	8.927157E-6	20.757672
2451.894569	-3.025300	3.107900	-9.401700	28.325840	7.970087E-6	20.780973
2452.897853	-3.013000	3.107100	-9.359700	28.259280	8.333113E-6	20.793141
2453.894894	-2.989700	3.107100	-9.288300	28.304465	7.541055E-6	20.810185
2454.899549	-2.995400	3.107800	-9.307800	28.372342	6.319965E-6	20.755250
2455.897925	-2.999200	3.104500	-9.310300	28.379754	8.300111E-6	20.764136
2456.898646	-3.006800	3.104100	-9.332600	28.333153	5.725922E-6	20.782173
2457.895461	-3.004800	3.101400	-9.318200	28.271853	7.178028E-6	20.772609
2458.899412	-3.012600	3.101300	-9.342100	28.292721	5.032870E-6	20.785085
2459.901033	-2.978600	3.100700	-9.234500	28.363076	5.989941E-6	20.799026
2460.899529	-2.984900	3.099900	-9.252700	28.402857	8.234106E-6	20.782658
2461.900617	-2.988900	3.098900	-9.261700	28.362385	4.735849E-6	20.768458
2462.897464	-2.976700	3.097600	-9.219300	28.343114	7.838077E-6	20.756640
2463.901419	-3.004700	3.095700	-9.300400	28.388944	7.673065E-6	20.776235
2464.901011	-3.007400	3.095300	-9.307600	28.406531	7.937084E-6	20.785884
2465.901350	-3.000000	3.095100	-9.284500	28.366524	6.583985E-6	20.795385
2466.901644	-2.998800	3.093400	-9.275500	28.335420	7.112024E-6	20.788248
2467.904387	-3.000600	3.093000	-9.280600	28.389713	7.475050E-6	20.758991
2468.898887	-3.018000	3.090600	-9.326300	28.396445	8.993162E-6	20.780944
2469.897832	-3.004800	3.091200	-9.287600	28.443930	8.465123E-6	20.780870
2470.904631	-3.012500	3.089400	-9.305400	28.484619	9.389191E-6	20.781067
2471.900990	-3.001300	3.089200	-9.271000	28.466518	8.300111E-6	20.778486
2472.906574	-3.015600	3.087800	-9.311100	28.393307	6.583985E-6	20.778258
2473.899827	-2.993400	3.086400	-9.238300	28.402248	5.527907E-6	20.787261
2474.900527	-3.001500	3.085700	-9.261400	28.390640	5.527907E-6	20.757554
2475.905441	-3.010100	3.083400	-9.280200	28.348578	9.125172E-6	20.786798
2476.899065	-3.013900	3.083200	-9.291600	28.426543	5.626914E-6	20.791810
2477.904477	-2.991400	3.082700	-9.220700	28.539685	6.220958E-6	20.775830
2478.910724	-2.992100	3.079200	-9.212400	28.479437	5.659917E-6	20.793866
2479.905921	-3.005600	3.079000	-9.253200	28.412795	7.343041E-6	20.804993
2480.904791	-3.005800	3.077600	-9.249700	28.352863	4.537834E-6	20.786846
2481.902076	-3.013800	3.077300	-9.273500	28.368825	5.098875E-6	20.785374
2482.905850	-2.973800	3.077900	-9.151400	28.451337	5.692919E-6	20.795916
2483.900925	-2.996600	3.074900	-9.213100	28.439835	5.824929E-6	20.786703
2484.905663	-2.980700	3.074400	-9.162700	28.465774	5.560909E-6	20.788169
2485.906268	-2.992600	3.074600	-9.199900	28.487977	7.970087E-6	20.797726
2486.905611	-2.998800	3.071300	-9.209000	28.515823	4.768851E-6	20.780723
2487.905954	-2.975000	3.072200	-9.139200	28.490588	5.593912E-6	20.786604
2488.907828	-2.995600	3.070700	-9.196800	28.532222	4.405824E-6	20.793445
2489.906679	-3.005100	3.069000	-9.221500	28.600905	6.055946E-6	20.800502
2490.907016	-2.987300	3.067900	-9.164100	28.677690	7.046019E-6	20.795335
2491.911198	-3.009800	3.065500	-9.225400	28.700621	4.966866E-6	20.780975
2492.907590	-2.996000	3.065700	-9.183300	28.559413	6.781999E-6	20.806129
2493.908915	-3.018600	3.065000	-9.251000	28.524646	4.306817E-6	20.806677
2494.908887	-3.013800	3.062100	-9.227800	28.575414	4.471829E-6	20.799485
2495.908351	-3.010000	3.061600	-9.214600	28.627469	4.240812E-6	20.789798
2496.908499	-3.003000	3.059900	-9.187300	28.616238	4.306817E-6	20.803616
2497.914724	-2.997700	3.059300	-9.170400	28.548070	4.075800E-6	20.808930
2498.920714	-2.967300	3.058800	-9.075500	28.579516	6.649990E-6	20.804090
2499.907321	-3.018200	3.056900	-9.224900	28.581613	5.626914E-6	20.785339
2500.910453	-3.013200	3.055100	-9.204800	28.540029	6.550982E-6	20.810315
2501.910037	-3.014900	3.053800	-9.205500	28.588448	4.273815E-6	20.813086
2502.912961	-3.011900	3.053200	-9.195100	28.629920	1.633620E-6	20.811707
2503.908999	-2.999400	3.051100	-9.150700	28.546467	3.382749E-6	20.811584
2504.915802	-3.021400	3.049400	-9.212700	28.514518	2.722700E-6	20.813548
2505.914635	-2.998300	3.049200	-9.141800	28.573908	2.359674E-6	20.790856
2506.912444	-3.000900	3.048800	-9.148400	28.611143	4.834856E-6	20.806072
2507.912000	-2.993700	3.046600	-9.119400	28.668424	5.461902E-6	20.813504
2508.912946	-3.002400	3.045500	-9.142700	28.669482	4.735849E-6	20.813621
2509.914800	-3.010100	3.043800	-9.160000	28.677063	2.656696E-6	20.799445
2510.917542	-3.024800	3.043000	-9.202400	28.605847	4.603839E-6	20.783195
2511.918711	-3.003200	3.042400	-9.135700	28.558193	2.128657E-6	20.822444
2512.914164	-3.031000	3.038800	-9.209900	28.508652	3.415751E-6	20.807167
2513.915032	-2.993000	3.039400	-9.096000	28.592677	4.933863E-6	20.796009
2514.918980	-3.028100	3.036800	-9.195100	28.588012	1.996647E-6	20.806957
2515.915406	-2.976600	3.037000	-9.039300	28.618313	7.425547E-7	20.807603
2516.913333	-3.007800	3.034800	-9.127000	28.620569	2.524686E-6	20.810824
2517.914682	-2.978900	3.035300	-9.040900	28.591228	1.699625E-6	20.821575
2518.911730	-3.047800	3.031900	-9.239400	28.613006	9.405693E-7	20.799888
2519.917084	-3.004200	3.031100	-9.105200	28.644737	-1.155085E-7	20.832320
2520.920433	-2.991700	3.031400	-9.068600	28.724075	-7.425547E-7	20.836366
2521.928508	-3.008600	3.029300	-9.113200	28.692926	1.072579E-6	20.801199
2522.913365	-3.010100	3.027200	-9.111900	28.575477	4.125304E-7	20.801919
2523.914011	-2.992000	3.027100	-9.056200	28.481734	5.115377E-7	20.800447
2524.913419	-2.986500	3.026200	-9.036300	28.485397	-1.402603E-6	20.823102
2525.912874	-2.990000	3.024900	-9.044200	28.545534	-1.039577E-6	20.825817
2526.914257	-2.985700	3.022200	-9.022200	28.653095	-4.125304E-7	20.827935
2527.916580	-2.966200	3.022300	-8.963700	28.637284	-3.465255E-7	20.819123
2528.917350	-2.990300	3.021200	-9.033000	28.614302	2.145158E-7	20.826796
2529.926742	-2.991800	3.018400	-9.029800	28.600386	-1.435606E-6	20.821790
2530.925938	-2.990000	3.018100	-9.023900	28.609459	-3.465255E-7	20.819074
2531.920965	-2.980300	3.016200	-8.988600	28.721751	-2.145158E-7	20.811740
2532.919454	-2.988400	3.015800	-9.011300	28.739388	1.650122E-8	20.824290
2533.919219	-2.988000	3.013900	-9.004000	28.725664	1.336598E-6	20.810940
2534.921749	-3.018400	3.011700	-9.089500	28.681438	-1.699625E-6	20.814284
2535.918678	-3.007900	3.011100	-9.055800	28.618557	-5.775425E-7	20.841039
2536.925822	-3.001500	3.009600	-9.031800	28.603033	-2.095654E-6	20.828249
2537.921468	-2.987800	3.007800	-8.985500	28.568848	-2.590691E-6	20.812313
2538.929714	-3.006000	3.006500	-9.037000	28.612406	-3.679771E-6	20.829154
2539.924199	-3.016300	3.005500	-9.064000	28.587179	-2.029649E-6	20.836938
2540.923918	-2.974000	3.004500	-8.934100	28.604745	-1.501611E-6	20.807214
2541.921477	-2.996200	3.002100	-8.993500	28.617756	-6.765498E-7	20.828378
2542.922302	-3.009700	3.002300	-9.035100	28.624060	-1.633620E-6	20.814813
2543.926067	-2.990700	3.000500	-8.973100	28.725291	-1.600618E-6	20.824314
2544.922543	-2.983300	2.999500	-8.947000	28.733837	-1.369601E-6	20.813009
2545.926311	-3.009700	2.997100	-9.019600	28.782126	-1.633620E-6	20.826562
2546.927660	-3.010300	2.996300	-9.018800	28.815839	-1.237591E-6	20.850564
2547.925889	-3.007100	2.995300	-9.005700	28.793520	1.666623E-6	20.832350
2548.927496	-2.985100	2.994900	-8.938900	28.750881	-1.369601E-6	20.837289
2549.926026	-2.982200	2.992600	-8.923600	28.765547	-5.115377E-7	20.838311
2550.923867	-3.011400	2.990000	-9.003400	28.741693	-6.435474E-7	20.833723
2551.924253	-3.019900	2.989600	-9.027400	28.745361	-8.415620E-7	20.826987
2552.929421	-2.992400	2.987400	-8.938200	28.818840	-1.897640E-6	20.836993
2553.926534	-3.015300	2.985600	-9.001600	28.879338	-9.075668E-7	20.849573
2554.928096	-2.984700	2.986300	-8.912400	28.881783	-2.953718E-6	20.837338
2555.935004	-3.007900	2.982000	-8.968400	28.789309	-6.435474E-7	20.822892
2556.926319	-2.996400	2.981000	-8.931500	28.833132	-8.745644E-7	20.828157
2557.928255	-3.016000	2.979400	-8.985100	28.762129	-2.062652E-6	20.833920
2558.925752	-2.999100	2.978700	-8.932600	28.703435	-3.580764E-6	20.849240
2559.925346	-3.006900	2.978000	-8.953400	28.691984	-2.788705E-6	20.846716
2560.926836	-2.998200	2.975900	-8.921900	28.714610	-4.042798E-6	20.837738
2561.931139	-3.013700	2.973800	-8.960700	28.741191	-3.613766E-6	20.827529
2562.931532	-3.006500	2.972500	-8.936000	28.772137	4.455328E-7	20.849216
2563.926550	-3.004500	2.971300	-8.925100	28.782963	-1.072579E-6	20.831199
2564.939556	-2.978100	2.971400	-8.848100	28.805655	-2.590691E-6	20.827504
2565.925352	-3.014800	2.967500	-8.945200	28.822202	-1.897640E-6	20.841328
2566.929036	-3.007100	2.966500	-8.919100	28.775756	-2.805207E-7	20.834370
2567.928155	-2.989300	2.965700	-8.864400	28.656463	-7.425547E-7	20.832276
2568.925779	-3.007400	2.962800	-8.909200	28.639387	-1.369601E-6	20.852061
2569.929185	-2.997800	2.962900	-8.881100	28.695114	-2.128657E-6	20.850817
2570.935342	-2.989300	2.959600	-8.846700	28.739908	-5.775425E-7	20.837615
2571.935031	-2.978600	2.958700	-8.811200	28.751376	-1.831635E-6	20.840632
2572.930925	-3.010800	2.959200	-8.908400	28.822826	4.785352E-7	20.851439
2573.927796	-2.986700	2.955000	-8.824400	28.774026	-9.405693E-7	20.852067
2574.939738	-3.017000	2.953100	-8.908700	28.746070	-1.402603E-6	20.849511
2575.930612	-2.980300	2.953600	-8.801200	28.773029	1.105581E-6	20.836365
2576.929237	-3.016100	2.951100	-8.899700	28.751327	2.260666E-6	20.844376
2577.940222	-3.020500	2.950100	-8.909400	28.752593	1.567615E-6	20.846125
2578.932319	-3.011900	2.948900	-8.880300	28.727173	-8.745644E-7	20.850866
2579.930203	-2.995500	2.945700	-8.822600	28.766641	8.415620E-7	20.846051
2580.928394	-3.011400	2.946000	-8.870100	28.744450	-8.085595E-7	20.838397
2581.931330	-2.988600	2.944400	-8.799500	28.840761	1.798632E-6	20.837264
2582.929039	-3.008300	2.942200	-8.850500	28.893978	4.125304E-7	20.846778
2583.930229	-3.002100	2.940100	-8.826100	28.874949	8.745644E-7	20.857479
2584.934505	-3.001400	2.939600	-8.822100	28.865707	-8.250608E-8	20.853859
2585.931160	-3.008500	2.937700	-8.836500	28.798227	-6.435474E-7	20.845152
2586.930511	-2.990800	2.935900	-8.779900	28.787548	-2.145158E-7	20.863791
2587.933276	-2.965500	2.934600	-8.701700	28.845223	-2.194662E-6	20.835595
2588.931497	-2.971300	2.934200	-8.717300	28.845052	2.805207E-7	20.854862
2589.935518	-2.995700	2.930300	-8.777200	28.945767	-1.171586E-6	20.862442
2590.939411	-3.019700	2.929400	-8.845000	28.927589	1.650122E-8	20.852664
2591.933586	-2.980900	2.928600	-8.729300	28.930315	1.039577E-6	20.863471
2592.936298	-2.970900	2.925700	-8.690900	28.974133	1.815134E-7	20.863520
2593.936270	-3.005800	2.924400	-8.789100	28.995886	1.155085E-7	20.865521
2594.933749	-3.001000	2.922000	-8.768300	28.923555	8.415620E-7	20.854764
2595.936641	-3.000300	2.921300	-8.763400	28.923775	1.155085E-7	20.843132
2596.937912	-2.979000	2.919400	-8.695700	28.942332	-4.125304E-7	20.862775
2597.935641	-3.003000	2.916900	-8.758700	28.921227	6.105450E-7	20.867116
2598.940107	-3.004000	2.915800	-8.758000	28.918574	4.950364E-8	20.849271
2599.941839	-2.992500	2.914900	-8.721600	28.914436	1.633620E-6	20.876869
2600.936766	-2.981600	2.912200	-8.681200	28.947527	7.095522E-7	20.874172
2601.937448	-3.006000	2.909700	-8.744600	29.019783	1.303596E-6	20.873476
2602.944995	-2.989100	2.908900	-8.693900	29.049895	1.996647E-6	20.885797
2603.941389	-2.980800	2.908100	-8.667500	29.042909	2.590691E-6	20.873544
2604.936676	-2.969800	2.905600	-8.626700	28.990696	2.128657E-6	20.851759
2605.945493	-2.992800	2.904400	-8.691600	28.951903	8.745644E-7	20.863883
2606.943646	-2.987400	2.901100	-8.666100	29.005976	7.425547E-7	20.860989
2607.941134	-2.980100	2.900300	-8.642600	28.940999	4.950364E-8	20.868070
2608.947392	-3.003100	2.897400	-8.700300	28.919789	1.155085E-7	20.865668
2609.937342	-2.990400	2.895600	-8.657600	28.890951	1.006574E-6	20.872176
2610.941419	-3.019400	2.893700	-8.735900	28.838340	-8.250608E-8	20.860902
2611.943195	-2.978200	2.893100	-8.614900	28.864765	-8.085595E-7	20.869504
2612.940222	-2.975600	2.891400	-8.603400	28.964316	8.415620E-7	20.857423
2613.936945	-3.006500	2.888700	-8.684100	28.970404	1.996647E-6	20.857392
2614.943042	-3.007700	2.886200	-8.680500	28.968155	6.435474E-7	20.855600
2615.938713	-3.032900	2.883000	-8.742900	29.006317	-1.171586E-6	20.848531
2616.938063	-3.005500	2.884000	-8.667000	29.098681	2.260666E-6	20.861936
2617.948019	-2.970600	2.883400	-8.564000	29.079162	5.775425E-7	20.881147
2618.941862	-2.999900	2.880000	-8.638400	29.085798	-2.145158E-7	20.883567
2619.945776	-3.019500	2.876900	-8.685900	29.097984	1.155085E-7	20.879251
2620.943345	-3.023500	2.875000	-8.692000	29.119948	-5.445401E-7	20.883838
2621.939642	-2.999500	2.874200	-8.620800	29.178070	-4.950365E-8	20.868912
2622.944111	-3.004600	2.871600	-8.627700	29.157885	4.785352E-7	20.880341
2623.946433	-3.003600	2.870600	-8.621300	29.177055	2.805207E-7	20.882114
2624.942394	-2.962600	2.868900	-8.498200	29.172924	4.950364E-8	20.885538
2625.941707	-2.991600	2.866800	-8.575300	29.222769	1.204589E-6	20.877447
2626.943746	-3.017100	2.864200	-8.640900	29.256970	8.250607E-8	20.873980
2627.942350	-3.028300	2.861700	-8.665000	29.270541	-1.270594E-6	20.880070
2628.943819	-3.007500	2.861200	-8.604300	29.229063	1.600618E-6	20.894694
2629.943454	-3.024300	2.858000	-8.642800	29.171036	-2.293669E-6	20.874152
2630.942956	-3.000700	2.856300	-8.569700	29.149269	1.155085E-7	20.897735
2631.942935	-3.013800	2.853800	-8.600200	29.200533	-7.095522E-7	20.902452
2632.944259	-3.018300	2.852200	-8.607200	29.246765	-2.095654E-6	20.893093
2633.945246	-3.030600	2.849300	-8.634100	29.234825	-1.897640E-6	20.885802
2634.946671	-3.014700	2.848300	-8.586100	29.175588	-2.128657E-6	20.893437
2635.946387	-3.014400	2.845900	-8.577700	29.199964	-2.722700E-6	20.886233
2636.959723	-3.011400	2.843400	-8.562200	29.185103	-1.633620E-6	20.881689
2637.950298	-2.986300	2.843800	-8.491500	29.110861	-2.227664E-6	20.895543
2638.948357	-2.986600	2.841000	-8.483200	29.105165	-2.475182E-7	20.895020
2639.947078	-3.021600	2.837700	-8.573400	29.117595	-2.194662E-6	20.906596
2640.944293	-3.006200	2.835500	-8.523500	29.107720	-1.963645E-6	20.877207
2641.948358	-3.003900	2.833200	-8.509700	29.108710	-2.359674E-6	20.897169
2642.947140	-2.994400	2.831700	-8.478500	29.105636	-1.600618E-6	20.912562
2643.952206	-3.020700	2.827600	-8.539700	29.170596	-2.029649E-6	20.902630
2644.948331	-3.017300	2.827000	-8.529000	29.138850	-4.455328E-7	20.883918
2645.949982	-2.999500	2.824500	-8.471700	29.204927	-4.785352E-7	20.898345
2646.948858	-3.010300	2.820500	-8.489900	29.176628	-6.765498E-7	20.883580
2647.948987	-2.998600	2.818500	-8.450500	29.181400	-1.501611E-6	20.886966
2648.948172	-2.976600	2.817800	-8.386500	29.195150	-1.204589E-6	20.892286
2649.948282	-2.996700	2.813000	-8.428200	29.084057	4.455328E-7	20.891769
2650.950274	-3.023300	2.810900	-8.497400	29.130142	1.155085E-7	20.891264
2651.947152	-2.976600	2.810200	-8.363700	29.183240	4.455328E-7	20.914422
2652.949105	-2.985500	2.806300	-8.377700	29.221578	-4.950365E-8	20.905168
2653.956514	-3.021800	2.803000	-8.468900	29.264889	-5.775425E-7	20.901873
2654.953242	-2.988400	2.802200	-8.373900	29.252980	-1.666623E-6	20.897933
2655.955717	-3.001700	2.798700	-8.400600	29.248581	-4.455328E-7	20.902982
2656.955106	-2.988600	2.797600	-8.360400	29.247664	2.145158E-7	20.884516
2657.951260	-3.001700	2.794200	-8.387100	29.323162	3.795279E-7	20.907969
2658.956155	-3.000600	2.790900	-8.373400	29.430894	-1.270594E-6	20.899435
2659.954437	-3.001900	2.788500	-8.369500	29.384101	-9.735717E-7	20.884990
2660.955529	-3.013700	2.786100	-8.395400	29.371821	-2.326671E-6	20.901061
2661.956658	-3.007200	2.783300	-8.368300	29.315964	-1.303596E-6	20.895975
2662.958388	-2.995600	2.780200	-8.327200	29.238034	-1.369601E-6	20.910371
2663.954125	-3.008700	2.777800	-8.357100	29.209828	-9.405693E-7	20.915137
2664.952643	-3.005600	2.774900	-8.339300	29.265647	-2.029649E-6	20.901689
2665.959537	-3.008200	2.770500	-8.333400	29.273590	3.465255E-7	20.872238
2666.954341	-2.990100	2.768200	-8.276500	29.303861	-2.920715E-6	20.897527
2667.956904	-2.991400	2.765600	-8.271900	29.287143	-8.745644E-7	20.879732
2668.960298	-3.006700	2.763000	-8.306700	29.259531	-2.029649E-6	20.876087
2669.955543	-2.985100	2.759000	-8.234900	29.303683	2.475182E-7	20.887392
2670.961797	-2.995200	2.756800	-8.255900	29.298508	1.815134E-7	20.885970
2671.958876	-3.014100	2.753200	-8.298000	29.333971	-1.155085E-7	20.888519
2672.956476	-3.003300	2.749000	-8.255400	29.401019	-7.425547E-7	20.896351
2673.957034	-3.020200	2.745600	-8.291500	29.458703	-2.656696E-6	20.905654
2674.957313	-3.024400	2.741900	-8.292500	29.524436	-2.359674E-6	20.910747
2675.954374	-2.990600	2.739700	-8.191500	29.504931	-9.075668E-7	20.894879
2676.954390	-2.999900	2.736100	-8.207000	29.529812	-2.788705E-6	20.894356
2677.956942	-2.997600	2.732300	-8.188400	29.556299	-1.798632E-6	20.890237
2678.958769	-3.002300	2.729700	-8.194700	29.525481	-1.072579E-6	20.872448
2679.956695	-3.010500	2.725200	-8.203300	29.572884	2.805207E-7	20.890360
2680.960030	-3.003100	2.722300	-8.174200	29.619399	-2.689698E-6	20.874190
2681.960649	-3.012300	2.718400	-8.187700	29.640986	3.135231E-7	20.879357
2682.957300	-2.998700	2.715600	-8.142200	29.573006	-1.138584E-6	20.880052
2683.958482	-3.004800	2.712000	-8.148100	29.547185	-1.171586E-6	20.878679
2684.960631	-3.004800	2.708300	-8.137200	29.529189	5.115377E-7	20.879030
2685.957819	-2.988400	2.704500	-8.081000	29.534662	9.735717E-7	20.870798
2686.958290	-3.014400	2.700700	-8.139200	29.582609	-4.125304E-7	20.881672
2687.958722	-2.994700	2.696800	-8.074800	29.619295	1.897640E-6	20.882620
2688.958593	-2.999800	2.692900	-8.076400	29.552512	2.161659E-6	20.874566
2689.959457	-3.003900	2.687600	-8.072900	29.553679	4.125304E-7	20.882380
2690.963223	-3.007800	2.684600	-8.073900	29.587422	1.006574E-6	20.875619
2691.962089	-3.005700	2.679500	-8.053200	29.544937	2.095654E-6	20.867879
2692.960798	-2.997800	2.675900	-8.021300	29.492529	-5.115377E-7	20.857251
2693.960937	-2.994500	2.671400	-7.998800	29.436844	-4.785352E-7	20.873667
2694.963305	-3.016500	2.667700	-8.046300	29.461239	1.930642E-6	20.868858
2695.959424	-2.959100	2.664900	-7.884600	29.439624	7.755571E-7	20.858452
2696.958105	-3.018300	2.658400	-8.022500	29.490526	-1.650122E-8	20.875619
2697.959670	-3.031800	2.652600	-8.041100	29.532867	1.237591E-6	20.862824
2698.961341	-2.992600	2.650000	-7.929800	29.626363	4.455328E-7	20.875995
2699.959292	-3.016700	2.644000	-7.975100	29.597098	2.524686E-6	20.861192
2700.960461	-3.003600	2.639900	-7.928400	29.617182	4.405824E-6	20.847301
2701.959217	-2.967600	2.635400	-7.819900	29.588217	8.415620E-7	20.851291
2702.967233	-2.976400	2.629700	-7.826500	29.532317	1.270594E-6	20.858477
2703.964245	-3.016000	2.624800	-7.915500	29.580764	2.887713E-6	20.871752
2704.963372	-3.013300	2.619400	-7.892900	29.638958	2.656696E-6	20.864511
2705.964207	-3.000600	2.613100	-7.839800	29.655597	1.468608E-6	20.862793
2706.966376	-3.003100	2.608200	-7.831700	29.652420	4.108802E-6	20.850583
2707.965680	-3.011100	2.603900	-7.839600	29.655712	8.745644E-7	20.860065
2708.968570	-3.002500	2.599300	-7.803500	29.635586	3.052725E-6	20.889559
2709.965826	-3.023600	2.591500	-7.835100	29.700764	2.920715E-6	20.854277
2710.966842	-2.954600	2.588000	-7.645400	29.771966	6.435474E-7	20.860631
2711.968377	-2.987700	2.582000	-7.713700	29.764986	2.821708E-6	20.856912
2712.966237	-2.983400	2.576900	-7.687000	29.713255	5.445401E-7	20.860231
2713.966339	-2.987100	2.570800	-7.677600	29.735279	1.303596E-6	20.845927
2714.965857	-2.996200	2.563300	-7.678600	29.732872	-5.115377E-7	20.843027
2715.968309	-2.980700	2.559000	-7.627000	29.766482	1.732628E-6	20.842774
2716.967341	-2.982200	2.551900	-7.609300	29.830284	2.722700E-6	20.843094
2717.965281	-3.024700	2.546000	-7.699800	29.897618	1.567615E-6	20.847454
2718.965754	-3.008900	2.539300	-7.639300	29.911272	2.326671E-6	20.846049
2719.967519	-3.009600	2.533000	-7.622900	29.876653	-5.775425E-7	20.867090
2720.968918	-2.995000	2.528300	-7.570500	29.861032	1.171586E-6	20.856080
2721.967512	-3.029700	2.520900	-7.637000	29.823407	9.075668E-7	20.846117
2722.971131	-3.044700	2.514000	-7.653400	29.829068	3.052725E-6	20.843765
2723.965305	-3.015900	2.507800	-7.562100	29.842656	1.072579E-6	20.823327
2724.966918	-3.010500	2.502300	-7.532800	29.904200	2.359674E-6	20.843660
2725.970571	-2.989500	2.497200	-7.464700	29.973538	2.689698E-6	20.843882
