LabVIEW Measurement	
Writer_Version	2
Reader_Version	2
Separator	Tab
Decimal_Separator	.
Multi_Headings	No
X_Columns	One
Time_Pref	Absolute
Operator	admin
Description	Clolumns are: time, Current, Voltage, Power, Battery Temp, and Chamber Temp
Date	2024/08/16
Time	13:07:17.8513970375061035156
***End_of_Header***	
	
Channels	6						
Samples	1	1	1	1	1	1	
Date	2024/09/08	2024/09/08	2024/09/08	2024/09/08	2024/09/08	2024/09/08	
Time	14:29:38.0770688056945800781	14:29:38.0840287208557128906	14:29:38.0920529365539550781	14:29:38.05638885498046875	14:29:38.05638885498046875	14:29:38.05638885498046875	
X_Dimension	Time	Time	Time	Time	Time	Time	
X0	0.0000000000000000E+0	0.0000000000000000E+0	0.0000000000000000E+0	0.0000000000000000E+0	0.0000000000000000E+0	0.0000000000000000E+0	
Delta_X	1.000000	1.000000	1.000000	1.000000	1.000000	1.000000	
***End_of_Header***							
X_Value	Untitled	Untitled 1	Untitled 2	Untitled 3	Untitled 4	Untitled 5	Comment
0.000000	0.035778	4.086500	0.146210	20.761324	0.000462	20.849042
0.995958	-3.011100	3.919500	-11.801000	20.779970	0.000459	20.849669
1.995179	-3.003500	3.913200	-11.753000	20.787161	0.000459	20.846903
3.000221	-2.987800	3.909100	-11.679000	20.792125	0.000460	20.850445
3.998534	-3.002500	3.905000	-11.723000	20.797444	0.000460	20.841066
4.999269	-3.034700	3.902400	-11.842000	20.791932	0.000456	20.850726
5.998080	-2.967900	3.901100	-11.577000	20.816084	0.000458	20.848800
6.998020	-2.980600	3.898600	-11.619000	20.785719	0.000459	20.855892
7.999205	-3.003700	3.896600	-11.704000	20.798946	0.000458	20.857739
8.997293	-2.998500	3.894600	-11.676000	20.814746	0.000455	20.841298
9.998383	-2.976000	3.894400	-11.588000	20.835929	0.000457	20.866748
10.996346	-2.997900	3.890600	-11.662000	20.823231	0.000455	20.861636
11.996589	-3.010300	3.890900	-11.712000	20.814795	0.000454	20.838502
13.000263	-2.987000	3.889400	-11.617000	20.837203	0.000452	20.846686
13.998398	-2.998800	3.888300	-11.659000	20.840369	0.000452	20.844636
14.998102	-2.993800	3.887200	-11.637000	20.849230	0.000451	20.843066
15.998269	-2.994700	3.886700	-11.639000	20.875336	0.000453	20.839777
17.004502	-3.002000	3.883900	-11.659000	20.874136	0.000452	20.857068
17.999805	-2.988300	3.883500	-11.604000	20.872961	0.000452	20.844987
19.000490	-2.992500	3.882500	-11.617000	20.904401	0.000451	20.855566
20.002193	-2.998300	3.881900	-11.639000	20.887708	0.000451	20.860209
21.002061	-2.987900	3.881000	-11.595000	20.922288	0.000450	20.845481
21.998129	-2.973500	3.882300	-11.543000	20.926456	0.000452	20.860554
23.005522	-2.984700	3.881200	-11.583000	20.928802	0.000448	20.857685
24.004471	-2.975300	3.881200	-11.547000	20.937657	0.000450	20.862273
24.999800	-2.980700	3.879500	-11.563000	20.948882	0.000449	20.883930
26.003266	-2.985900	3.878400	-11.580000	20.968868	0.000450	20.868832
27.001348	-2.986100	3.877800	-11.577000	20.985712	0.000449	20.859127
28.002198	-2.998700	3.877900	-11.628000	20.980068	0.000449	20.852534
29.003123	-3.004100	3.877500	-11.647000	20.973307	0.000448	20.866634
30.000887	-3.010200	3.876300	-11.668000	20.994438	0.000448	20.878759
31.004040	-2.985200	3.876700	-11.571000	21.007307	0.000449	20.881199
32.003177	-2.995300	3.875000	-11.606000	21.016962	0.000447	20.883268
33.002096	-2.993800	3.874500	-11.598000	21.026364	0.000449	20.893619
34.003546	-3.006200	3.874800	-11.646000	21.035119	0.000449	20.872981
35.004595	-2.994900	3.874100	-11.601000	21.047543	0.000447	20.868812
36.007187	-2.991400	3.873900	-11.588000	21.045642	0.000448	20.899151
37.007208	-3.003200	3.873400	-11.631000	21.051405	0.000446	20.852287
38.006259	-2.995700	3.873100	-11.600000	21.072959	0.000447	20.866259
39.007136	-3.005500	3.872600	-11.638000	21.073527	0.000445	20.891481
40.008873	-3.020300	3.871900	-11.693000	21.079063	0.000447	20.852924
41.006123	-2.989300	3.872300	-11.575000	21.103663	0.000445	20.890330
42.013201	-2.989400	3.871000	-11.571000	21.106680	0.000444	20.865849
43.008317	-2.986600	3.872000	-11.563000	21.103179	0.000444	20.891269
44.009113	-2.989900	3.872700	-11.578000	21.121992	0.000443	20.869311
45.008441	-3.000100	3.869800	-11.609000	21.133867	0.000443	20.869810
46.007688	-3.003800	3.870800	-11.626000	21.146661	0.000442	20.896830
47.007811	-2.981200	3.871000	-11.539000	21.143644	0.000443	20.888597
48.011892	-2.989900	3.870700	-11.572000	21.161029	0.000443	20.884651
49.010081	-2.988800	3.870300	-11.567000	21.179268	0.000445	20.888197
50.009193	-2.981800	3.870700	-11.540000	21.175595	0.000446	20.889738
51.011924	-3.003200	3.868800	-11.618000	21.172726	0.000442	20.889239
52.009046	-2.999000	3.869500	-11.604000	21.172356	0.000444	20.886024
53.012657	-3.002600	3.869100	-11.617000	21.205555	0.000444	20.889837
54.010702	-2.989300	3.868400	-11.563000	21.225610	0.000444	20.887614
55.010749	-3.004100	3.867300	-11.617000	21.231150	0.000443	20.872769
56.011594	-2.979700	3.869400	-11.529000	21.215933	0.000444	20.871771
57.011342	-3.007900	3.867300	-11.631000	21.247694	0.000442	20.890266
58.012768	-3.008400	3.866700	-11.632000	21.246046	0.000444	20.872971
59.012274	-2.989700	3.868400	-11.564000	21.248662	0.000443	20.881278
60.012614	-3.012700	3.866100	-11.647000	21.248070	0.000441	20.874522
61.011233	-3.000700	3.867200	-11.602000	21.277875	0.000444	20.853132
62.012341	-3.007000	3.866100	-11.625000	21.250509	0.000443	20.876487
63.012105	-2.999700	3.867000	-11.598000	21.281642	0.000444	20.869702
64.017442	-3.001000	3.867200	-11.604000	21.295984	0.000444	20.862713
65.013410	-3.001600	3.865000	-11.600000	21.294414	0.000444	20.864461
66.014568	-3.002100	3.865700	-11.604000	21.296759	0.000444	20.863963
67.016136	-2.990900	3.866300	-11.563000	21.304846	0.000444	20.872526
68.014801	-2.987000	3.864700	-11.544000	21.325097	0.000445	20.874769
69.019738	-2.982400	3.865400	-11.527000	21.342460	0.000443	20.890242
70.016384	-3.012400	3.864500	-11.641000	21.351267	0.000442	20.860175
71.017779	-3.012200	3.863100	-11.635000	21.347579	0.000442	20.866442
72.016238	-2.995600	3.865100	-11.577000	21.378310	0.000443	20.842661
73.021674	-3.004000	3.864400	-11.608000	21.363317	0.000443	20.875549
74.021720	-3.009500	3.863800	-11.627000	21.377412	0.000442	20.852193
75.020615	-2.994100	3.863500	-11.566000	21.404795	0.000442	20.859202
76.017862	-2.999900	3.863800	-11.589000	21.390183	0.000443	20.868763
77.018944	-3.010400	3.862800	-11.628000	21.394023	0.000443	20.854115
78.021230	-2.994200	3.863500	-11.567000	21.419268	0.000443	20.855191
79.018523	-2.999400	3.863200	-11.586000	21.408171	0.000442	20.868743
80.020416	-2.995400	3.862700	-11.569000	21.431195	0.000443	20.851951
81.020366	-3.022500	3.861700	-11.671000	21.435159	0.000443	20.852124
82.019609	-3.014400	3.861800	-11.639000	21.450777	0.000444	20.856846
83.023564	-3.018300	3.862400	-11.657000	21.446389	0.000443	20.862886
84.024930	-2.989700	3.862200	-11.547000	21.442998	0.000443	20.840527
85.025179	-3.016300	3.859900	-11.641000	21.473499	0.000444	20.836907
86.023454	-2.999000	3.860700	-11.577000	21.482256	0.000445	20.863686
87.023307	-3.000700	3.860300	-11.582000	21.477265	0.000445	20.837831
88.025927	-3.003500	3.860700	-11.595000	21.498219	0.000444	20.853107
89.026264	-3.008600	3.861300	-11.617000	21.492582	0.000445	20.837510
90.026452	-3.008000	3.860900	-11.612000	21.520589	0.000444	20.829499
91.029850	-3.018100	3.860500	-11.651000	21.521038	0.000446	20.831371
92.026281	-3.020900	3.859600	-11.658000	21.541636	0.000447	20.851507
93.027465	-3.014600	3.861200	-11.638000	21.559642	0.000445	20.838231
94.031323	-3.000600	3.861400	-11.585000	21.553532	0.000447	20.832591
95.027491	-3.019200	3.860400	-11.654000	21.536947	0.000445	20.824056
96.029502	-2.990300	3.859600	-11.540000	21.566251	0.000447	20.834887
97.027226	-3.020500	3.860400	-11.659000	21.568843	0.000448	20.827997
98.027392	-2.981600	3.859500	-11.507000	21.574455	0.000448	20.841673
99.028955	-3.038000	3.859000	-11.722000	21.577673	0.000449	20.833040
100.029553	-2.988600	3.859400	-11.534000	21.601685	0.000447	20.840947
101.030449	-2.986400	3.860500	-11.528000	21.610634	0.000449	20.838522
102.027163	-2.999900	3.858800	-11.574000	21.605742	0.000449	20.817507
103.027856	-2.993800	3.859200	-11.553000	21.614947	0.000449	20.834779
104.029740	-3.004200	3.858100	-11.590000	21.620381	0.000449	20.835949
105.032466	-3.021200	3.859000	-11.658000	21.618787	0.000451	20.848104
106.028754	-3.006200	3.858100	-11.597000	21.625865	0.000452	20.827686
107.029850	-2.994600	3.858700	-11.555000	21.639902	0.000451	20.836517
108.030143	-2.995600	3.856900	-11.553000	21.672224	0.000450	20.829035
109.030776	-3.018600	3.857500	-11.644000	21.676685	0.000452	20.839189
110.030994	-3.008100	3.857700	-11.604000	21.667155	0.000453	20.831549
111.032652	-3.000500	3.857600	-11.574000	21.675506	0.000449	20.833742
112.033733	-3.004500	3.856100	-11.585000	21.688570	0.000452	20.844444
113.031333	-3.008500	3.856600	-11.602000	21.697917	0.000452	20.820135
114.040635	-2.999600	3.856800	-11.568000	21.712752	0.000450	20.836404
115.033398	-2.988800	3.858200	-11.530000	21.744243	0.000452	20.827618
116.033587	-3.008700	3.857200	-11.605000	21.714717	0.000451	20.838844
117.037161	-3.014100	3.857200	-11.625000	21.760869	0.000453	20.824817
118.033903	-3.015100	3.856700	-11.628000	21.726354	0.000451	20.821093
119.034926	-3.009400	3.856000	-11.604000	21.743508	0.000451	20.827830
120.032375	-3.012300	3.854800	-11.611000	21.745749	0.000451	20.843348
121.033354	-3.042500	3.854000	-11.724000	21.747491	0.000455	20.814273
122.034561	-2.993100	3.856100	-11.541000	21.765291	0.000452	20.819286
123.036450	-2.986200	3.855100	-11.511000	21.778058	0.000455	20.814520
124.036738	-3.001100	3.855300	-11.569000	21.815252	0.000454	20.833728
125.034826	-3.011300	3.855900	-11.610000	21.808442	0.000454	20.814110
126.036587	-2.978600	3.855500	-11.483000	21.833876	0.000454	20.812539
127.036844	-2.995400	3.854700	-11.546000	21.835568	0.000455	20.836518
128.039055	-2.989800	3.855100	-11.526000	21.834794	0.000455	20.849967
129.037639	-2.985800	3.854900	-11.509000	21.824791	0.000455	20.818945
130.038635	-3.000900	3.854100	-11.564000	21.836679	0.000455	20.811552
131.042968	-2.989000	3.854600	-11.520000	21.859615	0.000454	20.809853
132.039454	-2.994900	3.853900	-11.542000	21.874497	0.000456	20.825697
133.044822	-2.992300	3.855000	-11.535000	21.864949	0.000454	20.824201
134.041068	-2.997500	3.853000	-11.549000	21.909127	0.000454	20.832385
135.040957	-3.005000	3.854300	-11.581000	21.896258	0.000455	20.817607
136.041067	-2.994800	3.853500	-11.540000	21.897226	0.000455	20.841334
137.040567	-3.010900	3.852900	-11.600000	21.890594	0.000455	20.834222
138.040043	-3.020300	3.852600	-11.635000	21.903848	0.000456	20.826152
139.046226	-3.005800	3.852900	-11.580000	21.916613	0.000457	20.834662
140.041410	-3.014700	3.851500	-11.611000	21.933760	0.000456	20.832859
141.043206	-2.976100	3.853500	-11.468000	21.938220	0.000458	20.821204
142.045507	-2.981200	3.853200	-11.486000	21.938970	0.000455	20.815316
143.042222	-2.998000	3.851200	-11.545000	21.979455	0.000456	20.840194
144.047160	-3.010000	3.851600	-11.592000	21.967983	0.000458	20.822073
145.042044	-3.024000	3.851900	-11.647000	21.991366	0.000460	20.829358
146.041081	-3.008200	3.851600	-11.585000	21.957888	0.000459	20.827614
147.043627	-3.004100	3.850700	-11.567000	21.993561	0.000459	20.831556
148.044904	-2.981000	3.851400	-11.481000	21.985105	0.000461	20.813608
149.045915	-2.993300	3.851100	-11.527000	21.994376	0.000459	20.812457
150.041903	-2.969100	3.851400	-11.434000	21.994977	0.000462	20.798835
151.042188	-3.001400	3.849900	-11.554000	21.991909	0.000460	20.800504
152.044629	-2.988100	3.850100	-11.503000	22.009158	0.000462	20.799754
153.045564	-2.990300	3.850600	-11.513000	22.007934	0.000464	20.816072
154.042258	-3.004900	3.849400	-11.565000	22.009424	0.000462	20.817564
155.041786	-2.985900	3.850600	-11.497000	22.013515	0.000462	20.824978
156.042186	-2.986100	3.850600	-11.497000	22.029051	0.000462	20.807340
157.042704	-2.988500	3.849900	-11.504000	22.026471	0.000464	20.840792
158.044500	-2.998500	3.849300	-11.541000	22.060894	0.000465	20.817406
159.042334	-2.994700	3.850500	-11.530000	22.040133	0.000464	20.815115
160.045105	-2.995000	3.848900	-11.527000	22.054643	0.000463	20.812097
161.042749	-3.005200	3.849200	-11.567000	22.073085	0.000463	20.805429
162.041260	-2.996600	3.847900	-11.530000	22.097363	0.000464	20.820251
163.043559	-2.987200	3.849600	-11.497000	22.091255	0.000464	20.795171
164.043095	-3.007500	3.848700	-11.575000	22.103387	0.000463	20.817748
165.046499	-2.995500	3.848200	-11.527000	22.107452	0.000466	20.805222
166.047645	-2.978500	3.850300	-11.467000	22.118765	0.000464	20.811332
167.046962	-3.013500	3.846900	-11.592000	22.146683	0.000465	20.802772
168.045902	-3.001500	3.848200	-11.549000	22.133269	0.000466	20.818266
169.047082	-2.992800	3.848000	-11.515000	22.163797	0.000464	20.802363
170.044718	-3.015300	3.847900	-11.602000	22.165143	0.000465	20.813668
171.049944	-2.992600	3.848000	-11.515000	22.168656	0.000466	20.803909
172.047118	-3.015800	3.846100	-11.598000	22.195275	0.000465	20.799266
173.045714	-2.999100	3.847000	-11.536000	22.201979	0.000466	20.810246
174.054539	-2.983100	3.848500	-11.480000	22.217805	0.000466	20.805228
175.046535	-2.989200	3.847400	-11.500000	22.182410	0.000468	20.798713
176.051246	-3.015000	3.845400	-11.592000	22.231864	0.000466	20.818356
177.052628	-3.021800	3.845100	-11.618000	22.227552	0.000466	20.787961
178.049240	-3.002100	3.846200	-11.546000	22.220868	0.000469	20.799760
179.047913	-3.022500	3.845200	-11.621000	22.206690	0.000469	20.801686
180.048864	-3.007900	3.845100	-11.565000	22.245740	0.000470	20.794792
181.048781	-2.990800	3.846400	-11.503000	22.221046	0.000469	20.783817
182.051740	-3.004200	3.844100	-11.548000	22.278617	0.000469	20.791201
183.054324	-3.025700	3.843600	-11.628000	22.269846	0.000469	20.817032
184.051190	-2.990200	3.844700	-11.496000	22.289188	0.000470	20.800837
185.051495	-2.999400	3.845400	-11.533000	22.259458	0.000470	20.805208
186.056494	-2.996400	3.844300	-11.518000	22.266882	0.000470	20.798417
187.055721	-3.018800	3.843700	-11.602000	22.276950	0.000470	20.801385
188.050228	-2.984900	3.844400	-11.475000	22.307734	0.000471	20.789536
189.051716	-3.013300	3.842800	-11.578000	22.307833	0.000472	20.795325
190.051320	-2.991900	3.843000	-11.497000	22.324106	0.000471	20.795024
191.054013	-3.009100	3.842700	-11.562000	22.322458	0.000471	20.774408
192.052772	-2.999700	3.843800	-11.529000	22.307631	0.000473	20.804605
193.053415	-3.012300	3.842600	-11.573000	22.325630	0.000471	20.794653
194.051466	-2.982700	3.842700	-11.460000	22.346460	0.000475	20.800338
195.053264	-2.999100	3.842000	-11.522000	22.330888	0.000473	20.805134
196.053496	-3.004400	3.842700	-11.544000	22.354933	0.000475	20.772313
197.056022	-2.970500	3.843300	-11.416000	22.358223	0.000471	20.780824
198.051725	-3.014900	3.841900	-11.582000	22.343421	0.000474	20.773113
199.052334	-3.014000	3.841900	-11.578000	22.350297	0.000472	20.771938
200.055271	-2.988300	3.841400	-11.479000	22.331879	0.000475	20.797592
201.051294	-3.011700	3.842500	-11.572000	22.329689	0.000472	20.785442
202.054365	-2.991100	3.842400	-11.492000	22.360788	0.000474	20.800936
203.052642	-3.007300	3.840100	-11.548000	22.374244	0.000473	20.789754
204.054026	-3.009100	3.841900	-11.560000	22.391462	0.000475	20.778073
205.054707	-3.013900	3.841700	-11.577000	22.418150	0.000477	20.790574
206.055669	-3.022800	3.839800	-11.606000	22.425504	0.000479	20.787981
207.067870	-3.003200	3.839600	-11.530000	22.416084	0.000476	20.793246
208.056802	-3.003300	3.840900	-11.534000	22.433228	0.000478	20.775801
209.056737	-2.997400	3.841300	-11.512000	22.434599	0.000477	20.773855
210.062078	-3.008800	3.839300	-11.550000	22.457543	0.000478	20.805841
211.057481	-3.005300	3.839500	-11.538000	22.497343	0.000477	20.770783
212.064986	-2.970600	3.841000	-11.409000	22.524004	0.000477	20.786578
213.057588	-3.024100	3.838300	-11.607000	22.488964	0.000480	20.764288
214.056930	-3.008100	3.839600	-11.549000	22.507552	0.000477	20.790016
215.058097	-3.008800	3.839200	-11.550000	22.523077	0.000478	20.789443
216.057286	-3.000800	3.838500	-11.517000	22.517149	0.000480	20.774023
217.060137	-3.005200	3.838700	-11.536000	22.528935	0.000478	20.791043
218.058130	-3.010900	3.838100	-11.555000	22.555468	0.000478	20.782054
219.057875	-3.016000	3.837200	-11.572000	22.550063	0.000480	20.757200
220.057893	-2.988900	3.838500	-11.472000	22.551685	0.000480	20.766412
221.057494	-2.993800	3.838500	-11.491000	22.588266	0.000482	20.783135
222.057885	-2.984300	3.838200	-11.453000	22.553125	0.000482	20.763587
223.060216	-3.006000	3.837000	-11.533000	22.543286	0.000481	20.765587
224.059739	-3.003500	3.837100	-11.524000	22.560379	0.000481	20.775119
225.059776	-2.993500	3.836600	-11.483000	22.542660	0.000482	20.773969
226.060828	-3.007100	3.837300	-11.538000	22.564566	0.000482	20.764140
227.061267	-3.020900	3.835600	-11.587000	22.545555	0.000482	20.765014
228.063396	-2.998700	3.835200	-11.499000	22.571016	0.000484	20.771074
229.061097	-2.971700	3.837100	-11.401000	22.557938	0.000483	20.767459
230.060313	-3.000800	3.834800	-11.507000	22.587236	0.000481	20.759818
231.060617	-2.982600	3.836100	-11.441000	22.579735	0.000484	20.772694
232.062105	-2.996900	3.835900	-11.495000	22.609161	0.000483	20.766604
233.066701	-2.993700	3.835900	-11.483000	22.613347	0.000485	20.758944
234.066982	-2.987700	3.835900	-11.459000	22.630266	0.000486	20.758820
235.062514	-3.002900	3.834000	-11.512000	22.612973	0.000483	20.779906
236.063222	-2.996700	3.834800	-11.489000	22.642875	0.000487	20.770027
237.064371	-2.989400	3.835000	-11.463000	22.653758	0.000486	20.749159
238.063499	-3.017500	3.833000	-11.565000	22.637540	0.000486	20.755674
239.065068	-3.003800	3.834100	-11.516000	22.620567	0.000487	20.751002
240.063667	-2.982700	3.834700	-11.436000	22.651446	0.000486	20.750636
241.063475	-3.004600	3.832200	-11.513000	22.669528	0.000488	20.765429
242.064322	-2.984000	3.834000	-11.440000	22.659138	0.000486	20.753125
243.064285	-3.012100	3.833100	-11.545000	22.657817	0.000488	20.743741
244.070827	-3.021200	3.832600	-11.578000	22.648468	0.000488	20.768991
245.065322	-2.974600	3.833700	-11.402000	22.667482	0.000489	20.783768
246.064151	-2.971600	3.833200	-11.389000	22.670445	0.000490	20.776780
247.066006	-2.988900	3.831700	-11.451000	22.672487	0.000488	20.757013
248.067104	-3.015300	3.832100	-11.553000	22.674400	0.000489	20.767939
249.066156	-2.978000	3.833000	-11.414000	22.699790	0.000489	20.762550
250.067021	-2.971400	3.833500	-11.390000	22.732723	0.000490	20.758080
251.067143	-2.997300	3.831400	-11.482000	22.742012	0.000489	20.746522
252.065601	-2.998100	3.831300	-11.485000	22.766177	0.000490	20.757927
253.068643	-2.984300	3.830900	-11.432000	22.752574	0.000489	20.762792
254.066818	-2.982500	3.831600	-11.427000	22.741386	0.000491	20.751585
255.071917	-3.005100	3.830200	-11.508000	22.770413	0.000490	20.752212
256.068715	-3.003700	3.830400	-11.505000	22.812958	0.000490	20.758797
257.070050	-2.979600	3.829900	-11.411000	22.817864	0.000490	20.754702
258.068251	-2.977800	3.829600	-11.403000	22.808797	0.000491	20.754628
259.068058	-2.989400	3.830600	-11.451000	22.810390	0.000494	20.750533
260.071018	-3.023800	3.827800	-11.574000	22.816839	0.000491	20.762210
261.071035	-3.014600	3.829800	-11.544000	22.792073	0.000493	20.753996
262.075159	-3.029900	3.827700	-11.596000	22.805656	0.000491	20.748637
263.068481	-3.010700	3.828800	-11.526000	22.827232	0.000493	20.749861
264.070893	-3.000100	3.828100	-11.482000	22.838068	0.000493	20.760244
265.077442	-3.007800	3.827500	-11.511000	22.832685	0.000494	20.762911
266.070574	-3.002900	3.826400	-11.489000	22.812485	0.000493	20.755003
267.069200	-3.009100	3.827000	-11.514000	22.793902	0.000493	20.757251
268.067147	-2.991000	3.827800	-11.448000	22.831841	0.000495	20.758273
269.068582	-2.985800	3.827600	-11.428000	22.831294	0.000494	20.762466
270.072613	-2.995800	3.826100	-11.461000	22.870652	0.000495	20.769179
271.069772	-3.011400	3.826800	-11.524000	22.876662	0.000493	20.757655
272.069896	-3.010600	3.826000	-11.517000	22.877529	0.000494	20.750464
273.071325	-2.989100	3.825400	-11.434000	22.865229	0.000497	20.755210
274.076975	-3.002000	3.825400	-11.483000	22.888173	0.000496	20.772982
275.076681	-3.011400	3.826600	-11.523000	22.886980	0.000496	20.758984
276.073379	-2.993400	3.825600	-11.450000	22.869493	0.000493	20.773233
277.070814	-3.007700	3.825900	-11.506000	22.878860	0.000495	20.750849
278.071078	-3.020700	3.825200	-11.554000	22.897895	0.000495	20.740520
279.070601	-3.014300	3.824700	-11.528000	22.899295	0.000497	20.771796
280.070592	-2.976700	3.825900	-11.388000	22.928041	0.000497	20.755076
281.075037	-3.010600	3.825300	-11.515000	22.947647	0.000498	20.751011
282.071006	-2.999700	3.825400	-11.474000	22.960302	0.000498	20.748042
283.070898	-2.994900	3.825400	-11.456000	22.952182	0.000499	20.776893
284.083700	-2.994300	3.824800	-11.451000	22.919556	0.000498	20.751791
285.070934	-3.004200	3.823800	-11.486000	22.907350	0.000498	20.755683
286.078233	-2.989300	3.824200	-11.431000	22.918659	0.000499	20.762272
287.080779	-3.002900	3.823900	-11.481000	22.967932	0.000498	20.753317
288.076624	-2.996400	3.822000	-11.452000	22.996998	0.000499	20.759205
289.075814	-3.015900	3.821500	-11.525000	23.014009	0.000501	20.754913
290.078622	-2.985700	3.822800	-11.413000	23.016627	0.000503	20.761803
291.080113	-3.014300	3.821100	-11.517000	23.017199	0.000499	20.765221
292.078416	-3.004800	3.820700	-11.479000	23.023228	0.000500	20.758933
293.074297	-3.016300	3.821100	-11.525000	23.024775	0.000502	20.766174
294.075670	-3.012000	3.820600	-11.506000	23.032263	0.000501	20.753762
295.078189	-3.000000	3.821100	-11.463000	23.055806	0.000502	20.759333
296.074386	-2.970200	3.822700	-11.353000	23.064624	0.000502	20.736400
297.077035	-2.995700	3.821200	-11.446000	23.085845	0.000502	20.736800
298.075040	-2.997500	3.819600	-11.449000	23.078446	0.000503	20.770165
299.073727	-2.983800	3.820300	-11.399000	23.099109	0.000503	20.751989
300.079724	-2.996500	3.819700	-11.445000	23.087185	0.000503	20.756636
301.075950	-3.008700	3.818800	-11.488000	23.097892	0.000502	20.767839
302.076980	-3.001100	3.820400	-11.465000	23.094732	0.000505	20.749973
303.080313	-2.996200	3.819600	-11.442000	23.114054	0.000505	20.739937
304.077761	-3.004200	3.818700	-11.471000	23.139162	0.000503	20.773158
305.076627	-3.006600	3.818300	-11.479000	23.138413	0.000504	20.755812
306.083161	-3.007300	3.817900	-11.480000	23.136175	0.000506	20.765423
307.083620	-3.022900	3.819400	-11.544000	23.151268	0.000504	20.756365
308.080257	-3.010800	3.818300	-11.495000	23.154876	0.000505	20.763774
309.078882	-2.995100	3.818400	-11.436000	23.141927	0.000504	20.762178
310.079377	-2.996500	3.818800	-11.442000	23.138147	0.000507	20.780201
311.079702	-3.003000	3.818600	-11.467000	23.125938	0.000507	20.765596
312.077723	-2.978500	3.816300	-11.366000	23.137896	0.000508	20.768095
313.081752	-3.007800	3.817000	-11.480000	23.170229	0.000509	20.759718
314.078710	-2.995900	3.816800	-11.433000	23.168183	0.000507	20.769048
315.080503	-2.990200	3.817000	-11.412000	23.197692	0.000509	20.783920
316.079858	-2.996400	3.816400	-11.434000	23.201354	0.000509	20.748234
317.080557	-2.992500	3.816400	-11.420000	23.221271	0.000508	20.771513
318.079908	-2.985700	3.815900	-11.392000	23.192956	0.000510	20.762104
319.081259	-2.984800	3.817300	-11.393000	23.217539	0.000511	20.750704
320.081024	-2.989100	3.814800	-11.401000	23.215326	0.000510	20.765082
321.080732	-3.009200	3.815100	-11.480000	23.179017	0.000510	20.791284
322.084062	-3.003500	3.814800	-11.456000	23.188401	0.000512	20.797370
323.081990	-2.996900	3.816100	-11.435000	23.194828	0.000512	20.770619
324.085137	-3.017000	3.814900	-11.508000	23.158365	0.000513	20.761580
325.081182	-2.996400	3.813800	-11.427000	23.188722	0.000510	20.752171
326.081515	-3.002700	3.814500	-11.452000	23.184636	0.000511	20.785062
327.082852	-2.999500	3.812900	-11.435000	23.167523	0.000510	20.784034
328.082283	-3.003300	3.813200	-11.451000	23.167272	0.000513	20.761971
329.081335	-3.007100	3.813000	-11.465000	23.211951	0.000513	20.766441
330.086507	-3.009900	3.813500	-11.477000	23.234662	0.000513	20.774028
331.084194	-2.993500	3.813100	-11.413000	23.262567	0.000513	20.769751
332.085987	-2.993000	3.811400	-11.407000	23.273897	0.000513	20.773045
333.090095	-2.996300	3.812200	-11.422000	23.279353	0.000514	20.749114
334.085125	-2.994600	3.812000	-11.414000	23.308060	0.000513	20.775989
335.088465	-3.019700	3.811400	-11.508000	23.290181	0.000514	20.773243
336.085819	-2.996600	3.811800	-11.421000	23.303728	0.000514	20.754103
337.085917	-2.993700	3.810900	-11.408000	23.297770	0.000512	20.778004
338.086214	-3.011300	3.812000	-11.479000	23.296272	0.000514	20.759907
339.086288	-3.026600	3.810800	-11.533000	23.310195	0.000514	20.773860
340.091031	-2.988500	3.812400	-11.391000	23.269832	0.000514	20.777031
341.088777	-2.994200	3.811300	-11.411000	23.291896	0.000514	20.794876
342.089521	-3.000300	3.809900	-11.430000	23.289299	0.000515	20.777101
343.092413	-3.000100	3.809900	-11.429000	23.266865	0.000513	20.766946
344.099411	-3.001100	3.810600	-11.435000	23.263475	0.000514	20.775876
345.092087	-2.998000	3.809800	-11.421000	23.276022	0.000517	20.770433
346.089034	-2.986000	3.808900	-11.373000	23.267432	0.000514	20.758979
347.090625	-2.975700	3.808500	-11.332000	23.259118	0.000514	20.795692
348.089315	-2.949000	3.809500	-11.233000	23.285189	0.000518	20.779146
349.090475	-2.976400	3.808300	-11.334000	23.322934	0.000514	20.774300
350.090127	-2.961900	3.809500	-11.282000	23.331287	0.000517	20.750903
351.095954	-2.997700	3.808100	-11.415000	23.356002	0.000516	20.798907
352.093089	-2.998800	3.807800	-11.418000	23.370120	0.000516	20.772280
353.092797	-2.997600	3.806500	-11.409000	23.376221	0.000516	20.789775
354.098544	-3.010600	3.807300	-11.462000	23.395395	0.000517	20.779121
355.093657	-3.004900	3.808200	-11.442000	23.408365	0.000516	20.782164
356.096340	-2.973700	3.807000	-11.320000	23.405704	0.000517	20.798937
357.093344	-2.976900	3.808000	-11.335000	23.454005	0.000519	20.784761
358.094910	-3.016700	3.805800	-11.481000	23.439769	0.000516	20.799890
359.092220	-3.010000	3.805100	-11.452000	23.444273	0.000518	20.788283
360.094781	-2.997600	3.806500	-11.409000	23.410316	0.000516	20.809249
361.095357	-3.000000	3.805700	-11.417000	23.422714	0.000517	20.787063
362.095243	-2.991100	3.806300	-11.383000	23.412937	0.000517	20.802868
363.102828	-2.987400	3.806200	-11.370000	23.432830	0.000516	20.796728
364.096764	-3.020600	3.804900	-11.492000	23.437112	0.000518	20.777313
365.099634	-2.996400	3.805900	-11.403000	23.443543	0.000518	20.778068
366.096755	-3.017300	3.804100	-11.478000	23.435230	0.000517	20.770210
367.097281	-2.971400	3.806500	-11.310000	23.448347	0.000518	20.771504
368.098755	-3.000200	3.803900	-11.412000	23.435653	0.000518	20.790075
369.100276	-3.015000	3.803400	-11.466000	23.468697	0.000520	20.783841
370.099865	-2.981600	3.803700	-11.340000	23.447164	0.000518	20.775534
371.098461	-3.008900	3.803900	-11.444000	23.465765	0.000520	20.788015
372.100214	-2.995700	3.802300	-11.389000	23.458620	0.000519	20.776111
373.103770	-3.005300	3.801900	-11.424000	23.482474	0.000519	20.778210
374.101927	-2.995100	3.803000	-11.389000	23.462735	0.000518	20.784977
375.101134	-2.997300	3.802600	-11.397000	23.479094	0.000520	20.763916
376.098986	-3.002900	3.803900	-11.422000	23.481621	0.000520	20.788261
377.103019	-3.006900	3.801900	-11.431000	23.506046	0.000520	20.786191
378.103102	-2.989500	3.801900	-11.364000	23.549016	0.000520	20.797497
379.105161	-3.001400	3.801500	-11.409000	23.542744	0.000522	20.767976
380.101301	-3.011900	3.801900	-11.451000	23.596000	0.000520	20.804767
381.102534	-2.988200	3.801100	-11.358000	23.578327	0.000520	20.794637
382.100538	-3.001100	3.801400	-11.407000	23.583037	0.000519	20.780866
383.104103	-3.003700	3.801500	-11.418000	23.564122	0.000521	20.772810
384.104331	-3.012300	3.799300	-11.444000	23.569552	0.000522	20.787737
385.102473	-2.985000	3.800900	-11.345000	23.557229	0.000523	20.806678
386.112285	-2.998900	3.799100	-11.392000	23.603089	0.000523	20.810451
387.102739	-3.000900	3.800800	-11.405000	23.600158	0.000522	20.812728
388.108943	-2.997800	3.799900	-11.390000	23.604587	0.000523	20.801995
389.102654	-3.008400	3.798600	-11.427000	23.641306	0.000525	20.784753
390.102051	-3.003700	3.799600	-11.412000	23.622639	0.000526	20.785479
391.104192	-3.000400	3.797400	-11.393000	23.639025	0.000526	20.796216
392.106185	-3.000700	3.797700	-11.395000	23.651051	0.000527	20.785987
393.106293	-2.975100	3.799600	-11.303000	23.685355	0.000526	20.797619
394.114211	-2.983900	3.797000	-11.329000	23.672782	0.000527	20.796868
395.106760	-2.977600	3.796600	-11.303000	23.674009	0.000527	20.800469
396.106293	-2.995800	3.797000	-11.374000	23.680276	0.000527	20.783992
397.112680	-3.006500	3.795600	-11.410000	23.688921	0.000528	20.800721
398.108546	-2.969400	3.796100	-11.271000	23.700514	0.000528	20.784367
399.112653	-2.982400	3.796900	-11.322000	23.686951	0.000527	20.798745
400.109679	-2.998500	3.797000	-11.385000	23.665791	0.000529	20.783221
401.107983	-2.996000	3.795100	-11.369000	23.653322	0.000527	20.800592
402.108536	-2.983400	3.796000	-11.324000	23.669304	0.000527	20.800019
403.113736	-2.997400	3.795400	-11.375000	23.664299	0.000528	20.793579
404.108518	-2.948600	3.795500	-11.190000	23.649139	0.000528	20.807304
405.111371	-3.011700	3.793700	-11.424000	23.675645	0.000529	20.803531
406.110727	-3.006700	3.794100	-11.407000	23.684335	0.000528	20.804657
407.110143	-3.013700	3.793500	-11.432000	23.684138	0.000530	20.791657
408.113400	-3.014800	3.793200	-11.434000	23.727215	0.000529	20.804499
409.108508	-2.989500	3.793700	-11.340000	23.724234	0.000529	20.810520
410.109581	-2.991900	3.794300	-11.351000	23.725269	0.000529	20.812506
411.108813	-3.003600	3.794000	-11.395000	23.726569	0.000531	20.799111
412.109075	-2.979300	3.794200	-11.302000	23.741398	0.000530	20.801650
413.111176	-3.005800	3.792000	-11.398000	23.753024	0.000530	20.792443
414.108871	-2.993200	3.792600	-11.351000	23.753467	0.000531	20.828449
415.114211	-2.975600	3.791800	-11.281000	23.735491	0.000529	20.804737
416.109933	-2.991900	3.792400	-11.346000	23.761029	0.000530	20.819909
417.110405	-3.004100	3.793300	-11.394000	23.759832	0.000532	20.812545
418.109566	-2.990600	3.790900	-11.336000	23.743354	0.000530	20.804085
419.111043	-2.975400	3.792000	-11.282000	23.719900	0.000534	20.808071
420.110157	-2.993900	3.790400	-11.348000	23.749069	0.000531	20.811237
421.113712	-2.993300	3.791700	-11.348000	23.780557	0.000532	20.821945
422.111722	-2.988100	3.789500	-11.322000	23.814103	0.000532	20.820967
423.110710	-2.992500	3.790500	-11.342000	23.814719	0.000531	20.812102
424.114368	-2.978500	3.790500	-11.290000	23.777306	0.000534	20.822953
425.119850	-3.011700	3.789300	-11.411000	23.777331	0.000533	20.831038
426.114406	-3.001600	3.790100	-11.375000	23.795670	0.000533	20.820977
427.114227	-2.996900	3.788900	-11.355000	23.816473	0.000533	20.828559
428.112543	-3.009600	3.787400	-11.397000	23.815227	0.000533	20.823990
429.114297	-3.003300	3.788800	-11.378000	23.805390	0.000533	20.839731
430.114325	-3.005600	3.788200	-11.386000	23.819050	0.000535	20.820711
431.114581	-3.000500	3.787300	-11.362000	23.813198	0.000534	20.817215
432.115367	-3.003200	3.787600	-11.373000	23.817099	0.000534	20.835351
433.115656	-3.000200	3.787800	-11.364000	23.844892	0.000534	20.827656
434.115719	-3.006400	3.788000	-11.387000	23.850985	0.000535	20.825231
435.114437	-2.987600	3.788500	-11.317000	23.840611	0.000536	20.815778
436.116737	-3.005600	3.786400	-11.379000	23.853862	0.000534	20.844237
437.116280	-3.009500	3.785900	-11.392000	23.845799	0.000532	20.832359
438.114287	-2.998300	3.786800	-11.353000	23.855576	0.000536	20.819404
439.116104	-3.025100	3.785700	-11.452000	23.855168	0.000534	20.830848
440.116793	-3.001700	3.785700	-11.362000	23.857227	0.000536	20.833861
441.120361	-3.014600	3.785300	-11.410000	23.888338	0.000535	20.844667
442.116311	-2.984300	3.786100	-11.298000	23.882939	0.000533	20.857745
443.114035	-2.987000	3.785300	-11.306000	23.870212	0.000534	20.839768
444.116993	-3.011000	3.783000	-11.390000	23.834944	0.000535	20.818156
445.117706	-3.002100	3.784000	-11.359000	23.833318	0.000536	20.835966
446.115833	-3.011700	3.782900	-11.392000	23.849470	0.000532	20.879660
447.121160	-3.003400	3.782800	-11.360000	23.876045	0.000534	20.848936
448.116717	-2.991600	3.783500	-11.318000	23.901653	0.000537	20.863234
449.116695	-2.998300	3.783100	-11.341000	23.925320	0.000533	20.849035
450.115809	-2.986800	3.783200	-11.299000	23.950746	0.000533	20.838021
451.114296	-2.990300	3.783200	-11.312000	23.933925	0.000536	20.852922
452.117260	-3.002200	3.781500	-11.352000	23.914756	0.000536	20.840338
453.115805	-2.998100	3.781400	-11.336000	23.956464	0.000534	20.849445
454.117319	-2.993900	3.782200	-11.323000	23.977116	0.000536	20.854034
455.116733	-3.016100	3.780300	-11.401000	23.980899	0.000536	20.852137
456.118102	-3.022700	3.781200	-11.429000	24.019285	0.000536	20.873088
457.117760	-3.006600	3.780400	-11.365000	23.984716	0.000536	20.839845
458.118969	-3.023000	3.780400	-11.428000	23.981284	0.000537	20.856791
459.116781	-3.017100	3.780600	-11.406000	23.967946	0.000536	20.852425
460.118001	-3.000200	3.780100	-11.340000	23.966124	0.000536	20.878097
461.120410	-3.011900	3.780800	-11.386000	23.985855	0.000537	20.857107
462.118299	-2.988600	3.779500	-11.295000	23.973187	0.000536	20.866214
463.121207	-2.996900	3.779900	-11.327000	23.981895	0.000536	20.857878
464.118779	-2.987500	3.780000	-11.292000	24.001457	0.000537	20.866116
465.121285	-2.980700	3.779000	-11.263000	24.014095	0.000536	20.858875
466.118745	-2.983500	3.778300	-11.271000	24.026482	0.000536	20.859444
467.120315	-2.997500	3.778700	-11.325000	24.017203	0.000535	20.861992
468.122953	-3.013600	3.779100	-11.387000	24.007472	0.000538	20.857923
469.126153	-2.989200	3.778000	-11.292000	24.011135	0.000536	20.871079
470.120417	-2.990700	3.777300	-11.296000	24.004585	0.000538	20.852184
471.120716	-2.994400	3.778700	-11.314000	23.999803	0.000537	20.875362
472.123387	-2.986500	3.776700	-11.278000	24.027645	0.000537	20.873411
473.122862	-2.993100	3.777400	-11.305000	24.041784	0.000537	20.877634
474.125492	-2.979300	3.778000	-11.254000	24.052452	0.000539	20.868892
475.120997	-2.999300	3.776500	-11.326000	24.056407	0.000537	20.864798
476.121728	-2.998000	3.775800	-11.319000	24.058948	0.000537	20.870665
477.122859	-3.004800	3.775900	-11.345000	24.075762	0.000537	20.866665
478.121605	-2.994800	3.774800	-11.304000	24.082405	0.000537	20.875224
479.121997	-3.008400	3.774000	-11.352000	24.089797	0.000537	20.882163
480.122338	-3.015100	3.774400	-11.380000	24.087576	0.000535	20.884203
481.119939	-2.993600	3.774000	-11.296000	24.072920	0.000537	20.875669
482.122280	-2.996600	3.774000	-11.309000	24.057413	0.000538	20.876238
483.123963	-3.014500	3.772000	-11.369000	24.061027	0.000538	20.878440
484.122705	-2.984300	3.774600	-11.264000	24.109245	0.000537	20.885547
485.123760	-2.986000	3.773800	-11.268000	24.108251	0.000537	20.874593
486.123661	-3.004200	3.774200	-11.338000	24.111009	0.000539	20.881152
487.124249	-3.016100	3.772500	-11.378000	24.131333	0.000536	20.894896
488.127898	-3.002100	3.772800	-11.326000	24.156639	0.000538	20.897519
489.125232	-2.998500	3.771600	-11.308000	24.147706	0.000538	20.899939
490.128884	-3.001100	3.770800	-11.316000	24.160692	0.000538	20.886886
491.125195	-3.008800	3.771100	-11.345000	24.151784	0.000539	20.889805
492.126358	-2.983200	3.770700	-11.247000	24.150883	0.000536	20.906444
493.131584	-2.975600	3.772800	-11.226000	24.110152	0.000537	20.890724
494.127761	-2.982800	3.771800	-11.249000	24.116121	0.000537	20.901925
495.133883	-3.004500	3.771300	-11.330000	24.098506	0.000537	20.894216
496.126266	-2.998800	3.770400	-11.306000	24.097486	0.000537	20.908839
497.127489	-2.989100	3.770400	-11.269000	24.104977	0.000537	20.892645
498.130448	-2.994800	3.771100	-11.293000	24.110276	0.000538	20.888003
499.127315	-3.001300	3.770600	-11.316000	24.117165	0.000538	20.903920
500.129910	-2.998900	3.770300	-11.306000	24.138469	0.000537	20.902527
501.126311	-3.001300	3.769900	-11.314000	24.165169	0.000538	20.908918
502.125472	-2.975900	3.770500	-11.219000	24.156561	0.000537	20.899811
503.128571	-2.979900	3.769900	-11.233000	24.159870	0.000537	20.910715
504.127570	-2.986700	3.769100	-11.256000	24.165942	0.000538	20.906848
505.129547	-2.992700	3.767400	-11.275000	24.204233	0.000538	20.905426
506.129329	-2.992300	3.768600	-11.276000	24.201170	0.000539	20.904725
507.129638	-3.008000	3.768100	-11.334000	24.217651	0.000537	20.921728
508.129698	-3.020200	3.767100	-11.376000	24.210659	0.000537	20.907129
509.129822	-2.992300	3.766700	-11.270000	24.183467	0.000537	20.897874
510.131890	-2.981400	3.767600	-11.232000	24.173638	0.000538	20.921678
511.131651	-2.993700	3.767400	-11.278000	24.192399	0.000540	20.894980
512.127118	-3.007300	3.765100	-11.322000	24.238607	0.000539	20.886801
513.129813	-2.987000	3.767700	-11.253000	24.230148	0.000539	20.899651
514.128214	-3.024200	3.764600	-11.384000	24.193724	0.000536	20.899153
515.129365	-2.975000	3.766000	-11.203000	24.195747	0.000539	20.899759
516.135181	-2.977200	3.764900	-11.208000	24.185051	0.000537	20.893774
517.131627	-3.003800	3.763100	-11.302000	24.196520	0.000539	20.869243
518.129480	-2.992600	3.765100	-11.267000	24.172213	0.000538	20.907923
519.129752	-3.018500	3.764200	-11.361000	24.173661	0.000537	20.903685
520.133070	-2.993300	3.763800	-11.265000	24.203443	0.000540	20.889936
521.130794	-2.994800	3.764100	-11.272000	24.215541	0.000539	20.891639
522.133941	-2.998200	3.763200	-11.281000	24.230796	0.000538	20.874699
523.130390	-2.996900	3.763900	-11.278000	24.257794	0.000538	20.892296
524.129534	-3.001900	3.763800	-11.298000	24.272275	0.000540	20.875529
525.133650	-3.007500	3.763800	-11.318000	24.257769	0.000540	20.884685
526.131066	-3.016100	3.761400	-11.343000	24.245676	0.000537	20.881090
527.135689	-2.993000	3.761900	-11.258000	24.268848	0.000540	20.882996
528.134818	-3.006800	3.762200	-11.311000	24.286465	0.000540	20.874115
529.134259	-2.994500	3.761200	-11.262000	24.317834	0.000542	20.877133
530.134359	-3.011300	3.761300	-11.326000	24.294176	0.000537	20.867626
531.134939	-2.995600	3.761700	-11.267000	24.277587	0.000539	20.881805
532.134270	-3.004300	3.761200	-11.299000	24.321527	0.000538	20.859975
533.138752	-3.002900	3.761500	-11.295000	24.330758	0.000539	20.862598
534.134229	-2.983500	3.760800	-11.219000	24.357050	0.000541	20.876170
535.135253	-2.998000	3.759300	-11.269000	24.365587	0.000540	20.861975
536.137040	-3.013000	3.760300	-11.329000	24.334889	0.000538	20.871482
537.136591	-3.017700	3.758900	-11.342000	24.340915	0.000539	20.859510
538.139811	-2.991600	3.759600	-11.246000	24.375448	0.000538	20.876608
539.135710	-3.012000	3.759400	-11.322000	24.386467	0.000540	20.863007
540.137354	-3.019300	3.758300	-11.347000	24.364902	0.000540	20.879305
541.136588	-3.007000	3.759700	-11.304000	24.382838	0.000539	20.861263
542.142641	-3.022500	3.758700	-11.360000	24.392542	0.000539	20.867205
543.140385	-2.996400	3.757900	-11.260000	24.351249	0.000541	20.858023
544.140158	-3.003900	3.758500	-11.289000	24.347128	0.000540	20.850096
545.137835	-3.003700	3.757100	-11.284000	24.350609	0.000540	20.856433
546.139409	-3.004100	3.757700	-11.288000	24.392005	0.000540	20.875674
547.139849	-3.014600	3.757700	-11.327000	24.428575	0.000542	20.851671
548.139944	-3.024200	3.755700	-11.357000	24.446530	0.000541	20.870632
549.142006	-2.985600	3.757700	-11.219000	24.421732	0.000540	20.839117
550.141951	-2.993200	3.756300	-11.242000	24.405913	0.000540	20.846006
551.143203	-3.004400	3.755000	-11.281000	24.380164	0.000541	20.840090
552.146009	-3.002100	3.756300	-11.276000	24.368644	0.000542	20.841809
553.146859	-3.009700	3.756900	-11.306000	24.389770	0.000540	20.846406
554.147983	-3.012600	3.755600	-11.313000	24.403693	0.000542	20.844727
555.145634	-2.999600	3.755400	-11.264000	24.429890	0.000541	20.839714
556.145681	-3.015500	3.755000	-11.323000	24.418965	0.000541	20.853410
557.147833	-3.028200	3.753300	-11.364000	24.403718	0.000540	20.840485
558.145070	-3.003400	3.755000	-11.277000	24.373065	0.000538	20.848615
559.146526	-2.999900	3.753800	-11.260000	24.309403	0.000539	20.847815
560.148296	-3.023800	3.754300	-11.351000	24.306774	0.000540	20.855608
561.151402	-3.021100	3.753000	-11.337000	24.385851	0.000540	20.832993
562.152725	-2.991200	3.754300	-11.229000	24.399874	0.000540	20.865550
563.155017	-3.010700	3.753500	-11.300000	24.431963	0.000538	20.826148
564.147396	-3.010300	3.753100	-11.297000	24.409425	0.000540	20.828667
565.149763	-3.007700	3.752200	-11.285000	24.384021	0.000540	20.852967
566.147758	-2.984300	3.752000	-11.196000	24.372726	0.000539	20.839740
567.148370	-3.022800	3.751500	-11.339000	24.402104	0.000538	20.842185
568.148408	-2.992200	3.752800	-11.228000	24.404049	0.000540	20.839869
569.148255	-2.965800	3.752100	-11.127000	24.399091	0.000537	20.854809
570.152117	-3.004500	3.750900	-11.268000	24.387251	0.000539	20.836293
571.150398	-3.002600	3.751600	-11.264000	24.396403	0.000539	20.829354
572.149216	-2.991700	3.751200	-11.221000	24.443017	0.000538	20.851461
573.148510	-3.007700	3.750400	-11.279000	24.466303	0.000537	20.830727
574.153397	-2.999000	3.750400	-11.247000	24.465628	0.000540	20.864188
575.149315	-3.023000	3.750700	-11.338000	24.490031	0.000539	20.840783
576.152923	-2.999800	3.751100	-11.252000	24.498085	0.000539	20.837958
577.152937	-3.012000	3.748500	-11.288000	24.493335	0.000537	20.818968
578.153799	-2.988500	3.749400	-11.204000	24.491548	0.000540	20.838037
579.155723	-3.016200	3.748200	-11.305000	24.460380	0.000539	20.834268
580.153850	-3.010000	3.750200	-11.288000	24.485655	0.000538	20.844927
581.158205	-2.982600	3.749200	-11.182000	24.453266	0.000537	20.838511
582.155719	-3.001000	3.748600	-11.248000	24.461827	0.000539	20.830031
583.154735	-2.972700	3.747600	-11.139000	24.472225	0.000539	20.839987
584.156063	-2.988700	3.748500	-11.202000	24.459563	0.000539	20.840560
585.156725	-3.006900	3.748000	-11.268000	24.510358	0.000539	20.839365
586.155452	-2.999300	3.747900	-11.239000	24.504686	0.000540	20.830831
587.160923	-2.992100	3.747800	-11.213000	24.500462	0.000538	20.826593
588.158340	-3.014500	3.746500	-11.293000	24.512573	0.000540	20.844432
589.157991	-2.995400	3.747000	-11.223000	24.523191	0.000539	20.847974
590.163291	-3.005900	3.745100	-11.256000	24.565004	0.000540	20.814063
591.161459	-3.008000	3.745500	-11.266000	24.526972	0.000538	20.836120
592.163946	-2.996800	3.747300	-11.228000	24.537123	0.000541	20.819278
593.160207	-3.012900	3.746700	-11.288000	24.506109	0.000539	20.832732
594.161010	-3.001700	3.745700	-11.243000	24.498227	0.000537	20.823402
595.160235	-2.994400	3.746400	-11.217000	24.491857	0.000540	20.832184
596.163910	-2.968200	3.744900	-11.115000	24.507256	0.000539	20.820606
597.164162	-3.024100	3.743700	-11.320000	24.485546	0.000538	20.825851
598.161673	-3.006000	3.744000	-11.254000	24.456967	0.000537	20.808086
599.161676	-3.003800	3.743700	-11.244000	24.478777	0.000538	20.828069
600.163108	-3.029100	3.742300	-11.334000	24.492959	0.000539	20.822384
601.162635	-3.007500	3.744000	-11.259000	24.536137	0.000537	20.826824
602.165726	-2.993000	3.743000	-11.202000	24.589468	0.000539	20.796410
603.164686	-2.987200	3.743900	-11.183000	24.583173	0.000537	20.809059
604.163095	-3.000300	3.743200	-11.230000	24.588095	0.000536	20.821110
605.163688	-2.990000	3.742400	-11.188000	24.531913	0.000536	20.823061
606.163495	-2.995200	3.743300	-11.210000	24.537461	0.000537	20.814403
607.163137	-2.989600	3.742200	-11.186000	24.566013	0.000538	20.809859
608.165466	-2.999800	3.742700	-11.227000	24.602055	0.000538	20.811884
609.162968	-3.024100	3.741900	-11.315000	24.617600	0.000536	20.791920
610.169318	-2.985600	3.743400	-11.175000	24.582586	0.000536	20.803729
611.163644	-3.016500	3.741300	-11.285000	24.581941	0.000539	20.842910
612.161901	-3.014500	3.741700	-11.278000	24.586391	0.000536	20.796167
613.164967	-2.998100	3.740600	-11.214000	24.574331	0.000538	20.794498
614.166332	-3.030900	3.739600	-11.334000	24.530707	0.000538	20.809996
615.164549	-2.989900	3.739900	-11.181000	24.556452	0.000538	20.793154
616.164431	-2.982000	3.739600	-11.150000	24.561252	0.000536	20.806504
617.166666	-3.009800	3.738400	-11.251000	24.584708	0.000538	20.815814
618.165357	-3.014100	3.738400	-11.267000	24.600951	0.000538	20.821208
619.168921	-2.992400	3.738800	-11.187000	24.625647	0.000537	20.784347
620.167315	-3.004800	3.739200	-11.235000	24.628187	0.000535	20.814397
621.166664	-2.993800	3.739500	-11.194000	24.647064	0.000537	20.783552
622.165752	-2.990300	3.738000	-11.177000	24.636175	0.000536	20.798705
623.167576	-2.998400	3.737800	-11.207000	24.620084	0.000535	20.806267
624.174470	-3.007800	3.738300	-11.243000	24.578426	0.000537	20.817098
625.166256	-2.985800	3.737700	-11.159000	24.536269	0.000536	20.806094
626.169477	-3.001100	3.737700	-11.217000	24.536289	0.000534	20.802320
627.166605	-3.000300	3.737700	-11.213000	24.532665	0.000535	20.801530
628.167648	-2.998300	3.737700	-11.205000	24.565918	0.000535	20.807393
629.167508	-3.000700	3.736300	-11.211000	24.591037	0.000536	20.800354
630.176747	-2.995300	3.735700	-11.189000	24.604367	0.000534	20.796186
631.168897	-2.988100	3.735300	-11.161000	24.652069	0.000533	20.809437
632.168399	-3.003900	3.736000	-11.222000	24.634861	0.000534	20.816352
633.172664	-3.008000	3.735900	-11.236000	24.594517	0.000535	20.804321
634.170131	-2.989500	3.735200	-11.166000	24.591264	0.000533	20.812435
635.175621	-3.004400	3.734300	-11.218000	24.584318	0.000533	20.805941
636.172731	-3.000000	3.735700	-11.206000	24.582260	0.000534	20.799609
637.172937	-2.993100	3.734900	-11.178000	24.591042	0.000534	20.797040
638.174500	-3.011700	3.733400	-11.243000	24.597259	0.000533	20.791899
639.173570	-3.017900	3.734200	-11.268000	24.611613	0.000533	20.814361
640.174180	-3.005700	3.733400	-11.220000	24.608054	0.000532	20.788505
641.175733	-3.013400	3.733200	-11.249000	24.632306	0.000533	20.781072
642.176222	-3.027700	3.731400	-11.296000	24.602610	0.000534	20.785887
643.174999	-3.029700	3.733000	-11.309000	24.620492	0.000533	20.793400
644.175057	-2.999700	3.732800	-11.196000	24.638523	0.000533	20.813388
645.175350	-3.019400	3.732300	-11.268000	24.646211	0.000534	20.779377
646.179458	-2.995600	3.731800	-11.178000	24.685755	0.000533	20.815739
647.176160	-2.990600	3.732200	-11.160000	24.651985	0.000532	20.781378
648.175876	-3.002000	3.731300	-11.200000	24.675763	0.000531	20.768728
649.177544	-2.990400	3.732300	-11.161000	24.681335	0.000532	20.800398
650.176239	-3.013100	3.731400	-11.242000	24.678451	0.000531	20.803193
651.185721	-2.997500	3.729900	-11.180000	24.709858	0.000530	20.773544
652.177595	-2.998200	3.731400	-11.186000	24.694295	0.000530	20.792540
653.177980	-2.997300	3.731200	-11.182000	24.681817	0.000533	20.802778
654.178157	-2.988200	3.731800	-11.150000	24.660751	0.000529	20.780216
655.177983	-2.991700	3.729900	-11.158000	24.646181	0.000530	20.783614
656.178341	-2.996400	3.730400	-11.178000	24.625040	0.000531	20.777100
657.184027	-3.013600	3.729400	-11.239000	24.605892	0.000531	20.798664
658.181985	-3.005700	3.728900	-11.207000	24.655464	0.000532	20.785343
659.181075	-2.967400	3.731400	-11.072000	24.633255	0.000529	20.789136
660.182037	-2.982300	3.729500	-11.122000	24.629873	0.000532	20.777682
661.182503	-3.018600	3.727500	-11.251000	24.604631	0.000528	20.786493
662.185625	-3.022900	3.727900	-11.268000	24.622189	0.000529	20.786093
663.182050	-3.014400	3.727700	-11.235000	24.634805	0.000530	20.770777
664.182485	-3.005800	3.727600	-11.203000	24.654277	0.000528	20.769453
665.182166	-3.008900	3.726200	-11.210000	24.663181	0.000529	20.793087
666.182691	-2.983200	3.728100	-11.121000	24.700736	0.000531	20.780986
667.183275	-2.980100	3.727200	-11.106000	24.684868	0.000529	20.782132
668.184909	-2.996800	3.726700	-11.167000	24.673828	0.000530	20.785278
669.181435	-2.997700	3.726100	-11.169000	24.686709	0.000530	20.789195
670.181094	-3.011800	3.725900	-11.221000	24.686714	0.000529	20.768337
671.181818	-3.004300	3.725200	-11.191000	24.663959	0.000527	20.756408
672.182286	-3.005100	3.726400	-11.197000	24.674005	0.000527	20.787827
673.187424	-3.003700	3.726500	-11.193000	24.677243	0.000530	20.780645
674.189909	-2.995800	3.726500	-11.162000	24.669334	0.000530	20.790726
675.194212	-3.002600	3.725400	-11.185000	24.670254	0.000528	20.765571
676.188776	-3.008200	3.725900	-11.208000	24.664259	0.000528	20.765719
677.188853	-2.988400	3.725200	-11.132000	24.696045	0.000530	20.785762
678.193135	-3.003600	3.723300	-11.182000	24.725213	0.000529	20.790849
679.190658	-2.992000	3.724100	-11.142000	24.726360	0.000528	20.786784
680.190824	-2.980600	3.725600	-11.104000	24.732251	0.000527	20.798386
681.189935	-3.021700	3.723600	-11.250000	24.702985	0.000529	20.766647
682.188935	-3.026300	3.722000	-11.263000	24.704447	0.000527	20.754363
683.191740	-2.990900	3.723500	-11.136000	24.723043	0.000528	20.773024
684.197562	-3.011700	3.723600	-11.213000	24.704669	0.000527	20.764069
685.192261	-2.995800	3.722900	-11.153000	24.682486	0.000526	20.773103
686.199759	-2.993900	3.723000	-11.145000	24.693580	0.000526	20.751518
687.191451	-2.982400	3.723600	-11.105000	24.713445	0.000529	20.764341
688.196135	-3.002800	3.722500	-11.177000	24.755895	0.000527	20.767586
689.195208	-3.028800	3.720900	-11.269000	24.754798	0.000528	20.759372
690.193186	-2.999900	3.721800	-11.164000	24.776631	0.000526	20.749039
691.195118	-3.008700	3.720900	-11.195000	24.785878	0.000526	20.773494
692.192142	-3.022700	3.720900	-11.246000	24.795003	0.000526	20.758468
693.197726	-3.008100	3.721100	-11.193000	24.806859	0.000526	20.767522
694.194950	-2.998600	3.719600	-11.152000	24.812509	0.000527	20.754700
695.193305	-2.970400	3.721100	-11.052000	24.827549	0.000526	20.763630
696.195354	-3.006900	3.720100	-11.185000	24.833366	0.000528	20.778477
697.197918	-2.988100	3.719300	-11.113000	24.807204	0.000527	20.763601
698.197392	-2.999200	3.720200	-11.157000	24.748218	0.000525	20.750398
699.198457	-2.994700	3.719200	-11.137000	24.767487	0.000526	20.741759
700.195650	-3.000900	3.721200	-11.166000	24.771119	0.000526	20.762001
701.194758	-2.992900	3.719900	-11.133000	24.787976	0.000526	20.755683
702.198166	-2.958200	3.721200	-11.007000	24.800181	0.000526	20.789270
703.194350	-3.005900	3.718000	-11.175000	24.819104	0.000527	20.781234
704.201998	-3.010600	3.717800	-11.192000	24.836930	0.000524	20.750759
705.194413	-2.982300	3.717700	-11.086000	24.818499	0.000527	20.756919
706.196403	-2.972000	3.719100	-11.052000	24.828889	0.000524	20.767346
707.200330	-2.998000	3.717300	-11.144000	24.818667	0.000525	20.764674
708.195694	-3.002400	3.717800	-11.161000	24.818962	0.000525	20.755961
709.200227	-2.986400	3.717400	-11.100000	24.812722	0.000525	20.771984
710.197235	-3.005200	3.716500	-11.168000	24.796654	0.000526	20.774350
711.197230	-3.015900	3.716100	-11.206000	24.802048	0.000526	20.751313
712.196543	-3.014700	3.716600	-11.203000	24.804578	0.000524	20.787518
713.197158	-2.992700	3.716600	-11.122000	24.750494	0.000524	20.758846
714.196870	-2.995400	3.716600	-11.132000	24.770284	0.000525	20.750257
715.197636	-2.967100	3.717000	-11.028000	24.776791	0.000522	20.755839
716.199178	-2.993800	3.715500	-11.123000	24.791536	0.000523	20.771585
717.200739	-2.997000	3.715700	-11.136000	24.838757	0.000523	20.771560
718.199830	-3.028800	3.713900	-11.247000	24.852572	0.000522	20.774045
719.200061	-2.987100	3.714800	-11.095000	24.798737	0.000520	20.742775
720.203892	-2.994600	3.715200	-11.124000	24.804707	0.000521	20.768207
721.205842	-2.979500	3.713000	-11.062000	24.804422	0.000519	20.789258
722.201130	-2.989000	3.714500	-11.102000	24.782762	0.000523	20.755193
723.201534	-3.008800	3.713900	-11.174000	24.787984	0.000521	20.744312
724.201681	-3.007500	3.713900	-11.168000	24.846810	0.000522	20.774427
725.202433	-3.007300	3.713800	-11.168000	24.844867	0.000521	20.765838
726.206022	-2.992200	3.712500	-11.108000	24.843268	0.000523	20.781777
727.203286	-3.010700	3.712200	-11.175000	24.854405	0.000520	20.770669
728.203969	-3.025200	3.711400	-11.227000	24.829040	0.000521	20.742841
729.210780	-2.997400	3.711200	-11.123000	24.857609	0.000520	20.756340
730.204021	-2.993600	3.711900	-11.111000	24.862506	0.000520	20.769790
731.207172	-2.999100	3.711900	-11.131000	24.844568	0.000520	20.757477
732.205920	-2.968000	3.712000	-11.016000	24.830469	0.000521	20.749965
733.203807	-2.987600	3.711500	-11.087000	24.816187	0.000521	20.765978
734.204366	-3.030300	3.710300	-11.242000	24.829214	0.000520	20.759138
735.203914	-3.001900	3.711200	-11.139000	24.835976	0.000519	20.762131
736.207066	-2.978200	3.710000	-11.048000	24.871779	0.000517	20.782891
737.205530	-2.989300	3.710700	-11.092000	24.888457	0.000520	20.769284
738.212142	-2.994100	3.709500	-11.106000	24.882286	0.000518	20.747917
739.207867	-3.004200	3.709000	-11.142000	24.864732	0.000520	20.766335
740.208218	-3.022500	3.708600	-11.209000	24.860899	0.000517	20.767229
741.209589	-2.994100	3.709700	-11.106000	24.861441	0.000517	20.772515
742.211217	-2.974700	3.709400	-11.034000	24.843636	0.000518	20.780250
743.209635	-2.985000	3.710000	-11.073000	24.861653	0.000520	20.783634
744.209909	-2.997200	3.709500	-11.117000	24.893134	0.000516	20.746002
745.213084	-2.995500	3.709200	-11.110000	24.915255	0.000517	20.771998
746.210858	-3.003900	3.708400	-11.138000	24.877185	0.000517	20.780256
747.214683	-2.995600	3.707000	-11.103000	24.866122	0.000515	20.778636
748.212347	-2.994400	3.708900	-11.105000	24.873224	0.000516	20.777229
749.212363	-2.980200	3.708300	-11.051000	24.893268	0.000516	20.786440
750.218551	-3.003500	3.707400	-11.134000	24.874292	0.000513	20.787784
751.212065	-2.980900	3.707000	-11.050000	24.883013	0.000515	20.788950
752.219542	-3.000700	3.707900	-11.125000	24.887265	0.000514	20.791321
753.213288	-2.993100	3.706500	-11.093000	24.891739	0.000514	20.764990
754.212343	-2.993900	3.706300	-11.095000	24.923164	0.000513	20.792265
755.211030	-3.000600	3.705100	-11.116000	24.923760	0.000516	20.778164
756.212018	-2.970500	3.705600	-11.007000	24.895243	0.000515	20.777042
757.214089	-2.977000	3.707500	-11.036000	24.897378	0.000513	20.767806
758.213990	-3.005900	3.706000	-11.139000	24.890735	0.000513	20.781053
759.214415	-3.003000	3.705100	-11.125000	24.935546	0.000514	20.769604
760.212978	-2.991800	3.706200	-11.088000	24.938351	0.000515	20.783800
761.214160	-2.999600	3.704700	-11.112000	24.931236	0.000513	20.794202
762.213280	-2.993400	3.705200	-11.090000	24.918973	0.000514	20.776204
763.216570	-3.020600	3.703800	-11.187000	24.913973	0.000512	20.790626
764.213859	-3.016100	3.702500	-11.166000	24.949601	0.000514	20.781815
765.214216	-2.998400	3.703500	-11.104000	24.976104	0.000512	20.783761
766.218734	-3.000400	3.703000	-11.110000	25.005668	0.000510	20.773606
767.216100	-3.000100	3.703700	-11.110000	24.993307	0.000512	20.769260
768.219997	-2.990200	3.702700	-11.071000	24.983560	0.000515	20.777494
769.219258	-2.996900	3.702900	-11.096000	24.992481	0.000512	20.785500
770.218349	-2.980500	3.703000	-11.035000	24.983875	0.000512	20.783975
771.218502	-2.986500	3.702800	-11.058000	24.935268	0.000512	20.782127
772.220819	-3.011800	3.700700	-11.145000	24.929023	0.000513	20.768273
773.223674	-3.011400	3.703400	-11.151000	24.925663	0.000508	20.799040
774.223094	-2.993600	3.702100	-11.082000	24.970566	0.000509	20.786262
775.220528	-3.006600	3.700900	-11.126000	24.947261	0.000510	20.793217
776.220828	-2.986200	3.700900	-11.051000	24.939107	0.000512	20.794516
777.222883	-3.000900	3.700800	-11.105000	24.965907	0.000509	20.792017
778.221074	-2.989600	3.700300	-11.062000	24.977766	0.000512	20.783058
779.219992	-3.004100	3.701500	-11.118000	24.978730	0.000511	20.798725
780.220526	-2.996600	3.700000	-11.086000	25.012466	0.000508	20.809828
781.222883	-3.008800	3.699400	-11.131000	25.005229	0.000508	20.782649
782.221179	-2.971400	3.701000	-10.995000	25.011694	0.000509	20.795303
783.222273	-3.011100	3.698800	-11.137000	24.999535	0.000507	20.797323
784.220847	-3.013800	3.699000	-11.147000	25.010922	0.000507	20.811597
785.219616	-2.991900	3.699200	-11.066000	25.006995	0.000508	20.797698
786.221373	-3.017500	3.698600	-11.159000	24.980940	0.000508	20.795253
787.222467	-2.999500	3.697700	-11.091000	24.953862	0.000508	20.795575
788.221730	-3.003300	3.698600	-11.107000	24.951249	0.000507	20.804332
789.225278	-3.007600	3.698100	-11.121000	24.917038	0.000508	20.798444
790.221384	-2.996600	3.697400	-11.079000	25.002793	0.000507	20.796799
791.229922	-2.992400	3.697600	-11.064000	25.022859	0.000506	20.805561
792.226407	-3.006500	3.698400	-11.118000	25.006995	0.000507	20.823302
793.222880	-3.004400	3.696000	-11.103000	25.025865	0.000506	20.776336
794.226338	-3.018000	3.695000	-11.150000	25.026691	0.000505	20.795658
795.225639	-3.018100	3.696800	-11.156000	25.048115	0.000505	20.799145
796.223094	-3.013300	3.696000	-11.136000	25.090228	0.000504	20.805383
797.223370	-3.014900	3.695100	-11.139000	25.121859	0.000505	20.801575
798.222058	-3.009400	3.696800	-11.124000	25.096501	0.000504	20.813102
799.224393	-3.004400	3.694700	-11.100000	25.072436	0.000504	20.811705
800.223617	-3.007200	3.695200	-11.111000	25.048769	0.000506	20.799327
801.225799	-2.994000	3.696200	-11.065000	24.988433	0.000504	20.808464
802.224453	-2.998600	3.696400	-11.083000	24.968371	0.000502	20.804923
803.224994	-2.993600	3.695200	-11.061000	24.971851	0.000505	20.804148
804.225723	-3.032200	3.693000	-11.197000	24.983611	0.000504	20.843452
805.225762	-2.993800	3.693000	-11.055000	25.027468	0.000503	20.795963
806.226767	-2.993400	3.695000	-11.059000	25.017922	0.000504	20.784959
807.226590	-2.992500	3.695000	-11.057000	25.039376	0.000504	20.805071
808.228025	-2.997700	3.694500	-11.074000	25.051632	0.000501	20.809788
809.227134	-2.996700	3.692000	-11.063000	25.107994	0.000503	20.796664
810.229326	-2.984800	3.693700	-11.024000	25.064686	0.000502	20.834270
811.226735	-3.008100	3.693000	-11.108000	25.035281	0.000502	20.811392
812.225112	-3.013300	3.692600	-11.126000	25.017828	0.000502	20.812839
813.225447	-3.011100	3.693100	-11.119000	24.996591	0.000500	20.804325
814.228201	-3.008500	3.692300	-11.107000	25.043381	0.000503	20.817626
815.229825	-2.996500	3.691400	-11.060000	25.067623	0.000500	20.811615
816.229157	-2.985300	3.693000	-11.024000	25.052857	0.000502	20.813862
817.231557	-2.983700	3.692200	-11.016000	25.085223	0.000500	20.816006
818.227870	-3.008700	3.691100	-11.104000	25.110581	0.000500	20.818702
819.229429	-3.003300	3.690700	-11.083000	25.093105	0.000501	20.800210
820.229156	-3.002200	3.690600	-11.079000	25.047764	0.000499	20.820603
821.230307	-2.998600	3.691500	-11.069000	25.079087	0.000501	20.807001
822.228360	-3.008800	3.689700	-11.100000	25.094329	0.000499	20.813768
823.227447	-3.007900	3.689100	-11.096000	25.102988	0.000501	20.830520
824.232924	-3.017500	3.689100	-11.131000	25.137065	0.000499	20.815891
825.231071	-2.990900	3.689500	-11.033000	25.147185	0.000499	20.817990
826.235644	-2.994200	3.689500	-11.045000	25.164788	0.000499	20.827601
827.232358	-3.007200	3.689500	-11.094000	25.086333	0.000498	20.822336
828.232931	-3.008700	3.687300	-11.092000	25.053072	0.000500	20.804595
829.235127	-3.016700	3.687900	-11.124000	25.030399	0.000498	20.821664
830.231599	-3.006700	3.688200	-11.088000	25.048953	0.000498	20.823219
831.233013	-2.990900	3.687600	-11.028000	25.076374	0.000499	20.810442
832.236408	-3.001700	3.688600	-11.071000	25.076855	0.000496	20.827994
833.233683	-2.999300	3.687600	-11.059000	25.088856	0.000497	20.836248
834.235144	-3.009000	3.686400	-11.092000	25.079739	0.000496	20.836104
835.239152	-2.996100	3.686800	-11.045000	25.106937	0.000494	20.824527
836.235299	-3.035000	3.685000	-11.184000	25.090808	0.000496	20.826354
837.239389	-3.030400	3.684800	-11.165000	25.091281	0.000494	20.820190
838.239114	-2.996900	3.687600	-11.051000	25.096230	0.000495	20.825159
839.236022	-2.983400	3.688000	-11.001000	25.130469	0.000494	20.824442
840.243893	-3.004000	3.685700	-11.071000	25.143098	0.000495	20.802982
841.237729	-3.008000	3.686900	-11.089000	25.102704	0.000495	20.812692
842.240821	-3.002000	3.685200	-11.062000	25.035985	0.000494	20.808305
843.236810	-3.018100	3.686300	-11.125000	25.016790	0.000492	20.832660
844.239432	-2.997400	3.684500	-11.042000	24.976174	0.000491	20.823660
845.241061	-2.997700	3.686100	-11.049000	24.995222	0.000492	20.825710
846.238789	-2.995100	3.684700	-11.035000	24.972695	0.000492	20.830125
847.242461	-2.995000	3.683800	-11.033000	25.002785	0.000493	20.819550
848.240614	-2.981400	3.685200	-10.985000	25.004054	0.000494	20.861126
849.239952	-2.983500	3.683900	-10.991000	25.033346	0.000492	20.834105
850.238419	-2.991200	3.683600	-11.018000	25.060053	0.000491	20.808283
851.240873	-2.973100	3.683600	-10.951000	25.110544	0.000492	20.820088
852.240050	-2.990400	3.682200	-11.010000	25.133044	0.000493	20.820389
853.241752	-2.991400	3.682900	-11.016000	25.119749	0.000492	20.833121
854.239555	-3.003000	3.683700	-11.061000	25.114155	0.000491	20.849316
855.240003	-3.007900	3.682800	-11.077000	25.118485	0.000490	20.835170
856.242693	-2.996100	3.681900	-11.031000	25.124576	0.000491	20.842707
857.239570	-3.012500	3.681700	-11.090000	25.101785	0.000489	20.821726
858.240397	-2.971000	3.683000	-10.942000	25.131123	0.000490	20.824151
859.239166	-3.011800	3.681200	-11.087000	25.131797	0.000489	20.838103
860.239198	-2.989300	3.681400	-11.004000	25.116880	0.000489	20.840672
861.239304	-2.974700	3.681400	-10.951000	25.112486	0.000489	20.841476
862.239451	-3.006100	3.680700	-11.063000	25.114330	0.000488	20.833371
863.240302	-3.000000	3.679500	-11.037000	25.152342	0.000491	20.834546
864.240075	-2.998600	3.680700	-11.036000	25.152992	0.000491	20.857008
865.244489	-2.988100	3.681400	-10.998000	25.126517	0.000487	20.833751
866.240191	-3.012600	3.678700	-11.082000	25.087889	0.000489	20.822475
867.239134	-3.003800	3.679200	-11.051000	25.111953	0.000488	20.836201
868.240314	-2.994200	3.678700	-11.013000	25.112150	0.000488	20.834502
869.242772	-2.993800	3.679500	-11.015000	25.147825	0.000486	20.845184
870.239862	-2.998000	3.678800	-11.028000	25.125434	0.000485	20.863008
871.239769	-3.002400	3.677600	-11.041000	25.098880	0.000487	20.841095
872.243278	-3.002900	3.678500	-11.045000	25.078127	0.000487	20.850607
873.239645	-3.012300	3.678000	-11.078000	25.094162	0.000486	20.843470
874.244848	-2.989900	3.678200	-10.997000	25.135554	0.000485	20.833814
875.242006	-3.006600	3.678500	-11.059000	25.111815	0.000485	20.832743
876.240290	-2.991700	3.677600	-11.001000	25.123825	0.000483	20.857126
877.239494	-2.984800	3.676800	-10.974000	25.104287	0.000483	20.843203
878.239891	-2.995200	3.676200	-11.011000	25.091662	0.000485	20.852340
879.239861	-3.005900	3.675600	-11.047000	25.087735	0.000484	20.832752
880.244095	-2.974600	3.678400	-10.941000	25.081398	0.000483	20.843459
881.241847	-2.988300	3.675900	-10.984000	25.094673	0.000483	20.840664
882.241887	-2.997500	3.676800	-11.021000	25.124562	0.000481	20.836055
883.246737	-3.001900	3.674700	-11.030000	25.162913	0.000484	20.820503
884.243032	-2.979700	3.675500	-10.951000	25.196673	0.000482	20.847756
885.247690	-3.003300	3.675000	-11.036000	25.215613	0.000482	20.847805
886.245429	-3.000300	3.674700	-11.024000	25.200628	0.000484	20.854097
887.245594	-2.987700	3.675100	-10.978000	25.203363	0.000483	20.862059
888.245218	-3.014400	3.674100	-11.073000	25.209828	0.000481	20.838204
889.245617	-2.982200	3.674500	-10.957000	25.219195	0.000480	20.864202
890.246838	-2.996100	3.674300	-11.008000	25.174730	0.000481	20.850383
891.247271	-2.991300	3.673800	-10.988000	25.169087	0.000479	20.873166
892.247263	-2.999900	3.672800	-11.017000	25.177190	0.000480	20.859016
893.247082	-2.999700	3.671600	-11.013000	25.165284	0.000481	20.860340
894.247054	-2.984500	3.672900	-10.961000	25.183108	0.000481	20.862587
895.248367	-2.975600	3.673600	-10.930000	25.207668	0.000480	20.852156
896.247299	-2.973300	3.671900	-10.916000	25.187807	0.000477	20.876312
897.248021	-3.004700	3.672300	-11.033000	25.190867	0.000476	20.856625
898.247854	-2.986800	3.672500	-10.968000	25.196411	0.000478	20.847019
899.247694	-2.993000	3.671400	-10.988000	25.176526	0.000480	20.856453
900.247460	-2.999000	3.670800	-11.008000	25.228428	0.000477	20.864937
901.251100	-2.993900	3.672700	-10.995000	25.228881	0.000481	20.865392
902.248895	-2.977000	3.670700	-10.926000	25.170912	0.000479	20.858877
903.249791	-3.006600	3.670300	-11.034000	25.169918	0.000478	20.872103
904.252054	-3.002300	3.670400	-11.019000	25.128384	0.000478	20.855538
905.249027	-3.005700	3.671200	-11.034000	25.152201	0.000476	20.874706
906.249413	-2.996900	3.669300	-10.995000	25.186704	0.000479	20.845809
907.252141	-3.034100	3.667000	-11.124000	25.219243	0.000479	20.861406
908.250873	-3.003800	3.669400	-11.021000	25.221304	0.000477	20.857311
909.251549	-3.011100	3.667300	-11.042000	25.224467	0.000477	20.866650
910.255119	-2.996200	3.668300	-10.990000	25.281361	0.000475	20.866873
911.250525	-3.015300	3.668700	-11.061000	25.277607	0.000476	20.866423
912.256179	-2.967700	3.669600	-10.889000	25.280441	0.000478	20.854570
913.252662	-2.992900	3.668000	-10.976000	25.208488	0.000475	20.865307
914.252307	-2.995400	3.668400	-10.987000	25.234783	0.000475	20.861835
915.251141	-3.019100	3.666900	-11.069000	25.232373	0.000477	20.886914
916.254621	-3.013800	3.666700	-11.050000	25.283845	0.000475	20.891176
917.254096	-3.005500	3.668200	-11.023000	25.254373	0.000474	20.867277
918.251702	-2.992700	3.666700	-10.973000	25.234587	0.000474	20.867327
919.253533	-2.988600	3.668400	-10.962000	25.212862	0.000477	20.864482
920.253576	-2.979800	3.668600	-10.931000	25.180500	0.000473	20.879407
921.252657	-2.983900	3.667900	-10.943000	25.192725	0.000475	20.872241
922.253876	-2.979600	3.667000	-10.924000	25.198275	0.000472	20.867381
923.257223	-3.014000	3.665600	-11.047000	25.202324	0.000472	20.877135
924.254524	-3.003100	3.665100	-11.006000	25.201330	0.000472	20.873767
925.255009	-2.996400	3.665000	-10.980000	25.190442	0.000473	20.872794
926.257293	-3.004500	3.664400	-11.009000	25.200331	0.000473	20.892677
927.256884	-3.004000	3.664400	-11.007000	25.242915	0.000473	20.894653
928.261149	-2.993300	3.665000	-10.970000	25.296778	0.000474	20.886143
929.257344	-2.995500	3.664700	-10.977000	25.294544	0.000470	20.909503
930.255882	-2.983400	3.665700	-10.936000	25.261560	0.000470	20.884923
931.257615	-3.010900	3.664100	-11.031000	25.262155	0.000471	20.889788
932.257306	-2.994300	3.662400	-10.965000	25.200488	0.000471	20.895206
933.258387	-3.005100	3.663500	-11.007000	25.180927	0.000471	20.903068
934.259965	-2.990900	3.663700	-10.957000	25.208842	0.000471	20.877041
935.262570	-2.998300	3.663100	-10.982000	25.244440	0.000470	20.893339
936.260260	-3.013900	3.662100	-11.036000	25.236214	0.000468	20.897882
937.265800	-2.993200	3.661300	-10.958000	25.210337	0.000469	20.883283
938.258927	-2.995500	3.662600	-10.970000	25.201413	0.000469	20.892341
939.263468	-2.973700	3.662900	-10.891000	25.197044	0.000469	20.884636
940.261770	-3.017700	3.660800	-11.047000	25.196572	0.000469	20.885585
941.260440	-3.019600	3.659800	-11.051000	25.225977	0.000469	20.908466
942.262518	-3.008700	3.660700	-11.013000	25.283873	0.000469	20.894997
943.260504	-2.998500	3.659400	-10.972000	25.296826	0.000467	20.892829
944.265710	-2.985200	3.661100	-10.928000	25.257274	0.000465	20.883466
945.261549	-3.028700	3.659200	-11.082000	25.260540	0.000466	20.890538
946.262565	-3.008900	3.660100	-11.012000	25.289565	0.000467	20.905927
947.260713	-3.009900	3.659600	-11.014000	25.267801	0.000465	20.892612
948.259983	-2.992100	3.659400	-10.948000	25.276804	0.000464	20.889322
949.263829	-3.004900	3.660700	-10.999000	25.329095	0.000466	20.900573
950.261581	-2.995800	3.659500	-10.963000	25.347989	0.000466	20.894414
951.262333	-2.989600	3.658900	-10.938000	25.349081	0.000466	20.914949
952.261858	-2.997500	3.657400	-10.963000	25.321893	0.000465	20.888601
953.263833	-3.005000	3.657800	-10.991000	25.296667	0.000463	20.916850
954.264456	-2.989800	3.658500	-10.936000	25.273975	0.000463	20.881741
955.266433	-2.997900	3.657200	-10.963000	25.301287	0.000463	20.902049
956.262605	-2.994800	3.656900	-10.951000	25.304346	0.000466	20.893742
957.262259	-3.024300	3.655400	-11.054000	25.299747	0.000462	20.892918
958.265657	-2.995400	3.658100	-10.957000	25.283740	0.000463	20.919517
959.265292	-3.021100	3.656100	-11.045000	25.289338	0.000462	20.895268
960.270537	-2.999500	3.655600	-10.964000	25.296318	0.000461	20.871459
961.266181	-2.997700	3.656900	-10.962000	25.309940	0.000462	20.906943
962.270428	-2.998200	3.654800	-10.957000	25.320029	0.000464	20.907116
963.267087	-2.997300	3.655300	-10.955000	25.261101	0.000462	20.883040
964.268077	-3.006600	3.653900	-10.985000	25.276611	0.000463	20.878225
965.271858	-2.999300	3.654800	-10.960000	25.240798	0.000461	20.880200
966.267282	-3.005000	3.653600	-10.977000	25.212309	0.000463	20.890952
967.267015	-2.990800	3.653500	-10.926000	25.228361	0.000459	20.890947
968.271491	-3.012200	3.654000	-11.005000	25.263457	0.000460	20.897733
969.267766	-2.997000	3.653100	-10.947000	25.305566	0.000461	20.898760
970.267559	-3.001400	3.654000	-10.967000	25.323718	0.000460	20.879054
971.269052	-3.007300	3.654100	-10.989000	25.313998	0.000462	20.885889
972.268110	-2.996500	3.653200	-10.947000	25.308154	0.000461	20.897565
973.269571	-3.003400	3.653100	-10.971000	25.303584	0.000460	20.893451
974.270079	-2.986200	3.652800	-10.908000	25.298438	0.000460	20.887336
975.269043	-3.021500	3.651600	-11.032000	25.319065	0.000459	20.902829
976.271202	-3.008000	3.651900	-10.984000	25.370341	0.000460	20.891253
977.270077	-3.004800	3.651300	-10.971000	25.353242	0.000458	20.899214
978.268914	-3.003200	3.652100	-10.967000	25.337905	0.000459	20.869592
979.269253	-3.009600	3.650000	-10.985000	25.325351	0.000460	20.885909
980.269733	-3.010500	3.651200	-10.991000	25.263659	0.000457	20.906943
981.272346	-3.002200	3.650200	-10.957000	25.215241	0.000458	20.884413
982.271074	-3.000600	3.650400	-10.952000	25.210990	0.000458	20.883465
983.270387	-3.006500	3.649600	-10.972000	25.265425	0.000457	20.901130
984.269070	-2.999700	3.650000	-10.948000	25.288245	0.000459	20.872362
985.270535	-3.003700	3.648700	-10.958000	25.319955	0.000456	20.881440
986.271362	-2.978400	3.651200	-10.873000	25.333133	0.000457	20.866697
987.271946	-2.979500	3.649900	-10.874000	25.387306	0.000457	20.876521
988.270426	-2.982900	3.648400	-10.882000	25.390813	0.000455	20.885258
989.271646	-2.989100	3.649300	-10.907000	25.384005	0.000454	20.885534
990.275471	-2.991300	3.648500	-10.912000	25.383130	0.000457	20.876121
991.271426	-2.992700	3.648700	-10.918000	25.337128	0.000457	20.876872
992.273314	-2.979500	3.647700	-10.868000	25.317889	0.000453	20.876047
993.272067	-2.985000	3.647900	-10.888000	25.284207	0.000456	20.858826
994.272532	-2.972400	3.647600	-10.841000	25.334113	0.000453	20.875741
995.271054	-2.996400	3.646500	-10.925000	25.336548	0.000452	20.860643
996.271838	-2.991300	3.646200	-10.906000	25.369500	0.000453	20.871445
997.271355	-2.997200	3.646100	-10.927000	25.418836	0.000452	20.852707
998.273678	-2.967600	3.646700	-10.821000	25.405934	0.000453	20.849709
999.270834	-2.981500	3.646100	-10.870000	25.406106	0.000452	20.869795
1000.271550	-2.996900	3.645400	-10.924000	25.441492	0.000452	20.872136
1001.278998	-3.005600	3.644400	-10.953000	25.427749	0.000452	20.842691
1002.272845	-2.998000	3.644200	-10.924000	25.368714	0.000450	20.868759
1003.283885	-3.006800	3.643800	-10.956000	25.353475	0.000450	20.867682
1004.273409	-2.997900	3.644200	-10.923000	25.314251	0.000450	20.856748
1005.274154	-3.010600	3.644200	-10.970000	25.348748	0.000448	20.851557
1006.275120	-3.028800	3.641700	-11.029000	25.349073	0.000450	20.878434
1007.276305	-3.002400	3.643500	-10.937000	25.362389	0.000447	20.881847
1008.278061	-2.973200	3.643900	-10.833000	25.338999	0.000449	20.854096
1009.277569	-2.981300	3.643600	-10.862000	25.306641	0.000449	20.862383
1010.278514	-2.998300	3.641700	-10.918000	25.361066	0.000450	20.856338
1011.277535	-2.993100	3.642700	-10.903000	25.362955	0.000449	20.846382
1012.277989	-2.971800	3.642100	-10.822000	25.351071	0.000448	20.858156
1013.286355	-3.002300	3.642100	-10.934000	25.302111	0.000446	20.859731
1014.284099	-3.008300	3.641900	-10.955000	25.347913	0.000447	20.855460
1015.278471	-3.004800	3.640900	-10.939000	25.328581	0.000447	20.858334
1016.277866	-2.997400	3.641300	-10.913000	25.320897	0.000447	20.868162
1017.279779	-3.015400	3.640100	-10.976000	25.381883	0.000447	20.868706
1018.277618	-2.987500	3.640400	-10.874000	25.383846	0.000446	20.855504
1019.281219	-2.994000	3.639600	-10.895000	25.435340	0.000446	20.850788
1020.279970	-2.987900	3.639600	-10.874000	25.433427	0.000446	20.851711
1021.280657	-3.007400	3.638400	-10.941000	25.473636	0.000445	20.842777
1022.278479	-3.002800	3.637800	-10.923000	25.451341	0.000445	20.852156
1023.278721	-2.969400	3.638800	-10.804000	25.444455	0.000444	20.853302
1024.279605	-2.986600	3.639000	-10.868000	25.460686	0.000445	20.872919
1025.282414	-2.999300	3.638700	-10.913000	25.412449	0.000446	20.852457
1026.286998	-3.030600	3.636500	-11.019000	25.436049	0.000443	20.851974
1027.281123	-3.020600	3.638400	-10.989000	25.445867	0.000443	20.859461
1028.284540	-3.015800	3.636800	-10.967000	25.410925	0.000442	20.859461
1029.281202	-3.001800	3.637400	-10.917000	25.408687	0.000441	20.844886
1030.286061	-3.027600	3.635200	-11.005000	25.405829	0.000443	20.842017
1031.282311	-2.970900	3.637000	-10.804000	25.362862	0.000441	20.867625
1032.283587	-3.000600	3.635700	-10.908000	25.338228	0.000440	20.864701
1033.284301	-2.968800	3.636000	-10.794000	25.363753	0.000440	20.856666
1034.280971	-2.974200	3.636100	-10.813000	25.421087	0.000441	20.854493
1035.284656	-3.010700	3.634800	-10.943000	25.432001	0.000440	20.855495
1036.283784	-3.005500	3.635700	-10.926000	25.448503	0.000440	20.834134
1037.286345	-3.000100	3.635100	-10.905000	25.515349	0.000440	20.868069
1038.283411	-3.014200	3.633400	-10.951000	25.515079	0.000439	20.833660
1039.284348	-2.978400	3.633900	-10.822000	25.463485	0.000440	20.842540
1040.283413	-3.017900	3.632600	-10.962000	25.446939	0.000437	20.836831
1041.282510	-2.978500	3.634000	-10.823000	25.464902	0.000439	20.850601
1042.296573	-3.006000	3.633600	-10.921000	25.436866	0.000438	20.834302
1043.285522	-2.977700	3.633000	-10.817000	25.434411	0.000439	20.851751
1044.283175	-2.989300	3.632500	-10.858000	25.413856	0.000438	20.830638
1045.286578	-3.027900	3.631700	-10.995000	25.437889	0.000437	20.845286
1046.285178	-3.007300	3.631400	-10.919000	25.417555	0.000436	20.833878
1047.284650	-3.002300	3.630900	-10.899000	25.367428	0.000436	20.849924
1048.284767	-3.039700	3.629500	-11.031000	25.388205	0.000436	20.830011
1049.290312	-2.997900	3.631300	-10.885000	25.380773	0.000435	20.863323
1050.288840	-3.008000	3.630700	-10.921000	25.378461	0.000434	20.828761
1051.287457	-2.989600	3.631100	-10.854000	25.397969	0.000436	20.826539
1052.287555	-2.988800	3.631900	-10.854000	25.418672	0.000434	20.847801
1053.288733	-2.996900	3.630600	-10.880000	25.450333	0.000434	20.852093
1054.288515	-3.001500	3.630000	-10.894000	25.469368	0.000435	20.842758
1055.287933	-3.007700	3.629400	-10.916000	25.420010	0.000435	20.835869
1056.289678	-2.984000	3.630700	-10.833000	25.436640	0.000434	20.822696
1057.287560	-3.013700	3.629300	-10.937000	25.451253	0.000433	20.821723
1058.288501	-3.014700	3.628100	-10.937000	25.448095	0.000432	20.835147
1059.287603	-3.005800	3.627800	-10.903000	25.445956	0.000432	20.827309
1060.286597	-3.009800	3.626600	-10.915000	25.485220	0.000432	20.831177
1061.292690	-3.021800	3.628700	-10.964000	25.461267	0.000430	20.824667
1062.289613	-3.023100	3.628500	-10.968000	25.454780	0.000431	20.824790
1063.290680	-3.019900	3.627600	-10.954000	25.460918	0.000429	20.827161
1064.289317	-3.005900	3.625200	-10.896000	25.435445	0.000432	20.831927
1065.289658	-2.993300	3.626300	-10.853000	25.468921	0.000431	20.826188
1066.292944	-3.010300	3.626600	-10.916000	25.475983	0.000430	20.813840
1067.291856	-3.031800	3.626300	-10.993000	25.413925	0.000430	20.823121
1068.290383	-3.030000	3.624800	-10.982000	25.455084	0.000429	20.807079
1069.289720	-3.013300	3.625300	-10.923000	25.461104	0.000431	20.828296
1070.292348	-3.022600	3.623400	-10.951000	25.438710	0.000427	20.824301
1071.290615	-3.012100	3.624800	-10.916000	25.469722	0.000426	20.835527
1072.293063	-3.007300	3.623900	-10.897000	25.464262	0.000426	20.843320
1073.292194	-2.987000	3.624100	-10.824000	25.453254	0.000426	20.829422
1074.291822	-3.012500	3.624200	-10.916000	25.454794	0.000427	20.830020
1075.298910	-3.013500	3.623200	-10.917000	25.435636	0.000424	20.810782
1076.292107	-3.001300	3.623000	-10.873000	25.429173	0.000426	20.823732
1077.297277	-2.994900	3.622900	-10.850000	25.410983	0.000423	20.797881
1078.293645	-3.006500	3.622300	-10.890000	25.422488	0.000427	20.807063
1079.292694	-3.002500	3.622300	-10.875000	25.433206	0.000424	20.815454
1080.297442	-2.995000	3.623300	-10.852000	25.443245	0.000426	20.814630
1081.292221	-3.010900	3.621300	-10.903000	25.415135	0.000423	20.816274
1082.293785	-2.986200	3.622300	-10.816000	25.432335	0.000423	20.816477
1083.297929	-2.998500	3.621200	-10.857000	25.419360	0.000422	20.829526
1084.293132	-2.987000	3.620800	-10.815000	25.464443	0.000425	20.810787
1085.292398	-2.998600	3.619400	-10.852000	25.406881	0.000425	20.834065
1086.293075	-2.999900	3.620100	-10.860000	25.446024	0.000423	20.833541
1087.292885	-2.983600	3.621400	-10.803000	25.505665	0.000424	20.800973
1088.295227	-2.987500	3.619800	-10.813000	25.480394	0.000421	20.816373
1089.292381	-3.003200	3.618300	-10.866000	25.516824	0.000421	20.815973
1090.293280	-3.002800	3.619100	-10.867000	25.517267	0.000424	20.809780
1091.294187	-3.016400	3.617300	-10.910000	25.490930	0.000420	20.800875
1092.292658	-3.008800	3.617800	-10.884000	25.462796	0.000420	20.805814
1093.299883	-2.978600	3.619500	-10.780000	25.465728	0.000420	20.826775
1094.302224	-3.001100	3.618100	-10.857000	25.497206	0.000418	20.791056
1095.296352	-3.017100	3.617000	-10.912000	25.449418	0.000420	20.815139
1096.297804	-3.006000	3.617000	-10.872000	25.460426	0.000419	20.793002
1097.296611	-3.012400	3.617200	-10.894000	25.472083	0.000418	20.793328
1098.295365	-3.023800	3.616000	-10.933000	25.512217	0.000419	20.794751
1099.299680	-2.994400	3.616900	-10.829000	25.547869	0.000415	20.813485
1100.298066	-3.000300	3.616700	-10.850000	25.547894	0.000416	20.821096
1101.298211	-2.981100	3.616600	-10.780000	25.533479	0.000418	20.806146
1102.302378	-2.993600	3.616200	-10.825000	25.560588	0.000416	20.801128
1103.303538	-2.963300	3.617100	-10.718000	25.594950	0.000414	20.801498
1104.299584	-2.995200	3.613800	-10.823000	25.575091	0.000414	20.800995
1105.297683	-2.989100	3.614900	-10.804000	25.580162	0.000418	20.808458
1106.297761	-3.003100	3.614200	-10.852000	25.544143	0.000414	20.799311
1107.308846	-3.008100	3.614300	-10.872000	25.505554	0.000415	20.789482
1108.301927	-2.993600	3.613900	-10.818000	25.487760	0.000416	20.803855
1109.299535	-2.986700	3.614500	-10.794000	25.518052	0.000417	20.799188
1110.300570	-3.014300	3.613700	-10.892000	25.512032	0.000415	20.812109
1111.298471	-2.990800	3.613900	-10.808000	25.500696	0.000414	20.795509
1112.305482	-2.980800	3.612700	-10.768000	25.471618	0.000414	20.803767
1113.308887	-2.985100	3.613300	-10.785000	25.451162	0.000413	20.789864
1114.308071	-3.007800	3.611300	-10.861000	25.459912	0.000413	20.809556
1115.304677	-3.013100	3.611200	-10.881000	25.506155	0.000413	20.800044
1116.301882	-2.986100	3.612100	-10.784000	25.483216	0.000411	20.798345
1117.301276	-2.981900	3.611500	-10.768000	25.437509	0.000412	20.808870
1118.302150	-3.002700	3.610500	-10.840000	25.425129	0.000413	20.798810
1119.304270	-2.995400	3.611200	-10.816000	25.425823	0.000411	20.786230
1120.305612	-3.002100	3.608900	-10.834000	25.381328	0.000412	20.803665
1121.303011	-3.007500	3.609200	-10.853000	25.414062	0.000412	20.796706
1122.305884	-2.991100	3.610000	-10.797000	25.420738	0.000406	20.800564
1123.303227	-3.015500	3.609600	-10.884000	25.404388	0.000410	20.812121
1124.304776	-3.039900	3.607600	-10.965000	25.389297	0.000409	20.810719
1125.314520	-2.990500	3.608300	-10.790000	25.392426	0.000407	20.799162
1126.305469	-3.016100	3.607200	-10.879000	25.462060	0.000408	20.802703
1127.306217	-3.014700	3.606700	-10.872000	25.530346	0.000407	20.816276
1128.304829	-2.978600	3.608300	-10.746000	25.541899	0.000406	20.795636
1129.307475	-2.977600	3.608300	-10.742000	25.537871	0.000408	20.784953
1130.304911	-2.987400	3.608700	-10.780000	25.505765	0.000406	20.801074
1131.306991	-2.989300	3.606000	-10.778000	25.521017	0.000406	20.788416
1132.309189	-3.001300	3.605900	-10.821000	25.520270	0.000404	20.789087
1133.304141	-3.012600	3.604200	-10.857000	25.594769	0.000404	20.768600
1134.303523	-2.987400	3.606800	-10.774000	25.576651	0.000404	20.791656
1135.307764	-3.020100	3.604200	-10.884000	25.553114	0.000406	20.793622
1136.304334	-2.984400	3.605300	-10.759000	25.525110	0.000404	20.779723
1137.307973	-2.978200	3.604800	-10.735000	25.504355	0.000404	20.792072
1138.305983	-2.976700	3.605100	-10.731000	25.489221	0.000403	20.792995
1139.307016	-3.009000	3.602500	-10.839000	25.506834	0.000403	20.781285
1140.309574	-2.969400	3.604600	-10.702000	25.508374	0.000402	20.807487
1141.306037	-2.995900	3.602100	-10.791000	25.491372	0.000401	20.766705
1142.308088	-2.987300	3.602800	-10.761000	25.539610	0.000402	20.796182
1143.304056	-3.010800	3.602800	-10.846000	25.539556	0.000401	20.793283
1144.305150	-3.009000	3.602100	-10.838000	25.565991	0.000401	20.790907
1145.305137	-3.001100	3.601600	-10.808000	25.521733	0.000399	20.797669
1146.305355	-3.014800	3.601000	-10.856000	25.531968	0.000399	20.785662
1147.307100	-2.990700	3.602100	-10.772000	25.535848	0.000400	20.794775
1148.307131	-2.998800	3.601700	-10.800000	25.544195	0.000400	20.777552
1149.305926	-3.000500	3.601700	-10.806000	25.537408	0.000400	20.789703
1150.306853	-2.988200	3.601100	-10.760000	25.525600	0.000400	20.798707
1151.306625	-3.016200	3.600500	-10.859000	25.536611	0.000398	20.804076
1152.308742	-3.015800	3.599900	-10.854000	25.537978	0.000396	20.792647
1153.308266	-2.990800	3.598800	-10.762000	25.593464	0.000396	20.782462
1154.308049	-2.998100	3.599200	-10.790000	25.600570	0.000398	20.782487
1155.307611	-3.003800	3.599500	-10.811000	25.642706	0.000395	20.772175
1156.309607	-3.006700	3.598900	-10.820000	25.630087	0.000395	20.784157
1157.308918	-2.996100	3.597400	-10.776000	25.613617	0.000394	20.777098
1158.310404	-3.007900	3.598000	-10.820000	25.553653	0.000395	20.795586
1159.310723	-3.026200	3.596300	-10.883000	25.561232	0.000395	20.788024
1160.309693	-2.996100	3.597900	-10.778000	25.580191	0.000396	20.797107
1161.311453	-2.990700	3.597100	-10.757000	25.558620	0.000394	20.782557
1162.311282	-3.011200	3.596000	-10.827000	25.551740	0.000393	20.777069
1163.311592	-3.021300	3.595700	-10.863000	25.544953	0.000393	20.768831
1164.314659	-2.984900	3.596800	-10.735000	25.538368	0.000394	20.767433
1165.310229	-3.000100	3.595200	-10.785000	25.545671	0.000392	20.774768
1166.311229	-3.009400	3.594000	-10.815000	25.518188	0.000391	20.772772
1167.314571	-2.973700	3.595400	-10.690000	25.529225	0.000393	20.789071
1168.315372	-2.994600	3.595400	-10.766000	25.524946	0.000393	20.779085
1169.316527	-3.010500	3.594200	-10.820000	25.514756	0.000390	20.784024
1170.313567	-3.033300	3.592900	-10.897000	25.549251	0.000392	20.766035
1171.313187	-2.989100	3.593600	-10.740000	25.530169	0.000390	20.766312
1172.314746	-3.003000	3.593600	-10.791000	25.528256	0.000391	20.773873
1173.313553	-3.017600	3.592000	-10.837000	25.549900	0.000391	20.785179
1174.315563	-3.016700	3.593000	-10.837000	25.572612	0.000390	20.792815
1175.315283	-2.986200	3.591900	-10.725000	25.589009	0.000390	20.768505
1176.314361	-3.017900	3.591100	-10.837000	25.560234	0.000388	20.769952
1177.316062	-2.994400	3.592200	-10.755000	25.564064	0.000388	20.762419
1178.314336	-3.021100	3.590700	-10.847000	25.576389	0.000389	20.771952
1179.314977	-2.999400	3.591100	-10.769000	25.611518	0.000387	20.773568
1180.313547	-2.992400	3.590900	-10.744000	25.634336	0.000388	20.760449
1181.316309	-3.033200	3.589700	-10.887000	25.632222	0.000384	20.776817
1182.314030	-2.994700	3.591300	-10.754000	25.586628	0.000388	20.768485
1183.315957	-3.012300	3.589300	-10.811000	25.556707	0.000386	20.776842
1184.314423	-3.004700	3.590600	-10.787000	25.603168	0.000386	20.791260
1185.316947	-3.010100	3.590100	-10.806000	25.587597	0.000385	20.782734
1186.315669	-2.996000	3.590200	-10.755000	25.617763	0.000385	20.766563
1187.315134	-3.000100	3.590100	-10.770000	25.651106	0.000386	20.785826
1188.315452	-3.022200	3.587600	-10.842000	25.634980	0.000385	20.760622
1189.316380	-2.997200	3.588100	-10.754000	25.601564	0.000386	20.768786
1190.317384	-2.999200	3.588500	-10.762000	25.589953	0.000384	20.761867
1191.315107	-2.996100	3.587500	-10.747000	25.570448	0.000385	20.759822
1192.316101	-2.989800	3.588900	-10.728000	25.545125	0.000385	20.755253
1193.316910	-3.008400	3.587300	-10.791000	25.530961	0.000383	20.763314
1194.318808	-2.997300	3.586300	-10.747000	25.492121	0.000382	20.771725
1195.318161	-2.975400	3.587500	-10.673000	25.531954	0.000382	20.768105
1196.315855	-3.013200	3.585000	-10.801000	25.516443	0.000382	20.766752
1197.317718	-2.976600	3.587300	-10.678000	25.557047	0.000383	20.782873
1198.316627	-2.979400	3.585800	-10.683000	25.569992	0.000382	20.765527
1199.316964	-3.003300	3.586000	-10.769000	25.544270	0.000379	20.773835
1200.319055	-3.001200	3.585100	-10.759000	25.582267	0.000381	20.775011
1201.316436	-2.997000	3.585100	-10.743000	25.618394	0.000380	20.776680
1202.316235	-2.994700	3.584800	-10.735000	25.622565	0.000382	20.785136
1203.319722	-3.025700	3.583200	-10.839000	25.614839	0.000378	20.782118
1204.316861	-2.995100	3.584200	-10.733000	25.641543	0.000379	20.771006
1205.319466	-3.024200	3.583100	-10.835000	25.591819	0.000379	20.787923
1206.316937	-2.999800	3.583100	-10.747000	25.621189	0.000378	20.787548
1207.316135	-2.999400	3.583200	-10.747000	25.652244	0.000381	20.768952
1208.321738	-3.007700	3.583100	-10.776000	25.673464	0.000379	20.767031
1209.319823	-2.994400	3.581700	-10.724000	25.698233	0.000378	20.773417
1210.322577	-3.019300	3.580200	-10.809000	25.654222	0.000379	20.779473
1211.318603	-2.996600	3.582400	-10.735000	25.645277	0.000377	20.773334
1212.320529	-3.001500	3.580700	-10.746000	25.656160	0.000377	20.764824
1213.318823	-3.005300	3.580500	-10.760000	25.644053	0.000375	20.769734
1214.318672	-3.005700	3.581400	-10.763000	25.639701	0.000376	20.773898
1215.319553	-3.002700	3.581700	-10.753000	25.643897	0.000376	20.762938
1216.323379	-2.997600	3.580400	-10.732000	25.636318	0.000374	20.798950
1217.321403	-3.003200	3.579600	-10.749000	25.628584	0.000375	20.769370
1218.324830	-2.984400	3.579800	-10.683000	25.652632	0.000375	20.771712
1219.324899	-3.019300	3.577500	-10.801000	25.644532	0.000373	20.774008
1220.329813	-3.006700	3.579500	-10.762000	25.650837	0.000374	20.768487
1221.326737	-3.015100	3.578700	-10.790000	25.630159	0.000376	20.799402
1222.323958	-3.009400	3.578600	-10.769000	25.586125	0.000376	20.785049
1223.324583	-3.002400	3.578000	-10.741000	25.598026	0.000372	20.776613
1224.326806	-3.002700	3.577500	-10.741000	25.568652	0.000372	20.785045
1225.325166	-2.961700	3.578500	-10.597000	25.552443	0.000371	20.810966
1226.325623	-3.004400	3.577200	-10.746000	25.588624	0.000372	20.773809
1227.341197	-2.984000	3.576600	-10.672000	25.632448	0.000373	20.775148
1228.323925	-2.976700	3.577800	-10.649000	25.645568	0.000371	20.794490
1229.325204	-2.996600	3.576100	-10.716000	25.658787	0.000374	20.794964
1230.327415	-3.011700	3.575300	-10.767000	25.697173	0.000371	20.785629
1231.331578	-3.004400	3.576000	-10.743000	25.696948	0.000370	20.798679
1232.327041	-3.008700	3.576200	-10.759000	25.631151	0.000371	20.788544
1233.323825	-3.002900	3.575400	-10.736000	25.629110	0.000371	20.770847
1234.322778	-3.000500	3.574400	-10.723000	25.604983	0.000369	20.778384
1235.325566	-3.011200	3.573200	-10.758000	25.629410	0.000370	20.794856
1236.325991	-2.997900	3.573600	-10.712000	25.620829	0.000370	20.779126
1237.328994	-2.995500	3.574200	-10.706000	25.581677	0.000368	20.778211
1238.326562	-3.002300	3.573300	-10.727000	25.618346	0.000368	20.790382
1239.325814	-2.988500	3.572800	-10.677000	25.675096	0.000369	20.787162
1240.326710	-3.004200	3.572100	-10.731000	25.668515	0.000367	20.784346
1241.327414	-2.978100	3.573500	-10.641000	25.669258	0.000368	20.807378
1242.328666	-3.002100	3.572400	-10.724000	25.645231	0.000367	20.791306
1243.328984	-2.985900	3.572200	-10.666000	25.602146	0.000368	20.786441
1244.327256	-3.001800	3.571800	-10.720000	25.610591	0.000364	20.806301
1245.328087	-2.996700	3.571500	-10.702000	25.622668	0.000365	20.801362
1246.327985	-2.994300	3.571600	-10.693000	25.630620	0.000365	20.799865
1247.329182	-2.976600	3.571900	-10.631000	25.575506	0.000364	20.796196
1248.331095	-2.983300	3.570700	-10.652000	25.574036	0.000365	20.794245
1249.329936	-3.006400	3.570700	-10.734000	25.608830	0.000367	20.801688
1250.330729	-2.992800	3.570700	-10.685000	25.616630	0.000363	20.812366
1251.333218	-2.990400	3.569600	-10.674000	25.610743	0.000363	20.774685
1252.329301	-3.013900	3.567600	-10.752000	25.642472	0.000362	20.804656
1253.334209	-2.973600	3.569000	-10.612000	25.602943	0.000364	20.794353
1254.330526	-2.999400	3.568400	-10.702000	25.598217	0.000362	20.804780
1255.329222	-2.997100	3.567300	-10.690000	25.551226	0.000364	20.811640
1256.330803	-2.981900	3.568600	-10.641000	25.558209	0.000361	20.812490
1257.330672	-2.994700	3.567700	-10.683000	25.573441	0.000361	20.799337
1258.333953	-3.006000	3.567200	-10.722000	25.560944	0.000360	20.814762
1259.333358	-2.997300	3.566400	-10.689000	25.549666	0.000360	20.791582
1260.331215	-2.997300	3.567100	-10.690000	25.592326	0.000361	20.787009
1261.330667	-3.026300	3.565000	-10.788000	25.577095	0.000359	20.790679
1262.333966	-3.020400	3.566200	-10.770000	25.617377	0.000358	20.789409
1263.330231	-3.006000	3.566000	-10.718000	25.620156	0.000360	20.789829
1264.335505	-2.992400	3.565700	-10.669000	25.622792	0.000357	20.803382
1265.332010	-2.992200	3.564800	-10.666000	25.639512	0.000360	20.798838
1266.330091	-3.012800	3.563600	-10.735000	25.651713	0.000359	20.806825
1267.330518	-2.982900	3.564400	-10.632000	25.642669	0.000359	20.802009
1268.330604	-3.008500	3.563300	-10.720000	25.715370	0.000355	20.819553
1269.333333	-2.992300	3.563900	-10.664000	25.704295	0.000355	20.799420
1270.334339	-3.010400	3.563000	-10.726000	25.727968	0.000356	20.804232
1271.330486	-2.968600	3.563700	-10.578000	25.766779	0.000355	20.800542
1272.341772	-3.004700	3.561700	-10.700000	25.783202	0.000355	20.822728
1273.332086	-2.996100	3.563000	-10.674000	25.801311	0.000355	20.808202
1274.330491	-2.982800	3.562200	-10.625000	25.717385	0.000354	20.787438
1275.331453	-3.016600	3.561800	-10.744000	25.714685	0.000353	20.818391
1276.330879	-2.986200	3.562800	-10.639000	25.682756	0.000352	20.801020
1277.330395	-3.008200	3.561400	-10.713000	25.657387	0.000353	20.812523
1278.332196	-2.988100	3.560900	-10.640000	25.676324	0.000351	20.795982
1279.330508	-2.997800	3.561300	-10.675000	25.724775	0.000355	20.810508
1280.336912	-2.988200	3.562000	-10.643000	25.762839	0.000352	20.812231
1281.331000	-2.969400	3.561100	-10.574000	25.743583	0.000350	20.820865
1282.333330	-2.994800	3.559000	-10.657000	25.711036	0.000352	20.822312
1283.332890	-3.001000	3.558400	-10.678000	25.732406	0.000351	20.787827
1284.333066	-3.018100	3.558400	-10.739000	25.683512	0.000350	20.820271
1285.331393	-3.019900	3.559400	-10.748000	25.656603	0.000351	20.810314
1286.345589	-2.998500	3.558900	-10.670000	25.637921	0.000352	20.812413
1287.337644	-2.997100	3.558800	-10.666000	25.607131	0.000352	20.824637
1288.336137	-2.997900	3.558200	-10.666000	25.642268	0.000351	20.852340
1289.341124	-3.031500	3.557100	-10.781000	25.683615	0.000352	20.824168
1290.335299	-3.002700	3.557500	-10.681000	25.660930	0.000351	20.811815
1291.338585	-2.996900	3.557000	-10.659000	25.686148	0.000352	20.807272
1292.333584	-2.995900	3.556800	-10.655000	25.697605	0.000351	20.810244
1293.335699	-2.996200	3.555900	-10.653000	25.744984	0.000352	20.806624
1294.335537	-3.005100	3.556300	-10.686000	25.715396	0.000351	20.832855
1295.336034	-3.017700	3.555300	-10.728000	25.714673	0.000348	20.815060
1296.340086	-3.003000	3.556000	-10.677000	25.709427	0.000349	20.815006
1297.337153	-3.022300	3.553100	-10.737000	25.714275	0.000348	20.830307
1298.337727	-3.019000	3.554900	-10.731000	25.706919	0.000347	20.819125
1299.342765	-2.989900	3.554900	-10.627000	25.681599	0.000350	20.832574
1300.338110	-3.000800	3.552600	-10.659000	25.612595	0.000347	20.832022
1301.337052	-3.008300	3.554100	-10.691000	25.646616	0.000346	20.814033
1302.338728	-2.972800	3.553600	-10.563000	25.664875	0.000348	20.827157
1303.337067	-2.972100	3.553200	-10.559000	25.644924	0.000348	20.828455
1304.337648	-2.991200	3.554000	-10.630000	25.678939	0.000346	20.820420
1305.337977	-3.003000	3.551500	-10.665000	25.698889	0.000346	20.828604
1306.338217	-3.021500	3.551300	-10.730000	25.736306	0.000345	20.817822
1307.343884	-3.003200	3.552900	-10.670000	25.748009	0.000343	20.833370
1308.338793	-3.011500	3.550600	-10.692000	25.722021	0.000346	20.809638
1309.339945	-2.993800	3.551300	-10.631000	25.730444	0.000343	20.825685
1310.339206	-2.984800	3.551100	-10.598000	25.760331	0.000343	20.815402
1311.341514	-2.989900	3.549700	-10.613000	25.733001	0.000342	20.835365
1312.340010	-2.970400	3.550400	-10.544000	25.723659	0.000341	20.838309
1313.345374	-3.014000	3.549200	-10.697000	25.687457	0.000342	20.824233
1314.343190	-3.020800	3.549700	-10.722000	25.699435	0.000341	20.831997
1315.345178	-2.995100	3.550300	-10.633000	25.669645	0.000341	20.841430
1316.346202	-2.985800	3.549300	-10.596000	25.680552	0.000343	20.818721
1317.345441	-2.997000	3.548500	-10.633000	25.626557	0.000341	20.828500
1318.351153	-3.023100	3.548100	-10.725000	25.620469	0.000340	20.847989
1319.349572	-3.000000	3.548100	-10.644000	25.597306	0.000338	20.836581
1320.349770	-3.008500	3.547700	-10.672000	25.625112	0.000339	20.808083
1321.348885	-2.997500	3.547300	-10.632000	25.674263	0.000339	20.830422
1322.347174	-2.995200	3.547000	-10.623000	25.679776	0.000340	20.843545
1323.350615	-2.982300	3.547700	-10.580000	25.721795	0.000338	20.847342
1324.349426	-2.998700	3.546500	-10.634000	25.720797	0.000338	20.844444
1325.346218	-2.992300	3.547100	-10.614000	25.740348	0.000340	20.846064
1326.347357	-3.004000	3.545700	-10.650000	25.721441	0.000339	20.823280
1327.347495	-2.994000	3.545700	-10.615000	25.667999	0.000337	20.843095
1328.354168	-2.993900	3.545400	-10.613000	25.650580	0.000337	20.830817
1329.348090	-3.008200	3.545400	-10.664000	25.671229	0.000337	20.861038
1330.348038	-3.021600	3.544400	-10.709000	25.727028	0.000336	20.835529
1331.347840	-3.024000	3.543500	-10.715000	25.778334	0.000336	20.837278
1332.346641	-3.022900	3.542800	-10.709000	25.765342	0.000337	20.849358
1333.347558	-3.014300	3.542600	-10.678000	25.796099	0.000336	20.841372
1334.350259	-2.999500	3.542200	-10.624000	25.773859	0.000336	20.859335
1335.348038	-2.986700	3.543200	-10.581000	25.750873	0.000335	20.825341
1336.347546	-2.988100	3.544600	-10.591000	25.742754	0.000333	20.829988
1337.352484	-2.988300	3.542900	-10.586000	25.687969	0.000335	20.837075
1338.348963	-2.987700	3.541400	-10.580000	25.654894	0.000336	20.850796
1339.353719	-3.017900	3.540900	-10.685000	25.630965	0.000333	20.843358
1340.349446	-3.022800	3.540300	-10.700000	25.659743	0.000334	20.853769
1341.349677	-2.997700	3.542900	-10.619000	25.730353	0.000334	20.840765
1342.349744	-3.015800	3.540600	-10.677000	25.741382	0.000332	20.854688
1343.350990	-2.990900	3.540500	-10.588000	25.741333	0.000331	20.841837
1344.352165	-2.991500	3.539800	-10.588000	25.729934	0.000333	20.856940
1345.353249	-3.009900	3.540200	-10.654000	25.754501	0.000333	20.862175
1346.350318	-3.013900	3.538600	-10.663000	25.781162	0.000331	20.850075
1347.351745	-3.008600	3.540100	-10.650000	25.791719	0.000332	20.882963
1348.353264	-2.992500	3.538400	-10.587000	25.787446	0.000332	20.861128
1349.353299	-3.002800	3.537900	-10.622000	25.809586	0.000332	20.854445
1350.349435	-2.992200	3.538900	-10.588000	25.847495	0.000330	20.857913
1351.351602	-3.020900	3.537400	-10.686000	25.873377	0.000329	20.862575
1352.352941	-2.994400	3.538800	-10.596000	25.870172	0.000329	20.858407
1353.351181	-3.015700	3.535800	-10.662000	25.857403	0.000328	20.856960
1354.350258	-3.014100	3.536300	-10.657000	25.844182	0.000330	20.872602
1355.352152	-2.976300	3.536800	-10.526000	25.808786	0.000328	20.855538
1356.352813	-3.029500	3.534400	-10.707000	25.757978	0.000330	20.849073
1357.352658	-2.978100	3.536500	-10.532000	25.741481	0.000327	20.869011
1358.353311	-2.995000	3.534900	-10.587000	25.754640	0.000329	20.849988
1359.354944	-2.997200	3.534800	-10.593000	25.786542	0.000326	20.874444
1360.356747	-3.004000	3.534500	-10.615000	25.785249	0.000328	20.867930
1361.353171	-2.999400	3.534600	-10.600000	25.794513	0.000328	20.867753
1362.354690	-2.992100	3.533700	-10.572000	25.774166	0.000326	20.867703
1363.354105	-2.987100	3.534000	-10.556000	25.752674	0.000327	20.875986
1364.355038	-3.002900	3.532900	-10.608000	25.733168	0.000327	20.867299
1365.354966	-3.005900	3.533900	-10.622000	25.729288	0.000323	20.854394
1366.355104	-3.001000	3.531100	-10.595000	25.762357	0.000323	20.870539
1367.356502	-2.995300	3.531400	-10.577000	25.743047	0.000324	20.881015
1368.360430	-2.990200	3.531500	-10.559000	25.770028	0.000325	20.892942
1369.358939	-2.988500	3.530900	-10.551000	25.783142	0.000324	20.888572
1370.361115	-2.986800	3.531800	-10.548000	25.758469	0.000327	20.874694
1371.356632	-2.975000	3.531300	-10.504000	25.724201	0.000324	20.877733
1372.369571	-3.016000	3.530200	-10.646000	25.689096	0.000323	20.900791
1373.357387	-2.985300	3.530500	-10.538000	25.688997	0.000322	20.876986
1374.358536	-2.988000	3.529800	-10.546000	25.696197	0.000324	20.868097
1375.358772	-3.013100	3.528400	-10.631000	25.696768	0.000321	20.884316
1376.361738	-3.004000	3.528100	-10.597000	25.694501	0.000321	20.866868
1377.358395	-3.003400	3.527900	-10.595000	25.694575	0.000319	20.877847
1378.357540	-3.006200	3.529100	-10.608000	25.746079	0.000322	20.897336
1379.365947	-2.990200	3.527400	-10.546000	25.769087	0.000319	20.888678
1380.356455	-3.004900	3.528100	-10.599000	25.729931	0.000320	20.877324
1381.358541	-3.015200	3.527800	-10.636000	25.704189	0.000319	20.886555
1382.356135	-3.000600	3.527000	-10.582000	25.712362	0.000319	20.886703
1383.356894	-3.006000	3.526300	-10.598000	25.668365	0.000315	20.876652
1384.357162	-2.986400	3.527800	-10.534000	25.665532	0.000317	20.886608
1385.356363	-3.005000	3.526400	-10.596000	25.710174	0.000316	20.864592
1386.359876	-3.002300	3.527000	-10.589000	25.747795	0.000317	20.886732
1387.358042	-3.009500	3.525500	-10.609000	25.796740	0.000317	20.894644
1388.359028	-2.997700	3.525800	-10.567000	25.846700	0.000318	20.894570
1389.360038	-2.971100	3.526100	-10.475000	25.855623	0.000316	20.898317
1390.358769	-3.025200	3.524700	-10.662000	25.854380	0.000316	20.893749
1391.359329	-2.995800	3.525200	-10.560000	25.836041	0.000314	20.900457
1392.360723	-3.025200	3.523500	-10.658000	25.832273	0.000314	20.892880
1393.358883	-2.987700	3.525600	-10.532000	25.778590	0.000313	20.902490
1394.358712	-3.047600	3.522400	-10.734000	25.746166	0.000316	20.896949
1395.361351	-2.970100	3.524900	-10.468000	25.720158	0.000313	20.895007
1396.359552	-3.000100	3.523300	-10.569000	25.674441	0.000313	20.905038
1397.367158	-3.010500	3.522500	-10.604000	25.742596	0.000312	20.908060
1398.358559	-3.000700	3.522500	-10.569000	25.774522	0.000313	20.895086
1399.361840	-3.028700	3.521700	-10.665000	25.771099	0.000313	20.888329
1400.367368	-3.000700	3.521500	-10.565000	25.814448	0.000312	20.902000
1401.359395	-3.000900	3.521300	-10.565000	25.836912	0.000311	20.898488
1402.368943	-2.980800	3.521100	-10.495000	25.828269	0.000311	20.920148
1403.372544	-2.998400	3.520600	-10.556000	25.820741	0.000310	20.896942
1404.361418	-2.996800	3.520800	-10.551000	25.806860	0.000312	20.903386
1405.361961	-3.017600	3.520200	-10.622000	25.794685	0.000311	20.912493
1406.363194	-2.990100	3.519900	-10.524000	25.799779	0.000309	20.908601
1407.365549	-2.992400	3.520000	-10.532000	25.777122	0.000311	20.890585
1408.363102	-3.000700	3.518600	-10.557000	25.773350	0.000309	20.906235
1409.363404	-3.006500	3.517400	-10.575000	25.759390	0.000311	20.912600
1410.362518	-3.010300	3.519000	-10.593000	25.771614	0.000309	20.913499
1411.364203	-2.982500	3.518400	-10.493000	25.801007	0.000309	20.919316
1412.368926	-3.000500	3.517900	-10.555000	25.815566	0.000307	20.903123
1413.366795	-2.991100	3.516200	-10.517000	25.818920	0.000309	20.892267
1414.365780	-3.014500	3.516600	-10.600000	25.796813	0.000308	20.920318
1415.366389	-3.015600	3.515400	-10.600000	25.842701	0.000308	20.901932
1416.367961	-2.983800	3.515000	-10.487000	25.852092	0.000308	20.913735
1417.370228	-3.014100	3.515800	-10.597000	25.787902	0.000308	20.912791
1418.369560	-3.008400	3.515200	-10.574000	25.791029	0.000308	20.896968
1419.367147	-3.021100	3.515100	-10.619000	25.755105	0.000307	20.893126
1420.367650	-3.014600	3.513200	-10.590000	25.748821	0.000306	20.914312
1421.371815	-2.993400	3.514700	-10.520000	25.784072	0.000308	20.912263
1422.368483	-3.008600	3.513000	-10.568000	25.788846	0.000307	20.905679
1423.370836	-3.009800	3.514300	-10.577000	25.823304	0.000306	20.900464
1424.370756	-3.040700	3.512000	-10.678000	25.822639	0.000307	20.922554
1425.370219	-3.004900	3.513300	-10.556000	25.780850	0.000304	20.909501
1426.370800	-3.002800	3.512800	-10.547000	25.801821	0.000306	20.899747
1427.371614	-2.998900	3.511800	-10.530000	25.795857	0.000304	20.892335
1428.374778	-3.025300	3.511700	-10.623000	25.823485	0.000305	20.913447
1429.373182	-2.990300	3.513100	-10.504000	25.847631	0.000303	20.908780
1430.370885	-3.012500	3.511000	-10.576000	25.858443	0.000303	20.893564
1431.374480	-2.991700	3.511500	-10.504000	25.849475	0.000304	20.898305
1432.371555	-2.995600	3.511500	-10.518000	25.832851	0.000304	20.886348
1433.372811	-2.999600	3.509100	-10.525000	25.796658	0.000302	20.887449
1434.378330	-2.994200	3.510700	-10.511000	25.794548	0.000302	20.897183
1435.373559	-3.006000	3.509400	-10.549000	25.790251	0.000303	20.906616
1436.372262	-2.994600	3.507400	-10.502000	25.731717	0.000302	20.886703
1437.371746	-2.992000	3.509100	-10.498000	25.751572	0.000301	20.892422
1438.377366	-3.023800	3.508400	-10.608000	25.795472	0.000301	20.888629
1439.373993	-3.013700	3.508300	-10.572000	25.817706	0.000302	20.890101
1440.373662	-3.011600	3.508900	-10.566000	25.819172	0.000300	20.902003
1441.372536	-3.002400	3.508000	-10.532000	25.829532	0.000303	20.915728
1442.377098	-2.980100	3.508000	-10.453000	25.823941	0.000303	20.875976
1443.372744	-2.983000	3.507600	-10.462000	25.808944	0.000303	20.877506
1444.375263	-2.982300	3.506900	-10.459000	25.849537	0.000301	20.882247
1445.374182	-2.990600	3.506600	-10.486000	25.821064	0.000302	20.877354
1446.371440	-3.017100	3.506500	-10.579000	25.808020	0.000300	20.901706
1447.375269	-3.019200	3.505400	-10.582000	25.858830	0.000301	20.889211
1448.375506	-2.987500	3.504200	-10.467000	25.800517	0.000300	20.883265
1449.379172	-3.002800	3.504200	-10.522000	25.796367	0.000300	20.867718
1450.378282	-2.999200	3.505800	-10.514000	25.840840	0.000299	20.866873
1451.378000	-3.013700	3.502900	-10.556000	25.871495	0.000302	20.860211
1452.375689	-2.998100	3.504600	-10.507000	25.850054	0.000297	20.880870
1453.377886	-3.018100	3.503000	-10.571000	25.844390	0.000298	20.874707
1454.376565	-2.987100	3.502500	-10.460000	25.852114	0.000298	20.878673
1455.378750	-3.004200	3.502700	-10.522000	25.863418	0.000299	20.869640
1456.377676	-2.993700	3.502300	-10.485000	25.832060	0.000298	20.859002
1457.379760	-3.008300	3.501500	-10.533000	25.831071	0.000297	20.870336
1458.378930	-3.011800	3.502300	-10.547000	25.833603	0.000300	20.887103
1459.376803	-3.017300	3.501200	-10.563000	25.815716	0.000298	20.860602
1460.382316	-3.038100	3.499700	-10.632000	25.796112	0.000297	20.880264
1461.377531	-3.005500	3.501400	-10.523000	25.792926	0.000295	20.874693
1462.377895	-2.984300	3.502300	-10.451000	25.791260	0.000298	20.871597
1463.378807	-2.992700	3.499700	-10.473000	25.784951	0.000297	20.852933
1464.381248	-2.978600	3.500700	-10.426000	25.753496	0.000295	20.861640
1465.380205	-3.016700	3.500200	-10.557000	25.800253	0.000295	20.878259
1466.381071	-3.006000	3.498700	-10.516000	25.832572	0.000295	20.875163
1467.380083	-2.994500	3.499700	-10.478000	25.855376	0.000294	20.866777
1468.378739	-2.997100	3.498300	-10.484000	25.874502	0.000297	20.869869
1469.384901	-3.007200	3.497800	-10.518000	25.818653	0.000295	20.879199
1470.378829	-3.017800	3.497000	-10.553000	25.795519	0.000296	20.860229
1471.382173	-2.993900	3.496800	-10.468000	25.800269	0.000295	20.869741
1472.379447	-2.996900	3.497000	-10.479000	25.825056	0.000291	20.857657
1473.380362	-2.983400	3.498300	-10.436000	25.875462	0.000292	20.872730
1474.378572	-2.987100	3.496800	-10.444000	25.882189	0.000291	20.850565
1475.378402	-2.991200	3.495900	-10.456000	25.848849	0.000291	20.876341
1476.379084	-2.997400	3.497200	-10.482000	25.859828	0.000290	20.847543
1477.379692	-3.006000	3.495300	-10.506000	25.849513	0.000290	20.866104
1478.379212	-3.014600	3.495400	-10.536000	25.893582	0.000289	20.863906
1479.379494	-3.003000	3.494900	-10.494000	25.883099	0.000290	20.864281
1480.380570	-2.983600	3.495100	-10.427000	25.880961	0.000288	20.868297
1481.381209	-2.976600	3.495400	-10.404000	25.916011	0.000288	20.864627
1482.382686	-3.001600	3.493800	-10.486000	25.906916	0.000288	20.832732
1483.380593	-3.006200	3.492800	-10.499000	25.904531	0.000290	20.856889
1484.379966	-2.994000	3.493500	-10.459000	25.928077	0.000288	20.859205
1485.381857	-2.977900	3.494000	-10.404000	25.892973	0.000286	20.875622
1486.388322	-3.010600	3.493800	-10.518000	25.875932	0.000287	20.860401
1487.382650	-3.001900	3.491100	-10.479000	25.878916	0.000287	20.846804
1488.382807	-3.005900	3.492600	-10.497000	25.819891	0.000286	20.858632
1489.382667	-2.973800	3.491200	-10.382000	25.795095	0.000285	20.845579
1490.383550	-2.997500	3.492100	-10.467000	25.759544	0.000287	20.852069
1491.384054	-2.995200	3.491700	-10.457000	25.752858	0.000283	20.843930
1492.385415	-3.012300	3.491500	-10.516000	25.737580	0.000283	20.847076
1493.386798	-3.003100	3.491300	-10.484000	25.728040	0.000286	20.864520
1494.384004	-3.016300	3.488600	-10.522000	25.740662	0.000283	20.834526
1495.385141	-3.010600	3.489200	-10.504000	25.779395	0.000286	20.846404
1496.388993	-3.002200	3.489800	-10.476000	25.843266	0.000286	20.855561
1497.386902	-2.987300	3.490100	-10.425000	25.879384	0.000286	20.830679
1498.391985	-3.001600	3.488900	-10.471000	25.911533	0.000283	20.836896
1499.389953	-3.004700	3.488700	-10.482000	25.930933	0.000283	20.847377
1500.389739	-3.011700	3.488400	-10.504000	25.922959	0.000285	20.828935
1501.388571	-3.013200	3.488000	-10.509000	25.960416	0.000284	20.827211
1502.389596	-2.984800	3.488200	-10.411000	25.916917	0.000282	20.835667
1503.389679	-2.962500	3.487900	-10.332000	25.927251	0.000283	20.831825
1504.390254	-3.014000	3.485200	-10.504000	25.916027	0.000282	20.837144
1505.389619	-2.986900	3.487100	-10.415000	25.925142	0.000283	20.833499
1506.389712	-3.005800	3.485400	-10.475000	25.949188	0.000281	20.833000
1507.389503	-2.993800	3.485700	-10.435000	25.915953	0.000281	20.849397
1508.398541	-2.994900	3.484800	-10.436000	25.882565	0.000282	20.848098
1509.390610	-2.997500	3.485900	-10.448000	25.894184	0.000280	20.825158
1510.390515	-3.002100	3.483900	-10.458000	25.876523	0.000282	20.830650
1511.390283	-2.994600	3.484300	-10.434000	25.897812	0.000281	20.835915
1512.389728	-3.002700	3.484300	-10.462000	25.868971	0.000280	20.821167
1513.389650	-3.008300	3.484800	-10.483000	25.839629	0.000280	20.836261
1514.391361	-2.998500	3.483100	-10.443000	25.885782	0.000278	20.841373
1515.391677	-3.026500	3.483700	-10.542000	25.899219	0.000279	20.836854
1516.392343	-2.979600	3.483800	-10.380000	25.922322	0.000279	20.817390
1517.394157	-3.002600	3.483100	-10.457000	25.959902	0.000278	20.825747
1518.395712	-2.997500	3.481300	-10.433000	25.933345	0.000277	20.845059
1519.397197	-3.009100	3.480800	-10.473000	25.868334	0.000278	20.842337
1520.392941	-2.993300	3.481300	-10.419000	25.909073	0.000276	20.823046
1521.392174	-3.014100	3.480300	-10.489000	25.924796	0.000277	20.800909
1522.393523	-2.993400	3.480500	-10.417000	25.962028	0.000277	20.835468
1523.393186	-2.992500	3.480200	-10.414000	25.916247	0.000275	20.828830
1524.393666	-2.993100	3.481100	-10.418000	25.914896	0.000275	20.852128
1525.393834	-3.010100	3.479900	-10.473000	25.891198	0.000276	20.824055
1526.394574	-3.018600	3.479800	-10.503000	25.890751	0.000276	20.808908
1527.394512	-3.028200	3.478900	-10.533000	25.907660	0.000276	20.833480
1528.395465	-3.010800	3.478600	-10.473000	25.889675	0.000278	20.814939
1529.396115	-2.993000	3.478100	-10.409000	25.883314	0.000276	20.815661
1530.393817	-3.011000	3.477900	-10.471000	25.891083	0.000273	20.841482
1531.393979	-2.999300	3.478300	-10.431000	25.914407	0.000273	20.826982
1532.395714	-2.996600	3.478300	-10.422000	25.944839	0.000273	20.840011
1533.402648	-3.010600	3.477700	-10.469000	25.872076	0.000274	20.816699
1534.395575	-3.007400	3.477300	-10.458000	25.851426	0.000275	20.828198
1535.398226	-3.026100	3.475500	-10.516000	25.840320	0.000273	20.807558
1536.396087	-2.981100	3.477900	-10.367000	25.810283	0.000270	20.811524
1537.396217	-3.002700	3.475100	-10.433000	25.886046	0.000275	20.803233
1538.397281	-2.999200	3.475500	-10.423000	25.873975	0.000270	20.806754
1539.398750	-3.012400	3.475600	-10.470000	25.826918	0.000271	20.815907
1540.401664	-2.996200	3.475400	-10.412000	25.832755	0.000272	20.837890
1541.402456	-3.017100	3.475700	-10.484000	25.850465	0.000272	20.827232
1542.398274	-2.998800	3.475000	-10.420000	25.849665	0.000271	20.828325
1543.400025	-2.992800	3.474500	-10.398000	25.881810	0.000273	20.813202
1544.399213	-2.990300	3.474700	-10.389000	25.926024	0.000271	20.823006
1545.398419	-3.014200	3.473400	-10.469000	25.904864	0.000269	20.815024
1546.402944	-3.006500	3.472800	-10.441000	25.868836	0.000271	20.818186
1547.400451	-3.014000	3.471600	-10.462000	25.884584	0.000270	20.828316
1548.397089	-3.012000	3.471400	-10.455000	25.926316	0.000270	20.810971
1549.402626	-3.002200	3.472600	-10.424000	25.950234	0.000269	20.809870
1550.399798	-3.014400	3.471200	-10.462000	25.971349	0.000269	20.823496
1551.405002	-3.008500	3.471200	-10.442000	25.947923	0.000269	20.825566
1552.398576	-2.995400	3.472000	-10.399000	25.909837	0.000270	20.803425
1553.401526	-2.994900	3.471600	-10.396000	25.938184	0.000269	20.812463
1554.404430	-3.003200	3.469700	-10.419000	25.920766	0.000266	20.804922
1555.400046	-2.994000	3.469500	-10.387000	25.919002	0.000266	20.826856
1556.402648	-3.008300	3.469900	-10.438000	25.926106	0.000266	20.822614
1557.403747	-3.016400	3.469000	-10.463000	25.890605	0.000266	20.807338
1558.401567	-3.014100	3.468100	-10.452000	25.863450	0.000265	20.825578
1559.402493	-3.005600	3.469000	-10.425000	25.890826	0.000265	20.799500
1560.407333	-2.982800	3.468700	-10.346000	25.890723	0.000265	20.792759
1561.404479	-3.010200	3.467400	-10.436000	25.893605	0.000266	20.823154
1562.404520	-3.016700	3.468000	-10.460000	25.932081	0.000263	20.799694
1563.405193	-3.008000	3.467000	-10.427000	25.985930	0.000265	20.812541
1564.403357	-2.997900	3.467300	-10.393000	25.962578	0.000262	20.815633
1565.409565	-3.030100	3.465800	-10.501000	25.991564	0.000262	20.803029
1566.405253	-3.009300	3.467400	-10.433000	25.954698	0.000261	20.800604
1567.406314	-3.013900	3.465400	-10.443000	25.940687	0.000262	20.828253
1568.405169	-2.965900	3.466400	-10.280000	25.932364	0.000262	20.800926
1569.404546	-2.990300	3.466500	-10.365000	25.926278	0.000263	20.822786
1570.409538	-3.006500	3.465400	-10.418000	25.951238	0.000261	20.780059
1571.408113	-2.997800	3.466200	-10.390000	25.967088	0.000259	20.824431
1572.411985	-3.036400	3.462500	-10.513000	25.983853	0.000259	20.821834
1573.406730	-2.999200	3.465200	-10.392000	25.967030	0.000259	20.790235
1574.406919	-3.013500	3.463700	-10.436000	25.917503	0.000258	20.797376
1575.407453	-3.048000	3.463000	-10.555000	25.893276	0.000258	20.829935
1576.406893	-3.012400	3.463900	-10.434000	25.917921	0.000258	20.818659
1577.406904	-3.011100	3.463900	-10.429000	25.974007	0.000257	20.794873
1578.410356	-2.981000	3.463000	-10.323000	25.969288	0.000258	20.792502
1579.407552	-3.001500	3.463200	-10.394000	25.986224	0.000256	20.799561
1580.406641	-2.999600	3.462900	-10.386000	25.994641	0.000258	20.812284
1581.408850	-2.995700	3.462400	-10.371000	25.971594	0.000256	20.818053
1582.407368	-2.997600	3.460500	-10.373000	25.925666	0.000254	20.788033
1583.408944	-2.992600	3.460500	-10.355000	25.927028	0.000255	20.799833
1584.409741	-2.995700	3.461800	-10.370000	25.878537	0.000253	20.810862
1585.409648	-3.003700	3.459600	-10.391000	25.906286	0.000253	20.783262
1586.407820	-2.999100	3.460400	-10.377000	25.939923	0.000255	20.799037
1587.406956	-3.014800	3.460300	-10.431000	25.955371	0.000254	20.805547
1588.409648	-2.985700	3.459600	-10.329000	25.937539	0.000253	20.790952
1589.409230	-2.990400	3.460500	-10.347000	26.001499	0.000253	20.792622
1590.409411	-2.968700	3.459500	-10.270000	26.006621	0.000252	20.806776
1591.410147	-2.991800	3.457500	-10.343000	25.968122	0.000252	20.775210
1592.411330	-3.000800	3.457400	-10.374000	25.987722	0.000254	20.797747
1593.410419	-3.005500	3.457300	-10.389000	25.950089	0.000251	20.792655
1594.410346	-2.985700	3.457400	-10.322000	25.905453	0.000250	20.798073
1595.408573	-3.001800	3.456200	-10.374000	25.861952	0.000252	20.775235
1596.408739	-2.994700	3.457400	-10.353000	25.852540	0.000251	20.790437
1597.411576	-3.009000	3.456100	-10.399000	25.867649	0.000253	20.789018
1598.410446	-2.995200	3.455800	-10.350000	25.854231	0.000250	20.792610
1599.411651	-3.019200	3.456100	-10.434000	25.890481	0.000251	20.785877
1600.409887	-3.008700	3.455700	-10.396000	25.950520	0.000250	20.788346
1601.410930	-3.007100	3.453900	-10.385000	25.981419	0.000250	20.782879
1602.415102	-3.015800	3.453600	-10.414000	26.000326	0.000249	20.798555
1603.412451	-2.972300	3.454800	-10.268000	26.034580	0.000249	20.773701
1604.417280	-2.996500	3.454600	-10.350000	26.029610	0.000248	20.800477
1605.410886	-3.019100	3.453800	-10.425000	26.032598	0.000250	20.775503
1606.414073	-3.020500	3.453300	-10.430000	26.078493	0.000250	20.767088
1607.410049	-3.006600	3.451600	-10.377000	26.081648	0.000248	20.782586
1608.416142	-3.011500	3.452900	-10.397000	26.103807	0.000247	20.792049
1609.413162	-2.988700	3.453300	-10.320000	26.092949	0.000250	20.775924
1610.411756	-3.002400	3.453000	-10.366000	26.111756	0.000247	20.766844
1611.412744	-3.011900	3.452900	-10.398000	26.147963	0.000247	20.773829
1612.414467	-2.994300	3.452500	-10.337000	26.070405	0.000247	20.780298
1613.412184	-3.007700	3.451000	-10.378000	25.992664	0.000244	20.790858
1614.413451	-3.001100	3.451400	-10.357000	25.964647	0.000246	20.789736
1615.414507	-2.988900	3.452400	-10.318000	25.994154	0.000247	20.770543
1616.412382	-3.001000	3.450700	-10.355000	25.959057	0.000245	20.778905
1617.416547	-3.002500	3.450500	-10.359000	25.917996	0.000245	20.770370
1618.413901	-3.011000	3.448800	-10.384000	25.876888	0.000246	20.781705
1619.415115	-3.002700	3.448000	-10.352000	25.906279	0.000245	20.779936
1620.420104	-2.989800	3.449900	-10.313000	25.894327	0.000244	20.783102
1621.420159	-2.987400	3.448800	-10.302000	25.887678	0.000245	20.786380
1622.424568	-3.005200	3.448000	-10.361000	25.913958	0.000245	20.759675
1623.419810	-2.995300	3.447300	-10.325000	25.918952	0.000245	20.787452
1624.419750	-2.974700	3.448900	-10.258000	25.922162	0.000244	20.778349
1625.421845	-2.992900	3.446800	-10.315000	25.905815	0.000245	20.759555
1626.422042	-2.992200	3.447500	-10.315000	25.882737	0.000244	20.781416
1627.418797	-2.988500	3.446200	-10.298000	25.914089	0.000244	20.781618
1628.421746	-3.001400	3.447800	-10.347000	25.932024	0.000243	20.765497
1629.421721	-3.016600	3.445300	-10.392000	25.940844	0.000243	20.780048
1630.423611	-3.006300	3.445000	-10.355000	25.958208	0.000243	20.762879
1631.426286	-2.993400	3.445100	-10.312000	25.939005	0.000242	20.782468
1632.423615	-3.012000	3.445400	-10.376000	25.930736	0.000242	20.772737
1633.424835	-2.997700	3.444800	-10.325000	25.972986	0.000241	20.762553
1634.427969	-2.992900	3.444900	-10.310000	25.975445	0.000241	20.757910
1635.423924	-3.009200	3.443800	-10.363000	25.990547	0.000241	20.761229
1636.427329	-2.983200	3.444400	-10.275000	25.953218	0.000238	20.771616
1637.425541	-3.002900	3.444800	-10.343000	25.941168	0.000241	20.753820
1638.426543	-2.998400	3.442900	-10.322000	25.888902	0.000240	20.771488
1639.428878	-2.974900	3.443600	-10.244000	25.866771	0.000239	20.770593
1640.425710	-2.985000	3.443100	-10.276000	25.919088	0.000239	20.765777
1641.430202	-3.008000	3.441300	-10.351000	25.927407	0.000239	20.773187
1642.425415	-2.987600	3.442500	-10.284000	25.958631	0.000243	20.767097
1643.429129	-2.984800	3.441300	-10.271000	26.009055	0.000239	20.781247
1644.427197	-3.003200	3.440600	-10.332000	26.054660	0.000238	20.754521
1645.426484	-2.989900	3.441100	-10.287000	26.068990	0.000236	20.760384
1646.427532	-3.020900	3.440300	-10.392000	26.077833	0.000238	20.769270
1647.433406	-3.006600	3.439600	-10.341000	26.087197	0.000238	20.788162
1648.427260	-3.030500	3.439400	-10.421000	26.020878	0.000237	20.777005
1649.424893	-2.998500	3.438600	-10.310000	25.964934	0.000237	20.777697
1650.429162	-2.976600	3.439300	-10.236000	25.955274	0.000236	20.782216
1651.426719	-2.982800	3.439900	-10.259000	25.944369	0.000237	20.764623
1652.430427	-2.988700	3.440500	-10.282000	26.004902	0.000237	20.745305
1653.427720	-2.993100	3.438400	-10.290000	26.055128	0.000236	20.756888
1654.429966	-2.984700	3.438000	-10.261000	26.071788	0.000235	20.761299
1655.426637	-3.002200	3.437900	-10.319000	26.041093	0.000233	20.761279
1656.428683	-3.012300	3.436700	-10.352000	26.023353	0.000234	20.768111
1657.432714	-3.000400	3.436300	-10.309000	25.998734	0.000234	20.758075
1658.431415	-3.031800	3.436100	-10.417000	25.982717	0.000232	20.783235
1659.428566	-3.009200	3.436300	-10.340000	26.003954	0.000235	20.778493
1660.428524	-3.007700	3.435400	-10.331000	26.024120	0.000234	20.763666
1661.430160	-3.001400	3.436400	-10.313000	26.017016	0.000233	20.758899
1662.429847	-3.024600	3.435200	-10.389000	26.012523	0.000233	20.753910
1663.432552	-2.987000	3.435900	-10.262000	26.036989	0.000234	20.788924
1664.433110	-2.999000	3.434600	-10.300000	26.072880	0.000234	20.774724
1665.431195	-3.002900	3.433500	-10.310000	26.101140	0.000232	20.766610
1666.432268	-2.977500	3.435500	-10.229000	26.111124	0.000233	20.765262
1667.429909	-2.985800	3.433500	-10.251000	26.103525	0.000232	20.761419
1668.433790	-3.020800	3.432400	-10.368000	26.152473	0.000233	20.773145
1669.433329	-2.994600	3.432700	-10.278000	26.105978	0.000232	20.769100
1670.431858	-2.995600	3.432100	-10.280000	26.049370	0.000231	20.754421
1671.432745	-2.992100	3.431300	-10.266000	26.015342	0.000229	20.795624
1672.433263	-3.015600	3.432500	-10.350000	26.037223	0.000231	20.779676
1673.433914	-2.996800	3.431600	-10.283000	26.042537	0.000231	20.769842
1674.434816	-3.000000	3.431600	-10.293000	26.024727	0.000231	20.782294
1675.433426	-3.011200	3.430900	-10.330000	25.982027	0.000229	20.780645
1676.434857	-2.992200	3.431500	-10.267000	25.932939	0.000228	20.782537
1677.435651	-2.991100	3.431300	-10.263000	25.950648	0.000227	20.788000
1678.437077	-3.019700	3.430000	-10.356000	25.950176	0.000228	20.776620
1679.436742	-3.024800	3.429800	-10.373000	25.983533	0.000228	20.788796
1680.435831	-2.998300	3.429800	-10.283000	25.977245	0.000226	20.766358
1681.437418	-3.016000	3.429200	-10.341000	25.953028	0.000225	20.784701
1682.439398	-3.027700	3.429900	-10.384000	25.957173	0.000224	20.793607
1683.438800	-3.018600	3.427500	-10.346000	25.980849	0.000225	20.765236
1684.444796	-2.989000	3.429500	-10.250000	25.980393	0.000226	20.786116
1685.441103	-2.999200	3.428500	-10.282000	25.999845	0.000224	20.780055
1686.440477	-2.990700	3.428600	-10.253000	25.993185	0.000225	20.772889
1687.440812	-2.995300	3.428100	-10.268000	26.021029	0.000225	20.805605
1688.439952	-3.007900	3.427800	-10.309000	25.959003	0.000224	20.780273
1689.440029	-3.007600	3.426600	-10.305000	25.927184	0.000223	20.769169
1690.445817	-2.990300	3.427200	-10.247000	25.939956	0.000223	20.787691
1691.440041	-3.006700	3.426600	-10.302000	26.004540	0.000224	20.797574
1692.441089	-3.016300	3.425400	-10.331000	26.002221	0.000223	20.781019
1693.443756	-3.015600	3.426600	-10.332000	26.033000	0.000222	20.792976
1694.443277	-3.002000	3.426000	-10.284000	26.049890	0.000222	20.778178
1695.445404	-2.995800	3.425000	-10.260000	26.001950	0.000225	20.793549
1696.443874	-3.015400	3.424100	-10.324000	26.023561	0.000223	20.797718
1697.442647	-2.994200	3.423900	-10.251000	26.032803	0.000223	20.786140
1698.444659	-2.985300	3.423900	-10.221000	26.066235	0.000221	20.789859
1699.444416	-2.999500	3.423900	-10.269000	26.045721	0.000219	20.787266
1700.448393	-2.999900	3.423300	-10.268000	26.053419	0.000220	20.780302
1701.444240	-2.983600	3.423300	-10.212000	26.007868	0.000219	20.789538
1702.445193	-3.029400	3.421800	-10.366000	25.996817	0.000221	20.787443
1703.444191	-2.983700	3.423100	-10.212000	26.017114	0.000219	20.796456
1704.446072	-3.002100	3.421700	-10.271000	26.002111	0.000220	20.797030
1705.445993	-3.012700	3.421400	-10.306000	25.993685	0.000219	20.812272
1706.444655	-2.998700	3.421600	-10.260000	26.020840	0.000218	20.801149
1707.446678	-2.995400	3.422100	-10.250000	26.052410	0.000219	20.793513
1708.446237	-3.005900	3.420400	-10.280000	26.004864	0.000221	20.796477
1709.446973	-3.008000	3.421700	-10.292000	26.033406	0.000219	20.780108
1710.449739	-3.007200	3.420100	-10.284000	26.101710	0.000216	20.782830
1711.448108	-3.005600	3.420600	-10.280000	26.088600	0.000216	20.800002
1712.446304	-2.990300	3.419300	-10.224000	26.091230	0.000216	20.785576
1713.446247	-2.998400	3.420000	-10.254000	26.109761	0.000215	20.795661
1714.445941	-3.001400	3.419500	-10.262000	26.058919	0.000215	20.787724
1715.448833	-2.987800	3.419200	-10.215000	26.036566	0.000216	20.795137
1716.451145	-2.993000	3.417400	-10.227000	26.040764	0.000215	20.814528
1717.446805	-3.000800	3.419400	-10.260000	26.033562	0.000214	20.800180
1718.446823	-2.995500	3.419400	-10.241000	26.044392	0.000214	20.801577
1719.449354	-2.996900	3.418300	-10.244000	26.051319	0.000213	20.793364
1720.449430	-3.007500	3.418200	-10.279000	26.103828	0.000214	20.806294
1721.451024	-3.012100	3.416300	-10.290000	26.139666	0.000213	20.814804
1722.449190	-3.010500	3.414900	-10.279000	26.107607	0.000212	20.821471
1723.456171	-2.991400	3.417300	-10.221000	26.089630	0.000211	20.784442
1724.453782	-3.019900	3.416300	-10.316000	26.079490	0.000210	20.807919
1725.452060	-3.005200	3.416700	-10.267000	26.030489	0.000213	20.807523
1726.456784	-2.995700	3.415200	-10.229000	26.090697	0.000211	20.813963
1727.453875	-2.980300	3.414800	-10.176000	26.117722	0.000212	20.808401
1728.452445	-2.980400	3.414400	-10.175000	26.104661	0.000211	20.781527
1729.453581	-2.994000	3.414900	-10.223000	26.125326	0.000209	20.829317
1730.452343	-3.001100	3.413400	-10.243000	26.178373	0.000210	20.799170
1731.453524	-2.986000	3.413800	-10.193000	26.186723	0.000210	20.808983
1732.460781	-2.996700	3.412800	-10.226000	26.190178	0.000211	20.794437
1733.454843	-3.001700	3.413200	-10.245000	26.172021	0.000210	20.794210
1734.456464	-3.003100	3.413200	-10.249000	26.159162	0.000209	20.791246
1735.457218	-3.013200	3.411500	-10.278000	26.153647	0.000207	20.798032
1736.455599	-3.009900	3.411300	-10.267000	26.109044	0.000207	20.806794
1737.457868	-3.008300	3.412200	-10.264000	26.101046	0.000208	20.795913
1738.457769	-2.997200	3.409700	-10.219000	26.089302	0.000209	20.816355
1739.458833	-2.966200	3.411100	-10.117000	26.049961	0.000208	20.814760
1740.458746	-2.963800	3.412000	-10.111000	26.117591	0.000208	20.813960
1741.459358	-3.012000	3.410900	-10.273000	26.051829	0.000208	20.818058
1742.465383	-2.993900	3.410500	-10.210000	26.023739	0.000207	20.835354
1743.460012	-3.022300	3.408400	-10.300000	26.075326	0.000207	20.813218
1744.461446	-3.024700	3.408900	-10.310000	26.115167	0.000208	20.786867
1745.461584	-3.024300	3.408400	-10.307000	26.131756	0.000206	20.801166
1746.458502	-3.010100	3.408800	-10.260000	26.104662	0.000205	20.812348
1747.460639	-3.018400	3.407800	-10.285000	26.122840	0.000205	20.826346
1748.461537	-2.985600	3.408500	-10.175000	26.129574	0.000205	20.814620
1749.459658	-3.004000	3.408100	-10.237000	26.113185	0.000207	20.816644
1750.460397	-2.963000	3.408700	-10.099000	26.109730	0.000205	20.797526
1751.461748	-2.995400	3.407900	-10.207000	26.134120	0.000205	20.814447
1752.462421	-2.997400	3.407400	-10.213000	26.097538	0.000202	20.808510
1753.465722	-3.001000	3.405700	-10.219000	26.081789	0.000203	20.826824
1754.461607	-2.998100	3.407900	-10.217000	26.068330	0.000203	20.812352
1755.460512	-3.019200	3.405200	-10.280000	26.095651	0.000204	20.804242
1756.461860	-3.028000	3.405200	-10.310000	26.105634	0.000204	20.820437
1757.469092	-3.015600	3.405300	-10.268000	26.150365	0.000203	20.826502
1758.463442	-3.002600	3.405900	-10.226000	26.160775	0.000200	20.792393
1759.465792	-2.989500	3.405500	-10.180000	26.193354	0.000204	20.819914
1760.464429	-2.988400	3.403700	-10.171000	26.192636	0.000202	20.815873
1761.463200	-2.986500	3.403500	-10.164000	26.136311	0.000200	20.824709
1762.465790	-2.989500	3.403900	-10.175000	26.132015	0.000202	20.810909
1763.463227	-3.007100	3.404400	-10.237000	26.119520	0.000200	20.821588
1764.465560	-2.995600	3.404300	-10.197000	26.070266	0.000198	20.817143
1765.461609	-2.996700	3.402800	-10.196000	26.064214	0.000199	20.819123
1766.465943	-3.009500	3.401200	-10.234000	26.103132	0.000201	20.836414
1767.467639	-3.013200	3.400300	-10.245000	26.097395	0.000201	20.802202
1768.466112	-2.989500	3.401800	-10.169000	26.124141	0.000201	20.838558
1769.467208	-3.038600	3.399300	-10.327000	26.096603	0.000200	20.831277
1770.464737	-2.989600	3.401200	-10.166000	26.116497	0.000199	20.838938
1771.466465	-3.010200	3.401700	-10.238000	26.118536	0.000198	20.843357
1772.467570	-2.998700	3.399900	-10.195000	26.166869	0.000197	20.830758
1773.467729	-3.000400	3.399900	-10.201000	26.165556	0.000195	20.839870
1774.471285	-3.018800	3.398800	-10.260000	26.140370	0.000197	20.833054
1775.468054	-2.983800	3.399600	-10.143000	26.117498	0.000197	20.813866
1776.469759	-2.973400	3.400200	-10.109000	26.138934	0.000196	20.830663
1777.469389	-2.988300	3.399800	-10.159000	26.180537	0.000195	20.815569
1778.470572	-2.978000	3.398000	-10.119000	26.170053	0.000195	20.827794
1779.469532	-2.990400	3.398500	-10.162000	26.212869	0.000193	20.838575
1780.472263	-2.999800	3.398100	-10.192000	26.224350	0.000196	20.834939
1781.470212	-2.998600	3.398800	-10.191000	26.218540	0.000194	20.846170
1782.469251	-3.011900	3.397000	-10.231000	26.232822	0.000195	20.844401
1783.472723	-2.973800	3.397800	-10.103000	26.202477	0.000194	20.852313
1784.470749	-3.002400	3.397400	-10.200000	26.180402	0.000194	20.840563
1785.474081	-2.995100	3.396800	-10.173000	26.139173	0.000193	20.820472
1786.471303	-2.983900	3.396100	-10.132000	26.130679	0.000193	20.840386
1787.471449	-3.000300	3.396200	-10.189000	26.145734	0.000192	20.837022
1788.471147	-2.992700	3.395700	-10.160000	26.136670	0.000193	20.859681
1789.470985	-3.000600	3.396000	-10.188000	26.124848	0.000193	20.847803
1790.472188	-3.019200	3.394300	-10.247000	26.092464	0.000190	20.848929
1791.469578	-2.989500	3.395000	-10.149000	26.105800	0.000192	20.853794
1792.471282	-3.006400	3.393200	-10.201000	26.102472	0.000191	20.848554
1793.471045	-2.992400	3.393300	-10.153000	26.119539	0.000190	20.841994
1794.471492	-2.992700	3.392800	-10.153000	26.152074	0.000190	20.832961
1795.470555	-2.970700	3.395000	-10.084000	26.217117	0.000193	20.839525
1796.473646	-2.984900	3.392900	-10.127000	26.219082	0.000191	20.852879
1797.471148	-3.002100	3.392100	-10.182000	26.215033	0.000191	20.847387
1798.472028	-2.990700	3.392500	-10.145000	26.236610	0.000189	20.851052
1799.475014	-3.016200	3.392300	-10.230000	26.231842	0.000188	20.852425
1800.471892	-2.998800	3.392800	-10.173000	26.239519	0.000188	20.852553
1801.475842	-3.000800	3.391200	-10.175000	26.271997	0.000190	20.867647
1802.471947	-3.005900	3.390100	-10.190000	26.210605	0.000188	20.862378
1803.473672	-2.974900	3.390600	-10.086000	26.197123	0.000187	20.851201
1804.473650	-2.978500	3.391000	-10.099000	26.202362	0.000188	20.844138
1805.474043	-2.980800	3.389400	-10.103000	26.194197	0.000188	20.842572
1806.474346	-3.007200	3.389300	-10.191000	26.250539	0.000190	20.851774
1807.476954	-3.027900	3.388900	-10.260000	26.246715	0.000187	20.848405
1808.474556	-3.009300	3.389700	-10.199000	26.263677	0.000189	20.850277
1809.475729	-2.986900	3.389200	-10.122000	26.249394	0.000187	20.873381
1810.479482	-3.005000	3.388000	-10.180000	26.269663	0.000187	20.834008
1811.480505	-3.001800	3.388500	-10.171000	26.293102	0.000185	20.854243
1812.479595	-3.008900	3.388300	-10.194000	26.245291	0.000186	20.850293
1813.477591	-2.992300	3.388300	-10.138000	26.243851	0.000186	20.867337
1814.478241	-3.005900	3.386700	-10.179000	26.257534	0.000185	20.869233
1815.483128	-3.002200	3.387200	-10.168000	26.272485	0.000187	20.859603
1816.483764	-2.995900	3.385900	-10.142000	26.209456	0.000184	20.867386
1817.480561	-2.988600	3.386400	-10.119000	26.222372	0.000184	20.859504
1818.479588	-3.002600	3.385800	-10.164000	26.272756	0.000181	20.866038
1819.477829	-3.001900	3.385500	-10.162000	26.296867	0.000183	20.869881
1820.480411	-3.017900	3.384300	-10.212000	26.255368	0.000185	20.869427
1821.479985	-3.009200	3.383300	-10.180000	26.241586	0.000183	20.856527
1822.479988	-2.997900	3.384300	-10.144000	26.247601	0.000183	20.873476
1823.484210	-2.997500	3.383300	-10.141000	26.222339	0.000182	20.871798
1824.481102	-2.982300	3.384800	-10.093000	26.231981	0.000182	20.862996
1825.480758	-3.007400	3.383900	-10.176000	26.196490	0.000182	20.874746
1826.481957	-3.012000	3.384000	-10.192000	26.183676	0.000181	20.882731
1827.482408	-3.005600	3.382400	-10.166000	26.175380	0.000180	20.903316
1828.484504	-3.009300	3.382000	-10.177000	26.194352	0.000180	20.883502
1829.485462	-3.000700	3.383600	-10.152000	26.241492	0.000179	20.875397
1830.485986	-2.993900	3.380800	-10.121000	26.231038	0.000180	20.871056
1831.484890	-2.988400	3.383100	-10.110000	26.197262	0.000178	20.874098
1832.484325	-3.013600	3.380600	-10.186000	26.211889	0.000177	20.886425
1833.489479	-3.017400	3.380600	-10.199000	26.200913	0.000176	20.877294
1834.487374	-2.994500	3.381000	-10.123000	26.183877	0.000178	20.863495
1835.488779	-2.991600	3.380400	-10.111000	26.183475	0.000178	20.879210
1836.488103	-3.002500	3.379600	-10.146000	26.194652	0.000176	20.872899
1837.488977	-2.988100	3.380200	-10.099000	26.256640	0.000176	20.884929
1838.489106	-3.030500	3.378400	-10.237000	26.285249	0.000177	20.870058
1839.491030	-3.003800	3.380300	-10.152000	26.292252	0.000180	20.900327
1840.489918	-3.010500	3.378600	-10.170000	26.244348	0.000177	20.877792
1841.489319	-2.986300	3.379100	-10.090000	26.238534	0.000177	20.881433
1842.493450	-3.005800	3.378200	-10.154000	26.265633	0.000175	20.875001
1843.491029	-2.996600	3.377800	-10.121000	26.301639	0.000174	20.896959
1844.493489	-3.003100	3.377400	-10.141000	26.364433	0.000175	20.892263
1845.491867	-2.988500	3.378400	-10.096000	26.386016	0.000175	20.906367
1846.493095	-3.014200	3.376100	-10.175000	26.371239	0.000174	20.898155
1847.494205	-2.997300	3.377200	-10.122000	26.363444	0.000175	20.884632
1848.495440	-3.003800	3.376500	-10.141000	26.344524	0.000174	20.901651
1849.497636	-3.008600	3.375200	-10.154000	26.341644	0.000172	20.884059
1850.494356	-3.013200	3.376400	-10.173000	26.345049	0.000174	20.885111
1851.494748	-2.995800	3.375600	-10.110000	26.356589	0.000173	20.893863
1852.495378	-3.027400	3.374500	-10.215000	26.409624	0.000172	20.889794
1853.496983	-3.005300	3.374200	-10.140000	26.436592	0.000175	20.912630
1854.501945	-2.989100	3.373800	-10.084000	26.377421	0.000171	20.889670
1855.495002	-2.986400	3.374200	-10.075000	26.357208	0.000173	20.873150
1856.498326	-3.006300	3.373900	-10.143000	26.348716	0.000172	20.911079
1857.496231	-2.999300	3.372300	-10.114000	26.371362	0.000171	20.901123
1858.497273	-3.001600	3.374100	-10.127000	26.404435	0.000173	20.898328
1859.499690	-2.998000	3.372200	-10.109000	26.412804	0.000170	20.884455
1860.498524	-3.026200	3.373200	-10.207000	26.402322	0.000171	20.891937
1861.498354	-2.993500	3.372800	-10.095000	26.411856	0.000168	20.889192
1862.500786	-2.990400	3.372500	-10.084000	26.437478	0.000171	20.889340
1863.498620	-3.010400	3.371600	-10.149000	26.368276	0.000171	20.898497
1864.499983	-2.958000	3.372400	-9.974500	26.357745	0.000171	20.898344
1865.500746	-3.000400	3.369700	-10.110000	26.347616	0.000169	20.903811
1866.500326	-2.984100	3.371000	-10.058000	26.333212	0.000169	20.895499
1867.503311	-2.998800	3.370100	-10.106000	26.358865	0.000170	20.908003
1868.502414	-3.007700	3.371300	-10.139000	26.359112	0.000170	20.923422
1869.502945	-3.012600	3.369300	-10.149000	26.337680	0.000170	20.900937
1870.509163	-2.994600	3.371400	-10.095000	26.303189	0.000168	20.901836
1871.504513	-3.006000	3.368900	-10.127000	26.332269	0.000166	20.894551
1872.502672	-2.983400	3.370300	-10.054000	26.405218	0.000167	20.912864
1873.506949	-3.005700	3.368400	-10.124000	26.411326	0.000167	20.901935
1874.504110	-2.974500	3.370600	-10.025000	26.451454	0.000167	20.893430
1875.506143	-2.984400	3.367900	-10.051000	26.462058	0.000165	20.917362
1876.504793	-2.989700	3.368600	-10.070000	26.484475	0.000166	20.903386
1877.505208	-3.019300	3.367000	-10.165000	26.523280	0.000165	20.911569
1878.514696	-2.984400	3.367600	-10.050000	26.530380	0.000164	20.890733
1879.507953	-3.023100	3.366800	-10.176000	26.502499	0.000164	20.890210
1880.511456	-3.003100	3.365800	-10.107000	26.470028	0.000164	20.896926
1881.506823	-2.995300	3.365700	-10.080000	26.470824	0.000165	20.897726
1882.505475	-2.993500	3.365200	-10.073000	26.493890	0.000165	20.887720
1883.506056	-2.995600	3.364900	-10.079000	26.520310	0.000165	20.886776
1884.506267	-2.989600	3.365600	-10.059000	26.518546	0.000162	20.878840
1885.505378	-3.002200	3.365200	-10.101000	26.513481	0.000162	20.902195
1886.509050	-2.989700	3.364800	-10.060000	26.501790	0.000163	20.877644
1887.507720	-2.985000	3.365000	-10.043000	26.477339	0.000162	20.894317
1888.509684	-3.017500	3.362900	-10.146000	26.513489	0.000159	20.883239
1889.507935	-3.005200	3.363300	-10.106000	26.523543	0.000161	20.888128
1890.508896	-3.008000	3.361600	-10.111000	26.478307	0.000162	20.869213
1891.513703	-3.008400	3.362400	-10.113000	26.453727	0.000161	20.863000
1892.511178	-2.988600	3.362700	-10.049000	26.472125	0.000161	20.859681
1893.511732	-3.003800	3.362100	-10.098000	26.479722	0.000159	20.882014
1894.510150	-3.024600	3.361600	-10.166000	26.486802	0.000158	20.895768
1895.514362	-2.997800	3.361900	-10.077000	26.495342	0.000159	20.890602
1896.513307	-2.995900	3.361400	-10.070000	26.528215	0.000160	20.870541
1897.513297	-2.990600	3.362100	-10.054000	26.499366	0.000159	20.872837
1898.512406	-2.983700	3.361100	-10.028000	26.532239	0.000158	20.889757
1899.512715	-2.989400	3.361800	-10.048000	26.510372	0.000159	20.870624
1900.512312	-2.987500	3.359500	-10.035000	26.543736	0.000158	20.877133
1901.511899	-2.985800	3.359300	-10.030000	26.485543	0.000157	20.882176
1902.515924	-2.991100	3.359700	-10.048000	26.485445	0.000159	20.878284
1903.512279	-3.020800	3.358600	-10.144000	26.454733	0.000156	20.876812
1904.513546	-2.965300	3.358400	-9.958100	26.485720	0.000155	20.882353
1905.514984	-3.000800	3.357900	-10.075000	26.449322	0.000156	20.856202
1906.513231	-2.991100	3.358400	-10.045000	26.402938	0.000157	20.869799
1907.513796	-3.008300	3.357800	-10.101000	26.403164	0.000159	20.877138
1908.515059	-3.009400	3.357000	-10.102000	26.391419	0.000156	20.877661
1909.514232	-3.002900	3.358000	-10.083000	26.439814	0.000155	20.871300
1910.514522	-3.006400	3.357300	-10.093000	26.437151	0.000156	20.877632
1911.515557	-3.013900	3.356200	-10.114000	26.413965	0.000154	20.874718
1912.516724	-3.009200	3.356300	-10.099000	26.432782	0.000155	20.870397
1913.519837	-3.013700	3.355500	-10.111000	26.394918	0.000153	20.889712
1914.516669	-3.008200	3.356100	-10.095000	26.444949	0.000154	20.855126
1915.517612	-2.988500	3.355600	-10.028000	26.482619	0.000153	20.864064
1916.516673	-2.999400	3.355500	-10.063000	26.535894	0.000153	20.872096
1917.515871	-2.996500	3.354700	-10.052000	26.537982	0.000155	20.872298
1918.518673	-3.020600	3.352400	-10.125000	26.507448	0.000154	20.859624
1919.516759	-3.001500	3.354800	-10.069000	26.507497	0.000154	20.869156
1920.514421	-3.013700	3.353800	-10.107000	26.472516	0.000152	20.859600
1921.517000	-3.006700	3.353700	-10.082000	26.437734	0.000152	20.855460
1922.515369	-3.000100	3.354300	-10.062000	26.414696	0.000151	20.850323
1923.520733	-3.021700	3.352900	-10.131000	26.440839	0.000152	20.865219
1924.519159	-3.014200	3.351800	-10.102000	26.434957	0.000151	20.848876
1925.518673	-3.000000	3.351900	-10.054000	26.420657	0.000152	20.855366
1926.518506	-2.973000	3.351900	-9.963100	26.470686	0.000152	20.854916
1927.518234	-2.986200	3.353000	-10.012000	26.481138	0.000149	20.854042
1928.524129	-2.966100	3.352400	-9.942500	26.501923	0.000150	20.855968
1929.521364	-2.999500	3.350900	-10.050000	26.565952	0.000152	20.859637
1930.519552	-3.002600	3.350800	-10.060000	26.586706	0.000150	20.848732
1931.519071	-2.950600	3.352300	-9.889800	26.578511	0.000151	20.864201
1932.521903	-2.978800	3.350100	-9.978400	26.557983	0.000150	20.838351
1933.521188	-2.998300	3.349800	-10.043000	26.543065	0.000150	20.838054
1934.525855	-2.988700	3.349400	-10.009000	26.504311	0.000149	20.847937
1935.522866	-2.961000	3.351300	-9.922800	26.485319	0.000148	20.851132
1936.521216	-2.982000	3.349700	-9.987900	26.495795	0.000148	20.834636
1937.523054	-2.989500	3.349100	-10.012000	26.514988	0.000150	20.843022
1938.527808	-3.011600	3.345900	-10.076000	26.534599	0.000147	20.831915
1939.522805	-3.008500	3.347300	-10.069000	26.542396	0.000147	20.851132
1940.524380	-2.979500	3.347200	-9.972000	26.515484	0.000145	20.843995
1941.524124	-3.003500	3.347700	-10.054000	26.508158	0.000145	20.850856
1942.521373	-3.003300	3.347000	-10.051000	26.491652	0.000145	20.851808
1943.525096	-3.023100	3.346200	-10.114000	26.506571	0.000146	20.841674
1944.521642	-2.983100	3.346000	-9.980100	26.559652	0.000146	20.839081
1945.522768	-3.001800	3.344900	-10.039000	26.563151	0.000146	20.833589
1946.520954	-2.984400	3.345900	-9.984600	26.559898	0.000145	20.841225
1947.521529	-2.992500	3.344400	-10.007000	26.556429	0.000144	20.844849
1948.522958	-2.993700	3.345000	-10.012000	26.535596	0.000144	20.839555
1949.524081	-2.996100	3.344800	-10.020000	26.537232	0.000143	20.832666
1950.522421	-2.991600	3.344200	-10.004000	26.574398	0.000142	20.841575
1951.521306	-3.032100	3.343900	-10.137000	26.614909	0.000144	20.850530
1952.520742	-3.011800	3.342500	-10.065000	26.624121	0.000142	20.832290
1953.520388	-2.986200	3.343600	-9.983700	26.652470	0.000141	20.838978
1954.522655	-2.969500	3.343000	-9.926700	26.599069	0.000141	20.863055
1955.523422	-3.007000	3.341500	-10.047000	26.649438	0.000143	20.844939
1956.521425	-3.019000	3.340800	-10.085000	26.660881	0.000142	20.838899
1957.522657	-3.021600	3.342600	-10.099000	26.653084	0.000140	20.850027
1958.525274	-3.006700	3.342700	-10.050000	26.630096	0.000140	20.829763
1959.526060	-3.001100	3.342000	-10.029000	26.576748	0.000141	20.852946
1960.524891	-3.006700	3.340000	-10.042000	26.552638	0.000141	20.833452
1961.526641	-3.001500	3.341100	-10.027000	26.574935	0.000139	20.825046
1962.524285	-3.000800	3.340000	-10.021000	26.557929	0.000137	20.830711
1963.526778	-2.979600	3.341000	-9.953900	26.579750	0.000139	20.856912
1964.527083	-3.003600	3.339500	-10.030000	26.542088	0.000137	20.832331
1965.527592	-3.019300	3.338400	-10.079000	26.561300	0.000138	20.843582
1966.532319	-3.002400	3.339100	-10.024000	26.525000	0.000136	20.837913
1967.526289	-3.003900	3.338800	-10.028000	26.505315	0.000137	20.819550
1968.524507	-2.988500	3.337600	-9.973700	26.530660	0.000138	20.827956
1969.525601	-3.014000	3.337900	-10.059000	26.590861	0.000135	20.823037
1970.525529	-3.011200	3.337500	-10.049000	26.636617	0.000136	20.819249
1971.527641	-3.001400	3.338700	-10.020000	26.630608	0.000136	20.826958
1972.526078	-3.020100	3.336400	-10.075000	26.620851	0.000136	20.820943
1973.525759	-2.987400	3.338200	-9.971800	26.602952	0.000135	20.839933
1974.526456	-2.996600	3.337300	-9.999000	26.559356	0.000136	20.832145
1975.529213	-3.013200	3.334900	-10.048000	26.622340	0.000135	20.830500
1976.529630	-3.009600	3.334900	-10.036000	26.584458	0.000136	20.840783
1977.531124	-3.033600	3.335500	-10.117000	26.602205	0.000136	20.842502
1978.532144	-2.984500	3.336600	-9.956900	26.607787	0.000134	20.834363
1979.529281	-3.019100	3.334500	-10.066000	26.638151	0.000135	20.828377
1980.532938	-3.005500	3.335300	-10.023000	26.657636	0.000133	20.816671
1981.530332	-3.011000	3.333200	-10.035000	26.631789	0.000133	20.845214
1982.533024	-2.985600	3.333600	-9.950900	26.590483	0.000131	20.816968
1983.536971	-2.993100	3.334600	-9.980100	26.615629	0.000133	20.846513
1984.533536	-2.989100	3.333900	-9.964200	26.638220	0.000133	20.826076
1985.530323	-3.020500	3.331400	-10.061000	26.657259	0.000132	20.832887
1986.532187	-2.989500	3.332800	-9.962900	26.696754	0.000132	20.810952
1987.531842	-3.006700	3.333600	-10.023000	26.696729	0.000131	20.835583
1988.535116	-3.005900	3.332100	-10.015000	26.689281	0.000130	20.813397
1989.532326	-3.008300	3.331700	-10.022000	26.694420	0.000130	20.838003
1990.531264	-2.989600	3.331700	-9.959800	26.684963	0.000128	20.817591
1991.536553	-3.026900	3.331100	-10.082000	26.636009	0.000129	20.838077
1992.530646	-2.999000	3.331500	-9.990600	26.611954	0.000128	20.817215
1993.534266	-2.997800	3.331200	-9.985300	26.620494	0.000127	20.836705
1994.532450	-2.998600	3.331000	-9.988400	26.636358	0.000129	20.809505
1995.531607	-3.003000	3.328800	-9.995300	26.657337	0.000129	20.810680
1996.533384	-2.999500	3.328800	-9.983000	26.622729	0.000126	20.826150
1997.533518	-3.019800	3.327600	-10.048000	26.651898	0.000128	20.812325
1998.534338	-2.989200	3.329900	-9.953100	26.689355	0.000130	20.809678
1999.533247	-2.992700	3.328200	-9.959100	26.738482	0.000128	20.798377
2000.535325	-2.974000	3.328600	-9.898300	26.784700	0.000128	20.814498
2001.535776	-3.021400	3.328200	-10.055000	26.809046	0.000126	20.820959
2002.538363	-3.003500	3.326200	-9.989500	26.777375	0.000128	20.797177
2003.535211	-3.003800	3.328100	-9.996200	26.754808	0.000124	20.834231
2004.536985	-3.000400	3.327000	-9.981300	26.744728	0.000126	20.815088
2005.536171	-2.981800	3.326900	-9.919600	26.728525	0.000124	20.818238
2006.536004	-3.025400	3.325300	-10.060000	26.733540	0.000124	20.826125
2007.538237	-2.977000	3.327500	-9.905200	26.786631	0.000125	20.816914
2008.535893	-3.007000	3.325300	-9.998300	26.804596	0.000124	20.809373
2009.544583	-3.013300	3.324500	-10.016000	26.761259	0.000125	20.802310
2010.536953	-2.987600	3.324700	-9.931300	26.668352	0.000124	20.818910
2011.539008	-3.002700	3.323700	-9.978600	26.633072	0.000123	20.820427
2012.536598	-3.003300	3.324600	-9.983900	26.634270	0.000125	20.813570
2013.537122	-3.015800	3.324300	-10.025000	26.664403	0.000123	20.789809
2014.537456	-2.977100	3.324900	-9.897100	26.646578	0.000123	20.806503
2015.540149	-2.999000	3.323900	-9.967400	26.654572	0.000121	20.801263
2016.536954	-2.981300	3.323400	-9.906900	26.715257	0.000123	20.815805
2017.536911	-2.989400	3.323400	-9.934900	26.706674	0.000122	20.799589
2018.539217	-2.994900	3.322700	-9.950400	26.678888	0.000123	20.808639
2019.536758	-2.980700	3.321500	-9.899500	26.690580	0.000123	20.832721
2020.540494	-2.993400	3.322800	-9.945500	26.665731	0.000122	20.787351
2021.536277	-2.969200	3.322000	-9.862500	26.733302	0.000121	20.814980
2022.536975	-2.971600	3.322100	-9.870400	26.819231	0.000120	20.795165
2023.538707	-2.983100	3.321100	-9.906200	26.800987	0.000120	20.791520
2024.539887	-3.000900	3.320500	-9.963800	26.805576	0.000120	20.807987
2025.538128	-2.991400	3.320600	-9.932400	26.815258	0.000117	20.794962
2026.537799	-2.992300	3.320200	-9.934100	26.786265	0.000119	20.795684
2027.537550	-3.009200	3.318600	-9.985600	26.767131	0.000118	20.812481
2028.539378	-2.995100	3.318700	-9.939100	26.796566	0.000116	20.801774
2029.539011	-3.010900	3.317200	-9.986500	26.841194	0.000116	20.791643
2030.545075	-2.990200	3.317700	-9.920000	26.820568	0.000115	20.792715
2031.538864	-2.995100	3.317100	-9.934700	26.789001	0.000114	20.801753
2032.537341	-2.989200	3.317800	-9.916300	26.795299	0.000116	20.786749
2033.538417	-2.976300	3.317900	-9.874300	26.851093	0.000116	20.789268
2034.541614	-2.989700	3.316600	-9.915000	26.910636	0.000116	20.768059
2035.537849	-2.971900	3.316700	-9.856000	26.919501	0.000112	20.818699
2036.543650	-3.012400	3.316500	-9.990000	26.901706	0.000115	20.797486
2037.539243	-2.991700	3.315900	-9.919200	26.906367	0.000115	20.796010
2038.539200	-3.012600	3.314700	-9.984600	26.912596	0.000113	20.789470
2039.542029	-2.988200	3.316100	-9.908800	26.900217	0.000111	20.769436
2040.540592	-3.007200	3.315200	-9.967800	26.846037	0.000113	20.785607
2041.543529	-3.011100	3.313800	-9.977500	26.848469	0.000112	20.778569
2042.541022	-2.989400	3.315400	-9.909800	26.837795	0.000113	20.813355
2043.540477	-2.996500	3.314500	-9.931200	26.894284	0.000111	20.791920
2044.540361	-2.990300	3.314100	-9.908800	26.941437	0.000113	20.768212
2045.550042	-2.987400	3.313400	-9.897000	26.947321	0.000111	20.773180
2046.543024	-3.005000	3.312100	-9.951900	26.934020	0.000109	20.792996
2047.541218	-3.011200	3.312800	-9.974600	26.872601	0.000109	20.792877
2048.540473	-3.015600	3.312000	-9.987300	26.814573	0.000109	20.787162
2049.545790	-3.017100	3.310900	-9.988200	26.835519	0.000112	20.780247
2050.542893	-3.026900	3.309800	-10.018000	26.819383	0.000108	20.772083
2051.541998	-3.010000	3.310500	-9.964000	26.831222	0.000108	20.751744
2052.545006	-3.007300	3.310400	-9.954200	26.810924	0.000108	20.781122
2053.542646	-3.022100	3.309100	-9.999300	26.821672	0.000106	20.774384
2054.543419	-2.989100	3.310300	-9.894000	26.827404	0.000108	20.776829
2055.546976	-2.993900	3.309700	-9.908300	26.842991	0.000110	20.775432
2056.543799	-2.994000	3.310100	-9.909200	26.813507	0.000106	20.780874
2057.549055	-2.996100	3.309500	-9.914100	26.828819	0.000106	20.786313
2058.544800	-3.011000	3.308000	-9.959600	26.876943	0.000107	20.771164
2059.545184	-3.005700	3.308600	-9.943100	26.940679	0.000109	20.767924
2060.547008	-3.012000	3.307500	-9.961800	26.909858	0.000105	20.791933
2061.548336	-2.984800	3.307900	-9.873000	26.984555	0.000104	20.778854
2062.549749	-3.012500	3.307600	-9.962800	27.011927	0.000106	20.759438
2063.549978	-3.006700	3.307000	-9.942600	27.027913	0.000104	20.775040
2064.547507	-2.994500	3.306000	-9.898700	27.033939	0.000103	20.772092
2065.547565	-2.991500	3.307800	-9.894900	26.979922	0.000103	20.777989
2066.554276	-3.003600	3.306300	-9.929900	26.878588	0.000104	20.763335
2067.546771	-2.976000	3.305900	-9.837900	26.847018	0.000105	20.767627
2068.549616	-2.982300	3.306000	-9.858500	26.837464	0.000104	20.782676
2069.547152	-2.982700	3.305900	-9.859600	26.869981	0.000104	20.775544
2070.547020	-2.991100	3.305100	-9.884000	26.865384	0.000104	20.761912
2071.554307	-3.006300	3.303800	-9.930900	26.883234	0.000102	20.780809
2072.547141	-2.989400	3.305200	-9.879400	26.860374	0.000102	20.769202
2073.547705	-2.974100	3.304700	-9.828000	26.845981	0.000102	20.758997
2074.547810	-3.012500	3.303400	-9.950500	26.794254	0.000101	20.771948
2075.546546	-3.011700	3.303700	-9.949100	26.860673	0.000101	20.779935
2076.549850	-2.986000	3.304600	-9.866600	26.856277	0.000104	20.782627
2077.556692	-3.009100	3.302100	-9.935600	26.890381	0.000101	20.762865
2078.547970	-2.974600	3.303500	-9.825400	26.953690	0.000101	20.780058
2079.552158	-2.987900	3.300900	-9.862000	26.995310	0.000103	20.758375
2080.555886	-3.000500	3.300900	-9.903500	27.015752	9.965081E-5	20.759966
2081.550546	-2.983200	3.302200	-9.850200	27.030270	9.866073E-5	20.787368
2082.550070	-3.005900	3.301800	-9.923300	27.041438	0.000101	20.756874
2083.548661	-2.984600	3.300100	-9.848400	26.985802	9.671359E-5	20.764935
2084.549489	-3.001600	3.299400	-9.903100	26.972772	9.839671E-5	20.743296
2085.549982	-3.002000	3.300600	-9.907500	26.912539	9.895776E-5	20.757645
2086.549066	-3.019800	3.298000	-9.958300	26.912588	0.000101	20.776186
2087.549861	-3.008600	3.299900	-9.927200	26.940831	9.734064E-5	20.766180
2088.552243	-3.021400	3.298200	-9.964400	26.972025	9.658158E-5	20.760090
2089.553522	-2.994000	3.298700	-9.874600	26.994883	9.988182E-5	20.768377
2090.553726	-3.009900	3.297200	-9.923500	27.024411	9.519548E-5	20.780054
2091.552875	-3.001400	3.297600	-9.896300	27.006716	9.651558E-5	20.765103
2092.553879	-3.010300	3.296500	-9.922800	27.010910	9.595454E-5	20.792081
2093.553964	-3.026900	3.296700	-9.977700	27.019471	9.483245E-5	20.757541
2094.553690	-3.010500	3.298400	-9.929000	27.009545	9.681260E-5	20.749930
2095.557515	-2.981900	3.296600	-9.829500	27.035526	9.473345E-5	20.788387
2096.554352	-3.016600	3.296900	-9.944400	27.043344	9.397439E-5	20.767800
2097.556244	-2.994300	3.295700	-9.866800	27.018852	9.232427E-5	20.775411
2098.557549	-2.985700	3.295400	-9.838100	27.002025	9.334735E-5	20.759912
2099.554691	-3.017200	3.294200	-9.937900	27.020688	9.186224E-5	20.753076
2100.560547	-3.009300	3.294500	-9.913100	27.005851	9.169723E-5	20.765182
2101.555634	-2.996400	3.295600	-9.873700	27.033517	9.239028E-5	20.774987
2102.557592	-3.004600	3.294300	-9.896600	27.064020	9.146621E-5	20.752082
2103.556752	-3.002800	3.294100	-9.890600	27.063573	9.103718E-5	20.762065
2104.558100	-3.007900	3.294900	-9.908700	27.071219	9.202725E-5	20.783505
2105.559046	-3.003500	3.293700	-9.891700	27.114491	9.163122E-5	20.764436
2106.561835	-3.010900	3.292600	-9.912700	27.147373	9.110318E-5	20.769532
2107.561726	-3.009200	3.290500	-9.900600	27.185907	9.196124E-5	20.768460
2108.560577	-2.996400	3.291700	-9.861700	27.224116	8.869401E-5	20.737190
2109.565372	-3.004700	3.291900	-9.890100	27.177799	9.090517E-5	20.758408
2110.563509	-2.983000	3.291600	-9.817600	27.161943	9.100417E-5	20.759055
2111.562260	-3.011300	3.289700	-9.905700	27.178168	8.915604E-5	20.754986
2112.559471	-2.978400	3.289500	-9.796000	27.130832	9.054214E-5	20.766172
2113.560242	-3.002700	3.290800	-9.880700	27.138248	8.928805E-5	20.768889
2114.563254	-3.017500	3.289100	-9.924200	27.084281	8.955207E-5	20.753967
2115.561039	-2.964500	3.291000	-9.755400	27.067632	8.757192E-5	20.759035
2116.564074	-3.002400	3.289200	-9.874400	27.090410	8.783594E-5	20.749700
2117.563270	-2.981600	3.287700	-9.801400	27.051205	8.767093E-5	20.760057
2118.562596	-2.972700	3.288600	-9.775200	27.051783	8.895803E-5	20.737405
2119.566513	-3.007200	3.286400	-9.881600	27.046519	8.856200E-5	20.757716
2120.563019	-2.999500	3.287900	-9.860900	27.077189	8.809996E-5	20.764853
2121.565975	-2.983700	3.287500	-9.807500	27.115799	8.677987E-5	20.766700
2122.566361	-3.012500	3.286800	-9.901400	27.123142	8.536076E-5	20.768395
2123.562091	-2.994400	3.285700	-9.837800	27.171277	8.446970E-5	20.769392
2124.562989	-3.018400	3.285200	-9.914900	27.130857	8.611982E-5	20.760507
2125.563806	-3.003500	3.285600	-9.867600	27.115299	8.572379E-5	20.752920
2126.564374	-3.006100	3.286200	-9.876800	27.125823	8.371064E-5	20.760185
2127.568241	-2.986800	3.285600	-9.813100	27.120387	8.387565E-5	20.755666
2128.565370	-2.990600	3.285300	-9.823800	27.077062	8.341362E-5	20.763777
2129.566109	-2.991700	3.284000	-9.823900	27.135969	8.314960E-5	20.765649
2130.569469	-2.995200	3.283800	-9.835200	27.181771	8.456870E-5	20.754817
2131.566885	-3.026200	3.281900	-9.930500	27.214967	8.397466E-5	20.764498
2132.569037	-2.998200	3.282500	-9.840000	27.230175	8.258856E-5	20.771734
2133.568483	-3.021600	3.283400	-9.920500	27.187773	8.308360E-5	20.767966
2134.569380	-3.002000	3.282800	-9.853800	27.209138	8.235754E-5	20.772860
2135.569639	-2.988800	3.282000	-9.808400	27.178443	8.202752E-5	20.761900
2136.570003	-2.979600	3.281800	-9.777700	27.158917	8.328161E-5	20.773557
2137.570837	-3.000900	3.281800	-9.847800	27.101672	8.149948E-5	20.754388
2138.571173	-3.007500	3.280800	-9.866000	27.068747	8.037740E-5	20.773907
2139.573012	-2.988300	3.280100	-9.800900	27.087307	8.021239E-5	20.761752
2140.572183	-3.003300	3.279700	-9.848700	27.113462	7.984936E-5	20.784739
2141.572270	-3.011100	3.279900	-9.874800	27.133632	7.767120E-5	20.768988
2142.575472	-2.979300	3.280200	-9.772200	27.189265	7.935432E-5	20.746707
2143.575501	-3.009300	3.280000	-9.870100	27.177725	7.961834E-5	20.761179
2144.573354	-3.008000	3.277600	-9.857300	27.141720	7.833125E-5	20.791348
2145.575088	-3.024800	3.278000	-9.914400	27.198414	8.202752E-5	20.768238
2146.576803	-3.006800	3.277900	-9.854700	27.268804	7.935432E-5	20.773132
2147.574604	-2.987500	3.277200	-9.790100	27.216524	7.892529E-5	20.786454
2148.580102	-3.001700	3.276400	-9.834200	27.238410	7.823224E-5	20.779069
2149.576207	-3.021500	3.277500	-9.902600	27.203870	7.942033E-5	20.780838
2150.576611	-3.007700	3.275400	-9.850600	27.166849	7.899130E-5	20.784380
2151.575389	-3.020100	3.275300	-9.891400	27.180393	7.767120E-5	20.782355
2152.575358	-2.995200	3.277000	-9.814500	27.151120	7.654912E-5	20.772827
2153.575893	-3.011500	3.276200	-9.865000	27.187641	7.631810E-5	20.746496
2154.581624	-3.002900	3.274300	-9.831900	27.256966	7.747319E-5	20.783036
2155.575154	-3.010700	3.273500	-9.854300	27.267783	7.565805E-5	20.773528
2156.575281	-2.979400	3.275000	-9.756500	27.292413	7.757219E-5	20.769854
2157.578588	-2.996100	3.272400	-9.803400	27.244013	7.513001E-5	20.770006
2158.575237	-3.006900	3.272700	-9.839100	27.259044	7.737418E-5	20.769478
2159.581066	-3.001700	3.273700	-9.826200	27.256044	7.572406E-5	20.762667
2160.578829	-3.004400	3.272500	-9.830900	27.274948	7.450297E-5	20.759397
2161.581637	-2.977400	3.272500	-9.743100	27.193450	7.427195E-5	20.775573
2162.578272	-2.992000	3.272300	-9.790200	27.175167	7.344689E-5	20.769986
2163.578227	-2.955700	3.271900	-9.669700	27.203325	7.374391E-5	20.767013
2164.579663	-2.984900	3.270200	-9.760500	27.223399	7.565805E-5	20.765393
2165.576447	-2.991600	3.270200	-9.781800	27.290651	7.281985E-5	20.769029
2166.577780	-3.010200	3.269900	-9.841900	27.310502	7.291885E-5	20.797532
2167.577622	-3.006200	3.269400	-9.827500	27.248403	7.219280E-5	20.778215
2168.581914	-2.980400	3.270200	-9.745400	27.268820	7.212679E-5	20.783580
2169.579639	-2.995500	3.270800	-9.796400	27.287253	7.126873E-5	20.792164
2170.578652	-2.981900	3.269900	-9.748900	27.329852	7.143374E-5	20.782858
2171.578828	-3.006900	3.267400	-9.824100	27.387696	7.077370E-5	20.778458
2172.579980	-2.988300	3.268900	-9.767500	27.420393	7.182977E-5	20.764411
2173.577975	-2.985600	3.267500	-9.753800	27.464126	7.186278E-5	20.789443
2174.583593	-3.014300	3.267600	-9.849000	27.400578	6.948660E-5	20.780512
2175.579125	-2.982300	3.268000	-9.745100	27.321933	6.862854E-5	20.787220
2176.578413	-2.993100	3.265200	-9.772100	27.285343	6.942060E-5	20.760370
2177.578242	-2.998400	3.267300	-9.794900	27.318986	6.734144E-5	20.785204
2178.579225	-3.005700	3.265200	-9.813400	27.338017	6.684641E-5	20.799132
2179.584766	-3.014700	3.264900	-9.841300	27.374306	6.813350E-5	20.783006
2180.582898	-2.992800	3.264900	-9.770600	27.424143	6.747345E-5	20.767235
2181.579039	-2.998500	3.264200	-9.787000	27.398393	6.773747E-5	20.777840
2182.580019	-3.029300	3.263300	-9.884600	27.445803	6.486626E-5	20.775276
2183.582040	-3.023200	3.263400	-9.865400	27.482638	6.628537E-5	20.790997
2184.580966	-3.002300	3.263300	-9.796700	27.451906	6.750646E-5	20.799907
2185.581709	-2.998500	3.262800	-9.783300	27.391979	6.318314E-5	20.806476
2186.582813	-2.989100	3.262800	-9.752100	27.352235	6.638437E-5	20.789253
2187.581555	-2.993600	3.263700	-9.768900	27.341866	6.483326E-5	20.774554
2188.586377	-3.011100	3.261400	-9.819700	27.404685	6.526229E-5	20.805981
2189.584554	-3.003300	3.261900	-9.795300	27.413513	6.130200E-5	20.780723
2190.588599	-3.002100	3.261300	-9.790500	27.430784	6.575733E-5	20.786718
2191.587283	-3.000200	3.260100	-9.779900	27.414956	6.371118E-5	20.803511
2192.585598	-3.002800	3.261000	-9.791400	27.395832	6.354617E-5	20.780006
2193.586205	-2.976900	3.260900	-9.707100	27.395312	6.410721E-5	20.793233
2194.586962	-3.006100	3.259200	-9.796100	27.391447	6.318314E-5	20.796931
2195.587205	-3.009200	3.258700	-9.805400	27.396656	6.288612E-5	20.800275
2196.590421	-2.994200	3.258000	-9.755400	27.379443	6.305113E-5	20.769208
2197.587221	-3.030400	3.256800	-9.868200	27.394222	6.282011E-5	20.786920
2198.588637	-3.017300	3.258000	-9.830100	27.391005	6.249009E-5	20.785581
2199.596066	-3.006600	3.257600	-9.793800	27.380345	6.196205E-5	20.798565
2200.589066	-2.996500	3.256600	-9.757700	27.442383	6.423922E-5	20.782740
2201.592421	-3.003000	3.256100	-9.777200	27.467784	6.196205E-5	20.803554
2202.590120	-2.988100	3.256700	-9.730700	27.478529	6.239108E-5	20.770742
2203.590308	-3.009000	3.255000	-9.792700	27.482423	6.278711E-5	20.797893
2204.592371	-2.988000	3.259000	-9.736100	27.443084	6.321614E-5	20.790558
2205.590965	-3.009200	3.254200	-9.791500	27.454346	6.400820E-5	20.802362
2206.591358	-2.996600	3.255100	-9.753800	27.445539	6.143401E-5	20.804407
2207.590021	-2.994600	3.255400	-9.748000	27.471538	6.179704E-5	20.794529
2208.589966	-3.016500	3.254400	-9.816200	27.430761	6.136801E-5	20.809454
2209.590213	-3.023300	3.252300	-9.832100	27.385985	6.262210E-5	20.797126
2210.590882	-2.988800	3.252300	-9.719600	27.408629	6.242408E-5	20.808052
2211.592721	-3.000100	3.252700	-9.758100	27.439662	6.387619E-5	20.821728
2212.593199	-3.027400	3.251400	-9.842800	27.479079	6.367818E-5	20.797374
2213.594427	-3.026900	3.251700	-9.841700	27.510503	6.572433E-5	20.790109
2214.594390	-2.997900	3.250500	-9.743300	27.536718	6.311713E-5	20.809846
2215.598563	-3.000900	3.251100	-9.755300	27.621218	6.354617E-5	20.802407
2216.594897	-2.997900	3.250200	-9.742900	27.625954	6.047694E-5	20.821398
2217.596995	-3.000700	3.248800	-9.747700	27.552810	6.196205E-5	20.805174
2218.594630	-3.010900	3.249800	-9.783900	27.512924	6.328215E-5	20.802502
2219.598582	-3.008500	3.248300	-9.771900	27.481574	6.298513E-5	20.802255
2220.596624	-2.998500	3.248700	-9.740700	27.472787	6.235808E-5	20.807639
2221.594837	-3.009900	3.247900	-9.774800	27.477598	5.925585E-5	20.806790
2222.597851	-2.993800	3.248900	-9.725800	27.510219	6.136801E-5	20.814005
2223.599059	-2.986100	3.249200	-9.701800	27.544741	5.978389E-5	20.813650
2224.595839	-3.006100	3.247200	-9.760500	27.586628	5.753973E-5	20.806958
2225.596789	-2.990000	3.246900	-9.708200	27.589980	5.654965E-5	20.812702
2226.603009	-3.025800	3.245900	-9.821200	27.570286	5.730871E-5	20.815646
2227.598837	-3.023000	3.244400	-9.807100	27.567557	5.714370E-5	20.806262
2228.597290	-3.006700	3.246000	-9.759300	27.586137	5.786975E-5	20.830645
2229.595283	-3.042500	3.244300	-9.869300	27.598135	5.734171E-5	20.815217
2230.595071	-3.011500	3.243800	-9.768100	27.574950	5.658266E-5	20.824131
2231.595695	-2.993300	3.244700	-9.711300	27.600028	5.572459E-5	20.811432
2232.595730	-3.008600	3.243500	-9.758000	27.543503	5.678067E-5	20.818095
2233.598687	-2.992300	3.242900	-9.703300	27.562874	5.648365E-5	20.827627
2234.597443	-3.003200	3.243500	-9.739700	27.577286	5.575760E-5	20.829326
2235.597404	-3.004200	3.242300	-9.739800	27.532644	5.499854E-5	20.824239
2236.597932	-3.005400	3.240500	-9.738000	27.489184	5.615362E-5	20.823661
2237.596678	-3.004700	3.240500	-9.736200	27.490254	5.420648E-5	20.803401
2238.596896	-2.996500	3.240400	-9.709200	27.514392	5.480053E-5	20.811565
2239.598982	-2.967400	3.241700	-9.618600	27.528878	5.526256E-5	20.806700
2240.597569	-2.985100	3.240300	-9.671200	27.464087	5.668166E-5	20.808369
2241.597053	-3.002900	3.239300	-9.726000	27.484779	5.381045E-5	20.836299
2242.598969	-3.004800	3.239900	-9.732600	27.476964	5.232534E-5	20.822746
2243.596606	-3.002200	3.238300	-9.720700	27.542594	5.305140E-5	20.821922
2244.603469	-2.988500	3.239400	-9.679800	27.509031	5.430549E-5	20.809017
2245.597374	-3.008600	3.238000	-9.741200	27.549908	5.532856E-5	20.820747
2246.596906	-3.016100	3.237300	-9.762900	27.588330	5.295239E-5	20.840438
2247.597872	-2.997900	3.237000	-9.703500	27.632351	5.354643E-5	20.814558
2248.599344	-2.999900	3.237000	-9.709600	27.654326	5.456951E-5	20.821023
2249.598918	-2.976800	3.236000	-9.632000	27.671187	5.513055E-5	20.846523
2250.601644	-3.038700	3.234700	-9.828600	27.664217	5.334842E-5	20.822441
2251.598776	-2.995100	3.236500	-9.693000	27.625204	5.536157E-5	20.839609
2252.601610	-2.992300	3.234800	-9.678800	27.615751	5.328241E-5	20.825830
2253.603019	-3.004500	3.234700	-9.717200	27.588542	5.400847E-5	20.830695
2254.600034	-2.973900	3.235100	-9.620100	27.666962	5.262237E-5	20.836108
2255.603725	-2.990200	3.233200	-9.666900	27.625745	5.222634E-5	20.838256
2256.599185	-2.978400	3.233500	-9.629800	27.669735	5.117026E-5	20.853123
2257.599384	-2.983900	3.232500	-9.644900	27.693271	5.123626E-5	20.838400
2258.601189	-3.006600	3.233000	-9.719700	27.663085	5.179731E-5	20.842638
2259.601079	-3.016500	3.231600	-9.747200	27.694037	5.090624E-5	20.834430
2260.601732	-2.980900	3.233800	-9.638400	27.716330	5.034520E-5	20.845009
2261.601206	-3.012600	3.230600	-9.731200	27.770908	5.051021E-5	20.836870
2262.602277	-2.991800	3.231200	-9.665700	27.762722	5.093924E-5	20.860399
2263.603802	-3.002500	3.230100	-9.697700	27.759989	4.839806E-5	20.828727
2264.602014	-2.995700	3.232500	-9.683000	27.730977	5.041120E-5	20.850265
2265.601876	-3.013500	3.229500	-9.731800	27.753687	4.985016E-5	20.837084
2266.607591	-3.017000	3.230700	-9.746000	27.804773	5.014718E-5	20.845821
2267.605497	-3.007900	3.228100	-9.708700	27.831996	4.720997E-5	20.840502
2268.604761	-2.977400	3.228900	-9.612900	27.812680	4.678094E-5	20.840976
2269.606736	-2.951000	3.227500	-9.523000	27.722291	4.833205E-5	20.838205
2270.604412	-2.989900	3.228100	-9.650700	27.692950	4.734198E-5	20.833336
2271.608257	-3.010900	3.227300	-9.715400	27.741187	4.777101E-5	20.839677
2272.605297	-3.032100	3.225600	-9.779800	27.797996	4.598888E-5	20.845165
2273.605147	-3.003200	3.224900	-9.683900	27.794276	4.777101E-5	20.841421
2274.604591	-3.026000	3.224700	-9.756800	27.780613	4.635191E-5	20.840473
2275.605103	-3.018100	3.223900	-9.728800	27.717202	4.588987E-5	20.852998
2276.607678	-3.028200	3.224800	-9.764700	27.711773	4.453677E-5	20.848958
2277.609135	-2.985700	3.223800	-9.624600	27.703238	4.681394E-5	20.852697
2278.607256	-3.000100	3.223100	-9.668900	27.645678	4.684694E-5	20.851201
2279.605549	-2.990600	3.222800	-9.636900	27.631492	4.701195E-5	20.851625
2280.605805	-2.982500	3.223900	-9.614700	27.717870	4.437176E-5	20.840869
2281.608339	-3.002000	3.221200	-9.668500	27.768481	4.463578E-5	20.844385
2282.607551	-2.990900	3.223600	-9.641100	27.809967	4.572486E-5	20.862901
2283.610438	-3.002800	3.222900	-9.676700	27.787721	4.529583E-5	20.875599
2284.608017	-2.981200	3.221000	-9.601100	27.773512	4.539484E-5	20.857982
2285.607910	-2.982400	3.219300	-9.600100	27.761316	4.334869E-5	20.868941
2286.609616	-2.998900	3.220000	-9.655800	27.789855	4.400873E-5	20.868265
2287.611888	-2.986700	3.222200	-9.623100	27.813138	4.117053E-5	20.850446
2288.608764	-3.007300	3.218500	-9.677600	27.861267	4.301866E-5	20.863796
2289.608958	-3.021800	3.219100	-9.726100	27.782739	4.156656E-5	20.862052
2290.610970	-3.001500	3.218700	-9.659300	27.812720	4.107152E-5	20.861879
2291.608449	-3.004800	3.218500	-9.670600	27.795235	4.120353E-5	20.859928
2292.613531	-2.986100	3.218500	-9.609900	27.820205	3.952041E-5	20.867514
2293.611902	-2.990900	3.217400	-9.622100	27.873717	4.258963E-5	20.878696
2294.612866	-2.994600	3.216300	-9.630900	27.889813	4.179757E-5	20.867395
2295.612648	-3.008900	3.216100	-9.676000	27.923290	4.239162E-5	20.864579
2296.614501	-3.016100	3.214200	-9.693000	27.950436	4.169856E-5	20.860609
2297.614650	-3.007100	3.214600	-9.665500	27.910767	4.169856E-5	20.857665
2298.617536	-2.996900	3.213800	-9.630800	27.938610	4.084050E-5	20.870042
2299.614177	-2.984600	3.214900	-9.593900	27.937668	3.988343E-5	20.876680
2300.614956	-2.983900	3.212200	-9.584400	27.914240	3.826631E-5	20.879178
2301.614373	-2.995800	3.213100	-9.625400	27.901947	3.925639E-5	20.884823
2302.614584	-2.991900	3.214300	-9.615300	27.910152	3.806830E-5	20.882650
2303.621267	-2.994400	3.211600	-9.615800	27.854095	3.823331E-5	20.884077
2304.615807	-3.013400	3.214500	-9.684900	27.833197	3.711123E-5	20.880589
2305.614919	-2.978800	3.211700	-9.565100	27.848765	3.727624E-5	20.879661
2306.618386	-2.992600	3.209500	-9.603700	27.907089	3.905837E-5	20.874825
2307.620359	-2.991700	3.209600	-9.601900	27.915446	3.862934E-5	20.868064
2308.623090	-2.996500	3.210800	-9.620600	27.837569	3.958641E-5	20.891626
2309.617167	-2.980700	3.210100	-9.567100	27.811210	3.717723E-5	20.855617
2310.619019	-3.001600	3.208900	-9.630000	27.754078	3.790329E-5	20.878726
2311.623594	-3.019300	3.206900	-9.681400	27.726106	3.476806E-5	20.862433
2312.623384	-3.037700	3.207100	-9.741100	27.751230	3.684721E-5	20.869223
2313.618552	-3.010800	3.208800	-9.661000	27.779426	3.635217E-5	20.899018
2314.622390	-2.965200	3.207100	-9.509400	27.860761	3.684721E-5	20.877984
2315.622078	-3.015300	3.204300	-9.661200	27.817614	3.463605E-5	20.885294
2316.620128	-3.004800	3.207000	-9.635800	27.776260	3.754026E-5	20.889668
2317.625261	-3.002800	3.207200	-9.630200	27.833264	3.638517E-5	20.881130
2318.622007	-2.998200	3.205900	-9.611600	27.859995	3.829932E-5	20.902816
2319.626870	-3.012300	3.203800	-9.649000	27.890990	3.697922E-5	20.860520
2320.622310	-3.006400	3.203500	-9.630300	27.900412	3.612116E-5	20.872373
2321.623101	-2.992000	3.202800	-9.581800	27.887619	3.783728E-5	20.885100
2322.620966	-3.027100	3.202700	-9.694200	27.831678	3.562612E-5	20.889491
2323.620990	-3.022200	3.202400	-9.677000	27.858582	3.480106E-5	20.890015
2324.623520	-3.001500	3.201400	-9.608400	27.878295	3.803530E-5	20.892785
2325.623065	-2.993900	3.202100	-9.585400	27.830339	3.704522E-5	20.881979
2326.624208	-3.006900	3.201200	-9.624800	27.914918	3.790329E-5	20.905937
2327.627236	-3.007300	3.200700	-9.624000	27.990188	3.565912E-5	20.906782
2328.626751	-3.021200	3.197600	-9.659700	27.989987	3.536210E-5	20.890934
2329.625778	-3.029800	3.198300	-9.688300	27.975909	3.569212E-5	20.902366
2330.625719	-3.004200	3.200200	-9.613200	28.046738	3.559312E-5	20.886894
2331.624806	-3.027400	3.197400	-9.679000	28.103188	3.509808E-5	20.894879
2332.625407	-2.989600	3.197300	-9.556500	28.068303	3.651718E-5	20.883946
2333.624573	-3.014900	3.197300	-9.638400	28.030076	3.384399E-5	20.896672
2334.624722	-2.968600	3.198200	-9.493800	28.018722	3.344796E-5	20.893304
2335.628273	-3.008700	3.196200	-9.615600	28.048594	3.463605E-5	20.893028
2336.625380	-2.986600	3.196100	-9.544800	28.019336	3.473505E-5	20.901034
2337.624501	-2.977900	3.196500	-9.518400	28.022858	3.470205E-5	20.890830
2338.624601	-3.000000	3.196900	-9.589300	28.026872	3.453704E-5	20.890604
2339.625176	-2.985400	3.194700	-9.537100	28.061086	3.219387E-5	20.902757
2340.623050	-2.981300	3.194900	-9.523900	28.091629	3.460304E-5	20.911217
2341.627939	-2.983300	3.194800	-9.530200	28.096511	3.420702E-5	20.889107
2342.624931	-3.008400	3.191900	-9.601800	28.124993	3.490007E-5	20.916354
2343.625555	-3.004300	3.191500	-9.587400	28.139524	3.344796E-5	20.912491
2344.628787	-3.004500	3.191300	-9.586500	28.082896	3.387699E-5	20.908591
2345.630118	-3.003600	3.190100	-9.580900	28.044993	3.470205E-5	20.901731
2346.629849	-2.988100	3.191100	-9.534900	28.019184	3.357997E-5	20.895192
2347.626995	-3.007300	3.188800	-9.588600	28.054532	3.232588E-5	20.890471
2348.628706	-2.990800	3.189600	-9.539000	28.091821	3.262290E-5	20.874904
2349.627418	-3.006600	3.189000	-9.587000	28.121966	3.265590E-5	20.902403
2350.627366	-3.005000	3.187800	-9.578800	28.141350	3.229287E-5	20.896787
2351.628994	-3.000700	3.187300	-9.563600	28.147788	3.192985E-5	20.923180
2352.629750	-3.004500	3.186300	-9.572600	28.077137	3.305193E-5	20.884303
2353.627726	-3.010400	3.186500	-9.591400	28.050264	3.216086E-5	20.898502
2354.631798	-2.971200	3.186200	-9.466200	28.038959	3.133580E-5	20.898028
2355.630530	-2.990400	3.185800	-9.525700	27.962595	3.424002E-5	20.901767
2356.629798	-2.998200	3.185600	-9.549900	27.977075	3.209486E-5	20.879360
2357.632976	-2.970300	3.184000	-9.456600	27.990903	3.219387E-5	20.882848
2358.631443	-2.994200	3.183100	-9.530000	27.972257	2.935566E-5	20.907225
2359.632352	-2.982700	3.184300	-9.497200	28.028387	2.919065E-5	20.894498
2360.636199	-3.016500	3.183000	-9.600100	28.119819	3.024672E-5	20.873691
2361.632737	-3.013200	3.181500	-9.586000	28.090514	3.064275E-5	20.897294
2362.632899	-3.000400	3.180900	-9.543000	28.069637	2.912464E-5	20.908994
2363.633949	-2.999200	3.182200	-9.542900	28.065721	2.836559E-5	20.893200
2364.633886	-3.002400	3.179300	-9.544300	28.073082	3.136881E-5	20.907246
2365.634729	-2.994800	3.178900	-9.519000	28.033093	2.773854E-5	20.895442
2366.636904	-2.985600	3.180200	-9.493600	28.042018	2.707849E-5	20.873608
2367.638273	-3.009900	3.178100	-9.565300	28.092172	2.889362E-5	20.887584
2368.636325	-3.008100	3.178900	-9.561800	28.122440	2.826658E-5	20.899561
2369.636775	-2.994300	3.176200	-9.509300	28.183742	2.991670E-5	20.881145
2370.639165	-3.011200	3.175800	-9.562000	28.196188	2.790355E-5	20.888459
2371.639486	-3.012400	3.175300	-9.563700	28.192813	2.707849E-5	20.878424
2372.650584	-3.009400	3.173600	-9.550100	28.187240	2.658346E-5	20.892251
2373.640799	-2.974500	3.174700	-9.441800	28.160218	2.820057E-5	20.885911
2374.640717	-3.007800	3.172500	-9.541500	28.183021	2.750752E-5	20.886108
2375.642973	-3.004500	3.172600	-9.531000	28.191008	2.631944E-5	20.896044
2376.641061	-3.007200	3.172100	-9.538200	28.186441	2.869561E-5	20.878646
2377.646637	-3.003200	3.170700	-9.521700	28.115891	2.833258E-5	20.897236
2378.644813	-3.020800	3.169400	-9.573600	28.102997	2.664946E-5	20.855335
2379.643450	-2.978600	3.170200	-9.440800	28.074716	2.655045E-5	20.869539
2380.642149	-3.001700	3.169100	-9.511600	28.044566	2.529636E-5	20.868112
2381.644159	-2.986000	3.169200	-9.461700	28.036382	2.711149E-5	20.886425
2382.647414	-2.974700	3.168900	-9.425700	27.984144	2.638544E-5	20.882208
2383.643121	-2.993000	3.167200	-9.478400	27.957911	2.420728E-5	20.872400
2384.645170	-2.994500	3.166800	-9.481500	27.989969	2.453730E-5	20.870054
2385.645236	-2.987800	3.167500	-9.463500	27.980969	2.546137E-5	20.872375
2386.646971	-2.993200	3.165900	-9.475000	28.048354	2.539537E-5	20.870503
2387.646609	-2.994200	3.164400	-9.474400	28.113625	2.490033E-5	20.882628
2388.645616	-2.997900	3.164200	-9.485300	28.140718	2.532936E-5	20.870548
2389.645850	-2.999400	3.163800	-9.488300	28.213572	2.292019E-5	20.871822
2390.653458	-3.013500	3.161500	-9.525900	28.248869	2.367924E-5	20.861367
2391.646561	-2.997500	3.161600	-9.475200	28.169346	2.457031E-5	20.868549
2392.645982	-3.024400	3.160000	-9.556400	28.156928	2.255716E-5	20.877858
2393.646792	-3.003700	3.160600	-9.492500	28.129758	2.318421E-5	20.862360
2394.647206	-3.009800	3.159900	-9.509900	28.106359	2.252416E-5	20.864884
2395.645269	-3.022300	3.158200	-9.544300	28.099614	2.176510E-5	20.877532
2396.647244	-2.988500	3.158200	-9.437200	28.008856	2.146808E-5	20.863935
2397.645976	-2.993900	3.158100	-9.454800	27.985950	2.397626E-5	20.857949
2398.649527	-3.002800	3.157800	-9.481500	28.106306	2.315120E-5	20.855821
2399.648034	-3.015800	3.157600	-9.521600	28.163301	2.344822E-5	20.863886
2400.648064	-2.975300	3.156500	-9.390700	28.191560	2.288718E-5	20.884747
2401.646107	-2.987500	3.155700	-9.426100	28.201229	2.295319E-5	20.880732
2402.647649	-2.980500	3.156100	-9.405900	28.259951	2.334922E-5	20.864937
2403.651289	-3.017600	3.152700	-9.512900	28.318698	2.397626E-5	20.850594
2404.650732	-3.015900	3.151600	-9.504400	28.323260	2.344822E-5	20.852342
2405.648383	-3.011100	3.150900	-9.487000	28.305144	2.334922E-5	20.862076
2406.648173	-3.001300	3.150100	-9.453900	28.233140	2.094004E-5	20.875876
2407.652555	-3.013300	3.151300	-9.495300	28.244197	2.249115E-5	20.859982
2408.652122	-3.035000	3.148900	-9.555900	28.161459	2.097304E-5	20.846859
2409.653767	-2.981800	3.149900	-9.391300	28.120732	2.084103E-5	20.869395
2410.655148	-3.007800	3.148000	-9.467800	28.168057	2.212813E-5	20.864406
2411.654801	-2.993300	3.148200	-9.422100	28.213451	2.229314E-5	20.854157
2412.655668	-2.985000	3.148000	-9.395800	28.192228	2.282118E-5	20.872619
2413.651945	-2.999500	3.146200	-9.436000	28.209785	1.886089E-5	20.853312
2414.657148	-2.985400	3.146000	-9.391500	28.205846	2.051101E-5	20.831803
2415.652001	-2.986100	3.144200	-9.388200	28.196897	1.938893E-5	20.885854
2416.653710	-3.007100	3.142700	-9.448600	28.211207	1.945493E-5	20.829614
2417.653520	-3.002000	3.142600	-9.433600	28.218271	2.011498E-5	20.834830
2418.654393	-3.014700	3.141100	-9.468600	28.194506	1.935592E-5	20.846465
2419.655134	-3.001300	3.140700	-9.424600	28.171109	1.886089E-5	20.826230
2420.658897	-2.999800	3.139900	-9.417700	28.142232	1.952094E-5	20.841728
2421.656110	-3.002100	3.139000	-9.422800	28.154609	1.925692E-5	20.855136
2422.655449	-3.012600	3.139200	-9.457200	28.189064	1.895989E-5	20.846202
2423.661401	-2.992200	3.137700	-9.388200	28.218539	1.737578E-5	20.834150
2424.655559	-2.983400	3.137000	-9.357400	28.252702	1.790382E-5	20.853372
2425.659117	-2.970600	3.136900	-9.317900	28.239363	1.912491E-5	20.844685
2426.656730	-3.018200	3.135300	-9.461700	28.250179	1.707876E-5	20.837557
2427.657920	-2.993300	3.134700	-9.382300	28.250826	1.691374E-5	20.839157
2428.655914	-2.999600	3.133100	-9.396900	28.297326	1.925692E-5	20.829076
2429.656408	-2.972400	3.134300	-9.316000	28.272769	1.790382E-5	20.837067
2430.657186	-3.002000	3.132300	-9.402800	28.194590	1.658372E-5	20.858403
2431.658122	-3.005600	3.130900	-9.409200	28.186981	1.704575E-5	20.825613
2432.655248	-2.991000	3.130100	-9.361000	28.256487	1.810183E-5	20.829683
2433.657999	-2.995400	3.130100	-9.375100	28.332560	1.813483E-5	20.828042
2434.656450	-3.000000	3.129100	-9.386700	28.308662	1.661672E-5	20.810144
2435.663179	-3.012700	3.126800	-9.419700	28.298830	1.651772E-5	20.827745
2436.667879	-3.000400	3.125900	-9.377800	28.314391	1.552764E-5	20.820654
2437.658979	-3.032400	3.124600	-9.473600	28.324903	1.697975E-5	20.835979
2438.660736	-2.978200	3.126100	-9.309500	28.296918	1.727677E-5	20.838147
2439.661527	-3.001100	3.124100	-9.375300	28.276078	1.853086E-5	20.853200
2440.660515	-2.996000	3.123600	-9.357500	28.265124	1.734278E-5	20.834586
2441.662077	-2.970200	3.122400	-9.273400	28.330426	1.889389E-5	20.841540
2442.659666	-2.979800	3.122800	-9.304300	28.402605	1.631970E-5	20.851630
2443.662925	-2.988700	3.120200	-9.324500	28.432167	1.744178E-5	20.812173
2444.661009	-3.040900	3.119600	-9.486100	28.447681	1.658372E-5	20.814993
2445.664279	-3.022700	3.118400	-9.425600	28.401040	1.806883E-5	20.844365
2446.668122	-3.019600	3.118500	-9.415400	28.398412	1.622069E-5	20.814218
2447.660634	-3.008700	3.117400	-9.378900	28.382950	1.381152E-5	20.826624
2448.660342	-3.002700	3.116300	-9.356600	28.428351	1.704575E-5	20.820658
2449.660715	-3.013600	3.115500	-9.388200	28.417869	1.750779E-5	20.842819
2450.660258	-3.001800	3.115400	-9.351200	28.384305	1.443856E-5	20.815186
2451.659373	-3.023000	3.113300	-9.410600	28.415760	1.605568E-5	20.814144
2452.664149	-3.010700	3.111900	-9.367600	28.425100	1.457057E-5	20.809798
2453.660368	-3.024100	3.109500	-9.402500	28.458163	1.331648E-5	20.818436
2454.660721	-3.006600	3.111100	-9.353100	28.422373	1.714476E-5	20.826966
2455.668389	-3.003900	3.109400	-9.338800	28.349484	1.539563E-5	20.823272
2456.661256	-3.006900	3.108400	-9.344700	28.293965	1.457057E-5	20.843709
2457.664530	-3.010400	3.107500	-9.354200	28.285316	1.565965E-5	20.829312
2458.663038	-2.970700	3.106700	-9.228400	28.242682	1.552764E-5	20.810094
2459.664092	-3.018300	3.104900	-9.370600	28.294456	1.503261E-5	20.838514
2460.663680	-2.976200	3.104700	-9.238400	28.336142	1.684774E-5	20.825011
2461.661884	-3.012600	3.104500	-9.352000	28.340557	1.595667E-5	20.832775
2462.661798	-3.011200	3.101500	-9.338600	28.355724	1.374551E-5	20.814856
2463.664141	-2.985500	3.103300	-9.263800	28.453113	1.565965E-5	20.809083
2464.661947	-2.998300	3.102000	-9.299700	28.505897	1.559365E-5	20.819090
2465.662174	-2.998800	3.100200	-9.295800	28.501610	1.499960E-5	20.811454
2466.664083	-2.984500	3.100200	-9.251700	28.498207	1.298646E-5	20.823674
2467.663626	-2.984200	3.098700	-9.246700	28.489364	1.463658E-5	20.808605
2468.666558	-2.992700	3.097400	-9.268100	28.472115	1.589067E-5	20.801192
2469.663127	-3.008900	3.095800	-9.313600	28.500836	1.414154E-5	20.824899
2470.665149	-3.014500	3.095100	-9.328500	28.509380	1.529663E-5	20.810270
2471.664547	-2.978600	3.094700	-9.216900	28.536831	1.331648E-5	20.808992
2472.664495	-3.006000	3.092600	-9.295500	28.555938	1.608868E-5	20.820173
2473.670884	-3.001300	3.092000	-9.279500	28.572584	1.229340E-5	20.806118
2474.665276	-3.000300	3.090500	-9.271400	28.531226	1.361350E-5	20.808563
2475.665327	-3.011200	3.090400	-9.305500	28.521461	1.424055E-5	20.811531
2476.667042	-3.000600	3.088600	-9.267600	28.442826	1.202939E-5	20.821958
2477.663885	-3.008700	3.088300	-9.290800	28.380396	1.130333E-5	20.806983
2478.666768	-2.980200	3.087700	-9.200400	28.369983	1.268943E-5	20.817835
2479.670189	-3.011300	3.085300	-9.290000	28.334142	1.150135E-5	20.806401
2480.667662	-2.993000	3.084300	-9.229400	28.349579	1.338248E-5	20.810091
2481.667416	-3.004000	3.083200	-9.261300	28.388290	1.206239E-5	20.800707
2482.673611	-3.005800	3.080800	-9.259500	28.385039	1.183137E-5	20.814029
2483.667727	-3.004400	3.080000	-9.252400	28.496457	1.331648E-5	20.816696
2484.670803	-2.990600	3.079900	-9.210100	28.540268	9.917230E-6	20.823833
2485.672138	-2.997700	3.077500	-9.224900	28.554462	1.202939E-5	20.803040
2486.669489	-3.006700	3.076900	-9.249800	28.545119	1.130333E-5	20.815916
2487.670743	-2.978400	3.077900	-9.165700	28.559465	9.686213E-6	20.800966
2488.668807	-2.983300	3.075800	-9.175300	28.564689	1.196338E-5	20.814762
2489.670994	-3.010600	3.074400	-9.255300	28.575464	1.186437E-5	20.790052
2490.672643	-3.006100	3.074100	-9.239100	28.514606	1.209539E-5	20.803205
2491.672555	-3.017400	3.072100	-9.268800	28.533586	1.080830E-5	20.812836
2492.669505	-2.977600	3.072200	-9.146400	28.561585	1.364650E-5	20.795989
2493.675135	-3.008600	3.070100	-9.235400	28.562973	1.014825E-5	20.796439
2494.674584	-2.997000	3.069300	-9.196900	28.572336	1.229340E-5	20.799230
2495.673102	-3.012800	3.066400	-9.237500	28.550257	1.196338E-5	20.795486
2496.674637	-2.976600	3.066200	-9.126400	28.501488	1.202939E-5	20.784304
2497.670619	-2.969400	3.065400	-9.101000	28.444662	9.422193E-6	20.809108
2498.676082	-3.007500	3.063000	-9.210600	28.474989	1.136934E-5	20.792233
2499.670640	-3.007300	3.062300	-9.208500	28.517070	1.325048E-5	20.797626
2500.673639	-2.996700	3.061700	-9.174300	28.543780	9.554203E-6	20.817412
2501.670418	-3.031100	3.059000	-9.270800	28.538523	9.818223E-6	20.819230
2502.671333	-2.992100	3.059600	-9.153300	28.526429	7.211031E-6	20.798516
2503.669554	-2.984900	3.057500	-9.125500	28.550014	9.884227E-6	20.799509
2504.670091	-2.962800	3.058800	-9.061500	28.527464	9.323186E-6	20.788653
2505.671994	-2.992900	3.056100	-9.146200	28.552761	1.018125E-5	20.791844
2506.674638	-2.983700	3.055400	-9.115200	28.614612	7.970087E-6	20.793444
2507.671702	-2.980900	3.054400	-9.103600	28.618178	8.432121E-6	20.778069
2508.672484	-2.974200	3.053600	-9.081000	28.686263	9.851225E-6	20.793065
2509.674440	-2.982000	3.052800	-9.102800	28.738716	1.275544E-5	20.798483
2510.672221	-3.000900	3.050700	-9.153400	28.763463	9.653210E-6	20.782159
2511.674773	-3.000500	3.049300	-9.147500	28.778350	7.574058E-6	20.793836
2512.672446	-3.003000	3.047600	-9.150900	28.790024	8.762145E-6	20.797534
2513.675285	-3.017200	3.047000	-9.192600	28.653403	9.917230E-6	20.809281
2514.673153	-3.009900	3.044800	-9.163300	28.597557	9.554203E-6	20.799501
2515.676834	-3.020800	3.043700	-9.192500	28.591387	8.465123E-6	20.803245
2516.674506	-2.993900	3.043000	-9.109600	28.673401	9.158174E-6	20.784851
2517.674606	-3.003300	3.042100	-9.135800	28.725903	9.752218E-6	20.798379
2518.674397	-3.012500	3.039500	-9.154800	28.707540	6.781999E-6	20.757123
2519.674402	-3.003200	3.038500	-9.124300	28.736795	1.120432E-5	20.788962
2520.677249	-3.018900	3.037600	-9.169100	28.791796	1.004924E-5	20.821130
2521.681097	-3.003800	3.035700	-9.118200	28.733848	1.018125E-5	20.803537
2522.677068	-2.993300	3.035200	-9.085300	28.643239	5.824929E-6	20.793353
2523.675310	-2.988500	3.033500	-9.065400	28.697376	8.828150E-6	20.789086
2524.677875	-2.997600	3.033000	-9.091200	28.763549	8.333113E-6	20.784616
2525.678636	-2.992700	3.030100	-9.067100	28.790179	8.861152E-6	20.802906
2526.676483	-3.023800	3.027800	-9.154300	28.820848	9.026164E-6	20.782117
2527.677951	-2.998800	3.029500	-9.084200	28.816759	5.758924E-6	20.765196
2528.678409	-3.004600	3.027400	-9.095500	28.808802	6.451975E-6	20.788001
2529.676763	-2.993300	3.025900	-9.056300	28.781227	8.069094E-6	20.784880
2530.676992	-2.980500	3.026300	-9.019400	28.737155	6.583985E-6	20.783634
2531.676632	-2.974900	3.025100	-8.998700	28.750851	6.881007E-6	20.769929
2532.679279	-2.996800	3.021500	-9.054000	28.769729	8.861152E-6	20.773298
2533.680360	-2.968800	3.021400	-8.969000	28.807582	9.554203E-6	20.783453
2534.677309	-2.987100	3.019900	-9.019700	28.735632	7.640062E-6	20.780678
2535.677475	-2.998600	3.019300	-9.053200	28.772614	6.980014E-6	20.752022
2536.682576	-3.007400	3.017100	-9.072100	28.799072	8.663138E-6	20.779148
2537.676879	-3.016100	3.015200	-9.093700	28.755791	1.051127E-5	20.794346
2538.680999	-2.959500	3.014700	-8.921100	28.743053	8.366116E-6	20.776773
2539.677202	-2.987900	3.012500	-9.000200	28.711587	8.927157E-6	20.764993
2540.677342	-3.007600	3.011800	-9.057500	28.720433	7.607060E-6	20.774852
2541.679739	-3.023400	3.008900	-9.095000	28.701829	9.587206E-6	20.786932
2542.678897	-3.005700	3.009600	-9.045200	28.765418	6.319965E-6	20.775594
2543.683187	-3.030200	3.006200	-9.108000	28.738391	8.399118E-6	20.771128
2544.681226	-2.992100	3.006000	-8.992600	28.768766	9.752218E-6	20.774225
2545.679029	-3.006700	3.004100	-9.032000	28.789625	9.950232E-6	20.773899
2546.679652	-3.016000	3.002800	-9.055800	28.848854	6.881007E-6	20.795158
2547.682422	-3.001100	3.002600	-9.010600	28.855595	8.762145E-6	20.762593
2548.680627	-3.033800	2.999600	-9.098200	28.905781	8.036092E-6	20.754355
2549.681533	-2.996700	2.999800	-8.988200	28.884302	7.640062E-6	20.767805
2550.681735	-2.987900	2.997700	-8.955000	28.856381	9.818223E-6	20.792309
2551.681403	-3.009800	2.996100	-9.016800	28.789518	7.673065E-6	20.780904
2552.680652	-2.995100	2.995000	-8.969100	28.835548	9.686213E-6	20.796452
2553.677477	-2.997900	2.993000	-8.972000	28.875895	8.861152E-6	20.771664
2554.684656	-2.994200	2.991400	-8.955900	28.824150	6.781999E-6	20.780228
2555.679750	-3.001100	2.990700	-8.974800	28.803042	6.815002E-6	20.765129
2556.678695	-2.999400	2.990000	-8.967500	28.786809	6.715994E-6	20.781019
2557.680372	-2.996200	2.987300	-8.949500	28.734710	7.838077E-6	20.762205
2558.679076	-3.001500	2.985600	-8.959900	28.747445	7.838077E-6	20.764601
2559.681136	-2.982700	2.986100	-8.904900	28.784676	7.970087E-6	20.774604
2560.684534	-2.999800	2.983600	-8.949400	28.794733	6.947011E-6	20.763397
2561.679741	-2.997400	2.982800	-8.939700	28.854261	8.696140E-6	20.781638
2562.679668	-3.010000	2.980700	-8.971100	28.842039	7.277036E-6	20.775490
2563.683199	-2.971700	2.980000	-8.854500	28.847761	7.343041E-6	20.754227
2564.679525	-2.989300	2.977600	-8.900100	28.878997	5.923936E-6	20.766254
2565.682710	-2.998400	2.976000	-8.922400	28.924901	6.484977E-6	20.769350
2566.679492	-2.980000	2.975500	-8.866300	28.960018	5.989941E-6	20.777704
2567.677935	-3.010000	2.972300	-8.944500	29.010894	6.484977E-6	20.768270
2568.681970	-2.986300	2.971500	-8.873200	29.003017	7.574058E-6	20.770765
2569.679668	-2.978900	2.971100	-8.850100	28.971162	7.013016E-6	20.776129
2570.681544	-2.963800	2.969900	-8.800800	28.947180	8.267109E-6	20.778994
2571.681560	-2.990500	2.968100	-8.874500	28.926767	7.046019E-6	20.766963
2572.681066	-2.998500	2.965800	-8.890600	28.967315	8.465123E-6	20.785529
2573.681909	-2.990900	2.964900	-8.866700	28.978454	7.178028E-6	20.795330
2574.681185	-2.993700	2.963000	-8.869800	28.952394	7.343041E-6	20.765281
2575.681870	-2.994400	2.961100	-8.866200	28.955492	7.970087E-6	20.764134
2576.684911	-2.990400	2.961500	-8.855100	28.939363	7.673065E-6	20.800043
2577.681549	-2.976900	2.959200	-8.808300	28.932025	7.475050E-6	20.772261
2578.688278	-3.004400	2.955700	-8.879200	28.906729	7.574058E-6	20.787080
2579.682717	-2.974600	2.955500	-8.790800	28.969623	8.630135E-6	20.776475
2580.682669	-2.988200	2.955400	-8.830000	28.939797	8.663138E-6	20.776298
2581.691030	-2.999200	2.953100	-8.856100	28.983087	6.881007E-6	20.783402
2582.680407	-2.991300	2.951100	-8.826300	28.995053	1.031326E-5	20.792613
2583.682718	-3.050100	2.947600	-8.989500	28.937951	8.234106E-6	20.766851
2584.682033	-2.983000	2.947600	-8.791600	28.848694	6.980014E-6	20.784564
2585.683549	-3.001600	2.944900	-8.838300	28.880278	4.108802E-6	20.771812
2586.686541	-2.974600	2.945700	-8.761500	28.905067	7.970087E-6	20.771181
2587.685190	-2.993000	2.943900	-8.810400	28.895577	6.583985E-6	20.809983
2588.682338	-3.019900	2.940300	-8.878200	28.877168	6.187956E-6	20.790489
2589.683731	-2.974200	2.939000	-8.740000	28.919175	1.047827E-5	20.779229
2590.690987	-3.011600	2.937300	-8.845000	28.974432	9.422193E-6	20.780371
2591.684075	-3.015800	2.935300	-8.850900	29.027386	8.531128E-6	20.781093
2592.687344	-2.979600	2.935000	-8.744000	29.029931	9.158174E-6	20.787925
2593.685176	-2.990400	2.932100	-8.767400	29.103612	9.389191E-6	20.802896
2594.685689	-2.998000	2.931500	-8.788000	29.079682	6.286963E-6	20.775465
2595.686760	-3.015700	2.929600	-8.834500	28.996956	5.692919E-6	20.792634
2596.685769	-3.006300	2.927200	-8.799300	28.977211	5.791926E-6	20.770843
2597.689032	-2.993000	2.926400	-8.758000	29.047180	6.715994E-6	20.783019
2598.686111	-2.985200	2.927400	-8.737600	29.041152	7.508053E-6	20.795437
2599.687520	-2.996800	2.923200	-8.760200	29.024481	7.079021E-6	20.776269
2600.689501	-2.986400	2.922300	-8.725700	28.997357	7.541055E-6	20.809159
2601.686977	-3.008200	2.920300	-8.783800	29.040452	6.914009E-6	20.781456
2602.688317	-2.984500	2.917700	-8.707000	29.044340	8.069094E-6	20.801969
2603.689864	-2.994300	2.915300	-8.728400	29.052311	6.881007E-6	20.803362
2604.687644	-3.003700	2.912700	-8.748100	29.006508	5.527907E-6	20.768592
2605.686841	-2.993300	2.913400	-8.719600	29.029346	5.362895E-6	20.788758
2606.688696	-2.979500	2.911800	-8.675300	29.091386	7.277036E-6	20.782042
2607.687962	-2.975800	2.909000	-8.654900	29.160603	5.989941E-6	20.781613
2608.692228	-2.981600	2.906600	-8.664500	29.128557	7.244033E-6	20.816651
2609.688233	-2.985700	2.905400	-8.673300	29.071962	8.399118E-6	20.797557
2610.689725	-2.997200	2.903900	-8.703000	29.032923	6.848004E-6	20.790466
2611.689513	-3.009300	2.902100	-8.732700	29.007605	6.815002E-6	20.774439
2612.689129	-3.015400	2.899500	-8.742100	28.983604	4.636841E-6	20.785345
2613.688893	-2.967500	2.899200	-8.602100	28.993188	5.098875E-6	20.789785
2614.693736	-3.037900	2.895800	-8.795600	28.986251	5.923936E-6	20.793702
2615.690138	-3.001900	2.894900	-8.689500	28.985085	7.145026E-6	20.807700
2616.691982	-2.976000	2.894000	-8.611500	29.030337	7.805075E-6	20.785489
2617.693879	-3.017900	2.890600	-8.722900	29.046534	5.263888E-6	20.806076
2618.693086	-2.985900	2.889600	-8.626500	29.112759	6.418973E-6	20.792672
2619.697289	-3.007900	2.887300	-8.684100	29.054411	3.184734E-6	20.810220
2620.694139	-2.990600	2.886100	-8.630200	28.994567	5.131878E-6	20.793546
2621.696720	-2.976200	2.884400	-8.582900	28.957065	5.032870E-6	20.815031
2622.696783	-3.000800	2.881400	-8.645800	29.032191	2.821708E-6	20.809642
2623.693963	-3.007600	2.880500	-8.662200	29.097402	6.220958E-6	20.814182
2624.695852	-3.021700	2.877500	-8.693300	29.105627	5.692919E-6	20.799710
2625.695543	-3.023300	2.876800	-8.696600	29.127395	3.712773E-6	20.810265
2626.695065	-3.030800	2.872400	-8.704500	29.103646	4.900861E-6	20.805301
2627.696183	-2.990500	2.873100	-8.591500	29.036599	2.524686E-6	20.818350
2628.701209	-2.994900	2.870500	-8.596300	28.958477	2.557688E-6	20.812186
2629.699578	-2.997800	2.868700	-8.598900	28.908564	3.844783E-6	20.827334
2630.696393	-3.007200	2.868300	-8.623700	28.957437	4.603839E-6	20.802130
2631.695098	-3.006200	2.864700	-8.610600	29.053511	3.844783E-6	20.803623
2632.695178	-2.997700	2.863700	-8.583900	29.142113	5.230885E-6	20.798069
2633.696455	-3.003800	2.862200	-8.596700	29.244708	3.019722E-6	20.824168
2634.695136	-3.006200	2.858400	-8.592000	29.299653	5.329892E-6	20.811263
2635.701522	-3.011200	2.856100	-8.599600	29.291586	3.514759E-6	20.798865
2636.696860	-3.006900	2.854900	-8.583400	29.331085	5.593912E-6	20.829663
2637.696033	-2.983900	2.853800	-8.514800	29.348017	4.141805E-6	20.818754
2638.697838	-3.001500	2.851500	-8.557900	29.303106	4.207810E-6	20.805733
2639.698837	-3.005400	2.847400	-8.556900	29.189637	4.636841E-6	20.811345
2640.698830	-3.011600	2.846300	-8.570900	29.130676	5.428900E-6	20.810726
2641.701960	-2.992800	2.845800	-8.516200	29.141172	5.857931E-6	20.817983
2642.698787	-3.024900	2.842200	-8.596900	29.092585	7.046019E-6	20.803639
2643.697785	-2.990400	2.841700	-8.496900	29.044709	5.296890E-6	20.790012
2644.702601	-3.007900	2.838100	-8.534900	29.068115	6.947011E-6	20.817863
2645.704194	-2.973800	2.836700	-8.435000	29.156781	4.537834E-6	20.800048
2646.702157	-3.001900	2.834600	-8.508100	29.150489	5.428900E-6	20.814569
2647.700999	-3.025100	2.831200	-8.563700	29.142641	4.537834E-6	20.807609
2648.701568	-2.993600	2.829200	-8.468700	29.092884	6.748997E-6	20.821009
2649.700841	-3.001500	2.827900	-8.486700	29.116809	3.877785E-6	20.806236
2650.700366	-3.007100	2.825100	-8.494800	29.195537	4.471829E-6	20.814920
2651.707250	-2.998200	2.821700	-8.459400	29.253807	5.131878E-6	20.803940
2652.701462	-2.979900	2.820400	-8.403600	29.218765	5.197883E-6	20.814619
2653.702025	-3.010300	2.817000	-8.479100	29.246774	3.349747E-6	20.830517
2654.700714	-3.011700	2.814700	-8.475200	29.311031	7.343041E-6	20.819410
2655.703587	-3.017100	2.812000	-8.483000	29.350975	4.504832E-6	20.798976
2656.702343	-2.987000	2.811700	-8.398000	29.432087	4.834856E-6	20.813398
2657.703114	-3.026000	2.807200	-8.493200	29.416812	6.319965E-6	20.812227
2658.702914	-3.002300	2.804700	-8.419400	29.393957	4.570836E-6	20.813373
2659.703552	-3.013800	2.802100	-8.443800	29.403370	5.428900E-6	20.795834
2660.706885	-3.003400	2.801100	-8.412200	29.413171	5.494905E-6	20.814722
2661.705697	-3.009000	2.796500	-8.414400	29.416489	6.319965E-6	20.831341
2662.705088	-2.968100	2.797300	-8.301500	29.416019	3.415751E-6	20.804789
2663.703562	-3.025000	2.791500	-8.443300	29.410921	3.877785E-6	20.815299
2664.704696	-3.017100	2.788500	-8.412200	29.433555	6.286963E-6	20.809662
2665.703852	-3.028800	2.786600	-8.439600	29.428798	3.910788E-6	20.828575
2666.704405	-3.024700	2.782900	-8.416600	29.424143	5.857931E-6	20.822460
2667.708550	-3.014700	2.780800	-8.382300	29.452592	5.362895E-6	20.813678
2668.711396	-3.016500	2.777700	-8.378500	29.416841	5.593912E-6	20.801825
2669.705725	-2.997200	2.775600	-8.318600	29.431968	4.438827E-6	20.832244
2670.706857	-3.001500	2.771900	-8.319100	29.339561	4.735849E-6	20.822085
2671.709837	-3.014400	2.768900	-8.345500	29.378065	5.197883E-6	20.803993
2672.705635	-3.013100	2.766400	-8.333800	29.455836	4.801853E-6	20.810784
2673.708743	-3.006900	2.765000	-8.313100	29.473511	6.715994E-6	20.826229
2674.718723	-2.978900	2.760300	-8.222000	29.524117	5.989941E-6	20.820815
2675.705979	-3.003800	2.757800	-8.283100	29.549243	5.230885E-6	20.806315
2676.705183	-3.022800	2.754200	-8.324800	29.559763	6.220958E-6	20.821186
2677.705831	-2.994300	2.750600	-8.235500	29.563726	6.088948E-6	20.837983
2678.710373	-2.981400	2.748600	-8.194000	29.617518	4.438827E-6	20.826777
2679.707123	-2.979900	2.746400	-8.182600	29.554986	5.032870E-6	20.823957
2680.708698	-3.014000	2.742100	-8.262900	29.486629	5.725922E-6	20.818115
2681.710510	-3.029200	2.736300	-8.287800	29.511163	4.306817E-6	20.828146
2682.709835	-2.993600	2.736500	-8.191500	29.531291	5.131878E-6	20.828521
2683.709383	-2.981600	2.734100	-8.150400	29.613976	5.098875E-6	20.839802
2684.713367	-3.033500	2.728100	-8.274600	29.647100	5.032870E-6	20.822460
2685.712887	-2.980400	2.723700	-8.117100	29.590729	5.659917E-6	20.852401
2686.710870	-2.952300	2.722300	-8.036100	29.656154	4.471829E-6	20.833959
2687.709483	-3.026200	2.716800	-8.220200	29.568156	7.607060E-6	20.825854
2688.709580	-3.003600	2.714900	-8.153600	29.500516	4.306817E-6	20.850604
2689.711874	-2.998900	2.709000	-8.122600	29.488212	5.692919E-6	20.835831
2690.709507	-3.015700	2.705600	-8.157900	29.464349	4.570836E-6	20.842597
2691.710252	-2.988100	2.702400	-8.074100	29.478555	3.382749E-6	20.827994
2692.709899	-3.019700	2.698100	-8.145300	29.526318	6.121951E-6	20.821137
2693.711380	-3.022300	2.694200	-8.141600	29.551718	5.032870E-6	20.832516
2694.710503	-3.004400	2.691100	-8.084300	29.607764	6.616987E-6	20.815996
2695.715331	-3.002300	2.685200	-8.060900	29.673802	6.121951E-6	20.850802
2696.711640	-2.999200	2.681900	-8.042800	29.681257	5.395897E-6	20.830818
2697.711525	-3.038000	2.677000	-8.131400	29.665487	6.418973E-6	20.854747
2698.718354	-2.985000	2.673500	-7.980100	29.655954	5.824929E-6	20.839921
2699.714998	-2.982300	2.670500	-7.963700	29.563600	6.187956E-6	20.839278
2700.718250	-2.998600	2.664900	-7.988800	29.569191	7.904082E-6	20.844440
2701.716560	-3.000300	2.661200	-7.983800	29.636871	5.890934E-6	20.827321
2702.712408	-2.983900	2.656800	-7.926400	29.680435	4.405824E-6	20.832360
2703.715971	-3.003500	2.652700	-7.966600	29.687367	5.956939E-6	20.849779
2704.716718	-2.995000	2.647500	-7.928000	29.784442	4.768851E-6	20.848555
2705.720340	-2.998900	2.641600	-7.919900	29.853368	4.438827E-6	20.844560
2706.715579	-3.015600	2.638000	-7.954300	29.866534	5.461902E-6	20.850249
2707.716040	-2.998700	2.632100	-7.891400	29.838243	5.659917E-6	20.852068
2708.715003	-3.004400	2.627500	-7.893700	29.769733	5.263888E-6	20.832776
2709.715338	-3.010300	2.621800	-7.891300	29.687036	6.715994E-6	20.823842
2710.717790	-3.025600	2.616400	-7.915400	29.765574	6.748997E-6	20.854187
2711.718433	-3.011700	2.612000	-7.865100	29.830740	5.560909E-6	20.855407
2712.717256	-3.001600	2.606500	-7.823500	29.824827	7.475050E-6	20.855609
2713.715890	-3.008600	2.600600	-7.823300	29.864494	7.442048E-6	20.851511
2714.719563	-2.995200	2.595400	-7.772800	29.908274	6.286963E-6	20.854405
2715.716560	-3.004800	2.589200	-7.779000	29.884366	7.376043E-6	20.859695
2716.724227	-2.992400	2.584400	-7.732500	29.832490	5.857931E-6	20.865706
2717.716835	-2.983900	2.579800	-7.696800	29.820930	4.867858E-6	20.854999
2718.719236	-2.986400	2.574000	-7.686200	29.824447	7.607060E-6	20.863286
2719.716809	-2.987700	2.567900	-7.671600	29.743754	7.046019E-6	20.858265
2720.717369	-2.966600	2.563000	-7.602400	29.740838	4.702846E-6	20.847265
2721.721386	-3.019500	2.555100	-7.714300	29.735538	5.989941E-6	20.866102
2722.717202	-2.975400	2.550500	-7.587700	29.778231	8.201104E-6	20.862680
2723.716906	-2.990900	2.543600	-7.606300	29.824660	5.824929E-6	20.863975
2724.719316	-3.045000	2.535600	-7.719600	29.868469	5.593912E-6	20.866424
2725.721114	-3.022700	2.531500	-7.649900	29.817581	4.702846E-6	20.857312
2726.719196	-3.017000	2.524600	-7.616000	29.809440	4.801853E-6	20.856690
2727.722763	-3.025100	2.517200	-7.613500	29.796792	4.867858E-6	20.850576
2728.720032	-2.967100	2.512500	-7.453700	29.786741	4.735849E-6	20.853717
2729.718230	-2.989800	2.506100	-7.492200	29.869459	5.692919E-6	20.863629
2730.717076	-3.028500	2.498700	-7.566600	29.827334	8.036092E-6	20.846284
