LabVIEW Measurement	
Writer_Version	2
Reader_Version	2
Separator	Tab
Decimal_Separator	.
Multi_Headings	No
X_Columns	One
Time_Pref	Absolute
Operator	admin
Description	Clolumns are: time, Current, Voltage, Power, Battery Temp, and Chamber Temp
Date	2024/08/16
Time	13:07:17.8513970375061035156
***End_of_Header***	
	
Channels	6						
Samples	1	1	1	1	1	1	
Date	2024/09/13	2024/09/13	2024/09/13	2024/09/13	2024/09/13	2024/09/13	
Time	21:01:06.1250638961791992187	21:01:06.1317753791809082031	21:01:06.1397733688354492187	21:01:06.10906982421875	21:01:06.10906982421875	21:01:06.10906982421875	
X_Dimension	Time	Time	Time	Time	Time	Time	
X0	0.0000000000000000E+0	0.0000000000000000E+0	0.0000000000000000E+0	0.0000000000000000E+0	0.0000000000000000E+0	0.0000000000000000E+0	
Delta_X	1.000000	1.000000	1.000000	1.000000	1.000000	1.000000	
***End_of_Header***							
X_Value	Untitled	Untitled 1	Untitled 2	Untitled 3	Untitled 4	Untitled 5	Comment
0.000000	-0.002598	4.087500	-0.010501	20.759280	0.000469	20.828506
0.999033	-2.999200	3.918100	-11.751000	20.770512	0.000470	20.824565
2.010624	-2.977400	3.914000	-11.653000	20.765642	0.000469	20.821118
2.999843	-3.001100	3.908000	-11.726000	20.785527	0.000468	20.813028
4.005602	-2.991900	3.903500	-11.677000	20.791638	0.000466	20.832414
5.002045	-3.008200	3.901100	-11.734000	20.812273	0.000468	20.813221
6.001714	-2.999800	3.898600	-11.694000	20.797002	0.000467	20.815967
7.013851	-3.015900	3.896600	-11.751000	20.811449	0.000464	20.816190
8.002127	-3.018100	3.894200	-11.752000	20.823895	0.000465	20.826266
9.001537	-3.001800	3.892100	-11.682000	20.807073	0.000466	20.833151
10.000995	-2.995900	3.891600	-11.657000	20.831749	0.000464	20.806145
11.003326	-3.011200	3.888800	-11.709000	20.841059	0.000464	20.805972
12.002918	-3.014300	3.888700	-11.721000	20.846818	0.000462	20.825956
13.003569	-2.981100	3.887100	-11.587000	20.852582	0.000461	20.808013
14.003560	-2.982500	3.885600	-11.588000	20.857669	0.000460	20.810255
15.003737	-3.004500	3.883600	-11.667000	20.861932	0.000461	20.834906
16.004645	-2.993000	3.883000	-11.621000	20.873740	0.000458	20.791240
17.003427	-2.979000	3.883400	-11.567000	20.875479	0.000459	20.810523
18.006758	-2.999500	3.882200	-11.644000	20.899709	0.000461	20.802038
19.004755	-2.995600	3.881000	-11.625000	20.905823	0.000457	20.813842
20.005979	-3.020900	3.878500	-11.715000	20.923780	0.000459	20.820422
21.006210	-3.016000	3.878900	-11.698000	20.901971	0.000457	20.817103
22.007427	-3.000700	3.879100	-11.639000	20.922482	0.000459	20.831450
23.004889	-3.007500	3.877900	-11.662000	20.912447	0.000456	20.810035
24.005455	-3.016300	3.877200	-11.694000	20.941115	0.000456	20.807413
25.005274	-2.997800	3.877700	-11.624000	20.952642	0.000457	20.806613
26.004536	-2.996100	3.875300	-11.610000	20.956958	0.000455	20.811878
27.005240	-3.001500	3.875700	-11.632000	20.969082	0.000453	20.813572
28.004379	-3.022500	3.873200	-11.706000	20.982208	0.000456	20.802519
29.003991	-3.015400	3.873400	-11.679000	20.995853	0.000454	20.808105
30.003706	-2.988300	3.874900	-11.578000	21.002515	0.000454	20.805285
31.004581	-2.993400	3.873900	-11.595000	20.996347	0.000453	20.814289
32.004807	-2.991600	3.873300	-11.586000	21.009576	0.000453	20.818037
33.004640	-2.997200	3.873700	-11.609000	21.010095	0.000452	20.807651
34.003955	-2.993600	3.872000	-11.590000	21.039689	0.000450	20.799793
35.001846	-2.976700	3.871100	-11.522000	21.023897	0.000452	20.810076
36.006331	-3.004700	3.870300	-11.629000	21.045901	0.000453	20.831610
37.003427	-2.993700	3.871700	-11.590000	21.041561	0.000451	20.793604
38.003706	-3.015700	3.869200	-11.667000	21.036054	0.000453	20.799002
39.005712	-3.014900	3.869700	-11.666000	21.057860	0.000450	20.808959
40.007603	-3.021400	3.867700	-11.685000	21.075326	0.000449	20.788022
41.008793	-3.007000	3.867500	-11.628000	21.069988	0.000449	20.794062
42.011307	-2.974100	3.869400	-11.507000	21.087581	0.000451	20.790797
43.009680	-2.977700	3.870400	-11.523000	21.093373	0.000450	20.798487
44.007407	-3.001300	3.867000	-11.605000	21.097891	0.000451	20.796842
45.009604	-3.004800	3.867800	-11.621000	21.099915	0.000448	20.794125
46.008847	-2.989100	3.867800	-11.560000	21.113765	0.000451	20.789013
47.013805	-2.982100	3.868500	-11.536000	21.118723	0.000449	20.809145
48.021039	-3.007600	3.866200	-11.627000	21.139086	0.000450	20.802487
49.007058	-2.982100	3.867600	-11.533000	21.145174	0.000448	20.799568
50.007297	-2.998400	3.865900	-11.590000	21.162341	0.000446	20.804887
51.010563	-2.982300	3.866000	-11.529000	21.166459	0.000449	20.797152
52.008611	-3.013500	3.864700	-11.646000	21.204906	0.000447	20.793887
53.008751	-2.995000	3.865900	-11.577000	21.176067	0.000447	20.802022
54.022067	-3.011100	3.864900	-11.636000	21.191442	0.000449	20.788478
55.007055	-2.996900	3.864700	-11.581000	21.212099	0.000447	20.804876
56.010190	-3.002300	3.863900	-11.600000	21.232505	0.000449	20.788779
57.011051	-2.992100	3.864100	-11.560000	21.228969	0.000446	20.781923
58.014629	-3.003400	3.864700	-11.606000	21.234060	0.000448	20.775161
59.010451	-3.002200	3.862900	-11.596000	21.228179	0.000448	20.765959
60.015381	-2.969700	3.864800	-11.477000	21.243222	0.000446	20.783379
61.010102	-3.000500	3.863200	-11.591000	21.270791	0.000447	20.799105
62.009867	-3.018500	3.862900	-11.659000	21.255501	0.000445	20.781437
63.013165	-2.985900	3.863900	-11.536000	21.278947	0.000447	20.768383
64.009417	-3.009800	3.862200	-11.623000	21.274419	0.000446	20.776181
65.011798	-3.014600	3.861500	-11.640000	21.286070	0.000447	20.784518
66.014125	-3.020600	3.861900	-11.665000	21.320915	0.000449	20.782395
67.009728	-3.016000	3.862100	-11.648000	21.307076	0.000445	20.801267
68.007662	-3.030600	3.861500	-11.701000	21.318525	0.000444	20.793754
69.013080	-3.025700	3.862200	-11.684000	21.338761	0.000447	20.759945
70.011175	-3.010600	3.862000	-11.625000	21.323723	0.000447	20.780462
71.012024	-2.955800	3.862100	-11.415000	21.360817	0.000447	20.769211
72.012640	-3.002500	3.860700	-11.591000	21.350272	0.000448	20.774307
73.010562	-3.020300	3.861600	-11.663000	21.355436	0.000447	20.788483
74.013565	-3.016100	3.861100	-11.644000	21.364795	0.000448	20.772242
75.016572	-3.011800	3.860900	-11.627000	21.361503	0.000448	20.784121
76.012805	-2.989800	3.860900	-11.541000	21.377838	0.000447	20.762058
77.011397	-2.995600	3.860900	-11.565000	21.388945	0.000447	20.769377
78.015306	-3.000100	3.860400	-11.581000	21.399692	0.000446	20.773966
79.012535	-3.006000	3.860400	-11.603000	21.430278	0.000449	20.769480
80.013412	-2.991000	3.859700	-11.543000	21.414116	0.000450	20.802622
81.017205	-3.015200	3.859100	-11.635000	21.430830	0.000449	20.752015
82.014359	-2.996000	3.860100	-11.565000	21.429083	0.000450	20.762121
83.012519	-2.983400	3.859500	-11.513000	21.447866	0.000449	20.760051
84.016487	-2.996900	3.858800	-11.563000	21.427913	0.000449	20.766166
85.014668	-3.000700	3.858300	-11.576000	21.462008	0.000450	20.766615
86.023088	-2.994500	3.859500	-11.556000	21.458868	0.000449	20.768689
87.016078	-2.977600	3.859000	-11.488000	21.451311	0.000448	20.767766
88.012723	-2.988200	3.859500	-11.531000	21.460039	0.000451	20.780766
89.014128	-2.999900	3.858500	-11.574000	21.490697	0.000447	20.782993
90.015345	-3.007200	3.859700	-11.606000	21.471737	0.000449	20.772083
91.012679	-3.016900	3.857200	-11.636000	21.510500	0.000448	20.769618
92.016026	-3.009700	3.858500	-11.612000	21.515940	0.000449	20.772690
93.017148	-3.001100	3.858400	-11.578000	21.497261	0.000452	20.771069
94.014529	-2.992700	3.858200	-11.545000	21.514972	0.000449	20.779308
95.013629	-3.003300	3.858300	-11.587000	21.531384	0.000451	20.763487
96.017763	-3.006200	3.858500	-11.598000	21.563206	0.000450	20.764984
97.013114	-3.008100	3.857100	-11.602000	21.555876	0.000451	20.763339
98.014736	-3.008100	3.856600	-11.599000	21.555876	0.000448	20.760020
99.020888	-3.004800	3.855800	-11.585000	21.561715	0.000450	20.754483
100.012843	-2.999100	3.857100	-11.567000	21.584764	0.000449	20.749573
101.015162	-2.979400	3.857600	-11.491000	21.583170	0.000451	20.755090
102.021211	-3.008700	3.856100	-11.602000	21.592819	0.000454	20.790825
103.015645	-2.990800	3.857100	-11.534000	21.634846	0.000453	20.777405
104.015670	-2.995500	3.856900	-11.552000	21.635196	0.000451	20.773962
105.021371	-2.989400	3.855700	-11.526000	21.613326	0.000453	20.766775
106.015040	-2.979400	3.855600	-11.486000	21.644030	0.000452	20.754827
107.015403	-2.999200	3.855600	-11.563000	21.662933	0.000453	20.750036
108.020004	-2.983600	3.856100	-11.504000	21.638398	0.000452	20.749665
109.015961	-3.008300	3.854800	-11.595000	21.657173	0.000450	20.745694
110.015040	-3.021400	3.853200	-11.640000	21.652839	0.000452	20.753685
111.019176	-3.005200	3.854400	-11.582000	21.651694	0.000451	20.747798
112.018308	-2.995600	3.854200	-11.545000	21.652543	0.000452	20.753863
113.021092	-2.997700	3.853700	-11.552000	21.688551	0.000453	20.752915
114.018083	-3.010500	3.853600	-11.600000	21.713494	0.000454	20.734728
115.018245	-2.999500	3.854100	-11.560000	21.712389	0.000452	20.766340
116.019420	-3.007600	3.853300	-11.588000	21.719727	0.000454	20.765623
117.019674	-3.011000	3.853000	-11.600000	21.720151	0.000453	20.751823
118.019922	-2.988800	3.854000	-11.518000	21.761748	0.000453	20.749358
119.019458	-3.015100	3.853200	-11.616000	21.753551	0.000453	20.758223
120.021287	-3.000100	3.853000	-11.559000	21.759858	0.000453	20.746517
121.022374	-2.988900	3.853100	-11.517000	21.746815	0.000455	20.750059
122.017731	-2.979700	3.852600	-11.478000	21.776217	0.000453	20.741079
123.020056	-2.981300	3.854100	-11.489000	21.774598	0.000456	20.734243
124.022243	-3.003200	3.853100	-11.570000	21.789087	0.000455	20.734519
125.020910	-2.994000	3.851600	-11.531000	21.787419	0.000455	20.750868
126.022822	-3.020800	3.850900	-11.632000	21.819386	0.000456	20.733076
127.019265	-3.003700	3.850900	-11.565000	21.813533	0.000456	20.726270
128.023726	-3.001400	3.851600	-11.559000	21.835300	0.000455	20.741419
129.021582	-3.012200	3.851700	-11.601000	21.817777	0.000456	20.750907
130.020334	-2.991900	3.852500	-11.526000	21.822139	0.000455	20.715442
131.022014	-2.992300	3.850900	-11.521000	21.833464	0.000458	20.744797
132.023401	-2.993900	3.851300	-11.530000	21.830474	0.000457	20.732794
133.021569	-2.975000	3.851000	-11.456000	21.826560	0.000456	20.719867
134.023592	-2.995900	3.850900	-11.537000	21.850898	0.000456	20.729529
135.027786	-2.988000	3.850700	-11.505000	21.867256	0.000457	20.752541
136.021667	-2.990900	3.851200	-11.518000	21.886954	0.000457	20.742860
137.022905	-2.995200	3.850500	-11.532000	21.900469	0.000456	20.730309
138.029487	-3.008600	3.849400	-11.581000	21.896980	0.000459	20.714013
139.024117	-2.999400	3.850900	-11.548000	21.881032	0.000458	20.724129
140.025638	-3.007300	3.849200	-11.575000	21.896447	0.000458	20.722014
141.025257	-3.001700	3.850500	-11.558000	21.901204	0.000459	20.718715
142.023341	-3.017400	3.848700	-11.612000	21.927113	0.000458	20.729478
143.024825	-3.020300	3.850000	-11.627000	21.915074	0.000458	20.699406
144.025627	-2.991600	3.849000	-11.513000	21.935126	0.000459	20.727067
145.024832	-3.018600	3.849000	-11.617000	21.954967	0.000459	20.731280
146.024051	-3.027600	3.847900	-11.649000	21.966542	0.000462	20.724375
147.025939	-3.033300	3.848100	-11.671000	21.987230	0.000462	20.734654
148.029952	-3.005300	3.847700	-11.563000	21.958494	0.000462	20.742872
149.026074	-3.016600	3.846800	-11.603000	21.982133	0.000461	20.734292
150.030095	-2.978900	3.849000	-11.464000	21.979789	0.000461	20.729575
151.028992	-2.986700	3.847600	-11.490000	22.002426	0.000462	20.715725
152.026200	-3.003000	3.847200	-11.553000	21.990091	0.000464	20.736569
153.026863	-2.984400	3.846900	-11.479000	21.996224	0.000460	20.731803
154.033442	-3.015600	3.847700	-11.602000	22.029083	0.000463	20.724868
155.031090	-2.993300	3.847000	-11.515000	22.025995	0.000462	20.715137
156.031921	-2.992100	3.846200	-11.507000	22.046041	0.000463	20.712919
157.030570	-2.983000	3.847400	-11.476000	22.052153	0.000464	20.712874
158.032658	-3.027900	3.844700	-11.640000	22.056717	0.000462	20.720762
159.032163	-3.019900	3.846300	-11.615000	22.077956	0.000461	20.708834
160.032163	-2.998700	3.846700	-11.533000	22.065972	0.000462	20.714855
161.035369	-2.991800	3.846800	-11.508000	22.077862	0.000466	20.708265
162.034410	-2.980900	3.846300	-11.464000	22.090250	0.000463	20.709288
163.036465	-2.977000	3.847000	-11.452000	22.095440	0.000464	20.729658
164.033166	-2.989200	3.846100	-11.496000	22.098410	0.000465	20.699438
165.033791	-2.990300	3.846100	-11.500000	22.079613	0.000463	20.712390
166.038099	-3.019700	3.844600	-11.609000	22.112796	0.000466	20.700090
167.040471	-3.006500	3.843700	-11.556000	22.108464	0.000465	20.716617
168.037226	-2.972200	3.845300	-11.427000	22.121429	0.000465	20.705889
169.037349	-2.990700	3.844900	-11.499000	22.129781	0.000465	20.706664
170.037617	-2.993000	3.844500	-11.506000	22.132870	0.000467	20.726827
171.039176	-3.003400	3.845300	-11.547000	22.129658	0.000466	20.695160
172.043984	-2.996600	3.844600	-11.519000	22.129371	0.000467	20.696296
173.037964	-2.996100	3.843200	-11.514000	22.153623	0.000465	20.714414
174.037023	-2.983500	3.844200	-11.468000	22.170525	0.000468	20.711894
175.043613	-3.005100	3.842900	-11.548000	22.175862	0.000469	20.693529
176.043924	-3.003100	3.842700	-11.540000	22.194608	0.000465	20.699970
177.043015	-2.997400	3.842700	-11.517000	22.183346	0.000470	20.706238
178.046985	-3.017800	3.842800	-11.596000	22.201120	0.000467	20.710284
179.043331	-3.012200	3.843200	-11.576000	22.206807	0.000469	20.698434
180.042099	-3.000500	3.842200	-11.528000	22.205387	0.000468	20.694640
181.045640	-2.997800	3.840800	-11.513000	22.208341	0.000469	20.710876
182.047488	-2.991800	3.843200	-11.497000	22.233958	0.000467	20.699540
183.043965	-2.995300	3.843600	-11.512000	22.248495	0.000470	20.700345
184.051336	-3.026300	3.839700	-11.619000	22.239202	0.000473	20.722335
185.045694	-2.998200	3.841300	-11.515000	22.228610	0.000472	20.716472
186.046748	-3.032100	3.841200	-11.646000	22.216974	0.000471	20.697233
187.047098	-3.001100	3.841200	-11.527000	22.258824	0.000471	20.697885
188.047757	-3.021800	3.841300	-11.607000	22.231955	0.000471	20.698957
189.046352	-3.010200	3.840800	-11.560000	22.228867	0.000473	20.708668
190.045836	-3.009300	3.840200	-11.556000	22.284948	0.000474	20.715509
191.046887	-3.004800	3.840300	-11.539000	22.312640	0.000474	20.714787
192.045374	-3.013000	3.839700	-11.568000	22.311273	0.000472	20.704409
193.052299	-3.022600	3.839500	-11.604000	22.333312	0.000474	20.728850
194.047581	-2.995300	3.839900	-11.501000	22.331541	0.000475	20.723283
195.050771	-2.989300	3.840300	-11.478000	22.319974	0.000473	20.708855
196.051863	-3.011900	3.838600	-11.561000	22.325464	0.000475	20.732846
197.046896	-2.993900	3.839000	-11.493000	22.325666	0.000474	20.707916
198.052273	-2.998400	3.839600	-11.511000	22.351088	0.000474	20.707768
199.053338	-3.019900	3.837600	-11.588000	22.347601	0.000476	20.715182
200.046769	-3.007300	3.837900	-11.541000	22.325745	0.000475	20.704202
201.049304	-2.983500	3.839400	-11.454000	22.342446	0.000476	20.694372
202.050632	-2.998000	3.837500	-11.505000	22.370684	0.000475	20.717909
203.048439	-2.987300	3.838300	-11.465000	22.401037	0.000477	20.726019
204.051636	-3.028200	3.838400	-11.623000	22.390719	0.000477	20.726592
205.052348	-3.001600	3.837300	-11.516000	22.406877	0.000476	20.701993
206.051158	-3.002200	3.837900	-11.521000	22.449091	0.000476	20.722932
207.050455	-3.008200	3.836000	-11.539000	22.428761	0.000476	20.721065
208.052509	-2.992000	3.838200	-11.483000	22.416302	0.000477	20.714752
209.050320	-3.018500	3.836800	-11.581000	22.424973	0.000479	20.719642
210.058940	-3.020900	3.836200	-11.587000	22.431079	0.000476	20.717222
211.052168	-2.997600	3.837100	-11.501000	22.430339	0.000478	20.700832
212.054403	-2.992900	3.836300	-11.480000	22.408485	0.000479	20.712613
213.050732	-3.004800	3.836900	-11.528000	22.416810	0.000480	20.725218
214.052869	-3.025300	3.834900	-11.600000	22.415488	0.000480	20.733378
215.053660	-3.004700	3.835800	-11.524000	22.457904	0.000481	20.707575
216.050653	-2.992100	3.836300	-11.479000	22.462786	0.000480	20.712465
217.059255	-3.012400	3.835300	-11.553000	22.472186	0.000484	20.717612
218.056480	-3.003600	3.835600	-11.520000	22.474825	0.000480	20.728315
219.054932	-2.995600	3.834700	-11.486000	22.476176	0.000481	20.701218
220.060750	-3.011400	3.835400	-11.549000	22.509964	0.000483	20.727471
221.056621	-2.996000	3.834500	-11.487000	22.511088	0.000483	20.733339
222.057635	-2.997100	3.834700	-11.493000	22.510960	0.000485	20.716140
223.059374	-3.005300	3.833500	-11.519000	22.522574	0.000484	20.728720
224.055042	-3.008500	3.834200	-11.535000	22.537029	0.000482	20.700521
225.056107	-3.001300	3.833400	-11.504000	22.539574	0.000484	20.721089
226.059329	-3.003200	3.833100	-11.511000	22.568724	0.000486	20.712825
227.074586	-3.031700	3.831700	-11.616000	22.541936	0.000486	20.708281
228.060738	-2.987900	3.834100	-11.455000	22.544648	0.000487	20.716688
229.062207	-3.003500	3.832100	-11.509000	22.559280	0.000487	20.711902
230.059762	-3.029200	3.831600	-11.606000	22.552652	0.000487	20.710479
231.061100	-2.988300	3.831700	-11.449000	22.593810	0.000487	20.724201
232.064378	-3.009800	3.832900	-11.535000	22.586812	0.000487	20.716718
233.062569	-2.987900	3.833000	-11.452000	22.614147	0.000489	20.736035
234.056954	-3.003500	3.832700	-11.510000	22.650894	0.000489	20.728271
235.059622	-3.005500	3.832100	-11.515000	22.636914	0.000489	20.724226
236.058172	-3.015100	3.830000	-11.547000	22.630134	0.000487	20.725969
237.060755	-3.014900	3.830400	-11.548000	22.627989	0.000489	20.712914
238.061922	-3.023400	3.830000	-11.579000	22.644138	0.000488	20.730988
239.059141	-3.019800	3.830600	-11.566000	22.633423	0.000490	20.713141
240.061816	-3.016400	3.830600	-11.553000	22.637679	0.000489	20.730681
241.060879	-2.988300	3.831000	-11.447000	22.655564	0.000490	20.713033
242.063093	-2.996200	3.829900	-11.474000	22.703897	0.000490	20.723514
243.060045	-3.003000	3.829700	-11.500000	22.687778	0.000491	20.741034
244.064063	-2.990300	3.829100	-11.449000	22.696545	0.000491	20.740807
245.060877	-2.998700	3.829000	-11.480000	22.711338	0.000490	20.739978
246.063143	-2.987800	3.830500	-11.444000	22.696619	0.000490	20.739933
247.064918	-2.998800	3.829400	-11.483000	22.698557	0.000494	20.749461
248.060967	-2.994100	3.829500	-11.465000	22.698030	0.000492	20.730914
249.063643	-3.027800	3.827500	-11.587000	22.708094	0.000493	20.736728
250.061906	-3.008100	3.827800	-11.512000	22.699618	0.000494	20.737246
251.060560	-3.004900	3.829300	-11.506000	22.731155	0.000492	20.747500
252.059054	-3.014600	3.828600	-11.541000	22.755818	0.000492	20.747550
253.064314	-2.988500	3.828800	-11.441000	22.775398	0.000491	20.745826
254.062891	-2.994000	3.828200	-11.461000	22.773204	0.000492	20.747896
255.063519	-2.984300	3.829000	-11.426000	22.764580	0.000493	20.738783
256.064506	-2.995600	3.827000	-11.463000	22.774121	0.000493	20.725580
257.062742	-2.976500	3.827800	-11.393000	22.781995	0.000492	20.733468
258.064653	-3.004400	3.827800	-11.499000	22.785308	0.000492	20.724458
259.063647	-3.012500	3.826600	-11.525000	22.774146	0.000495	20.727501
260.064538	-2.991100	3.826100	-11.443000	22.792956	0.000494	20.744448
261.062547	-2.995000	3.826000	-11.458000	22.804759	0.000496	20.750583
262.066473	-2.997300	3.826500	-11.468000	22.811287	0.000495	20.754277
263.063576	-3.015500	3.825700	-11.535000	22.829347	0.000496	20.731591
264.068787	-3.024000	3.824000	-11.562000	22.851814	0.000494	20.753626
265.067533	-3.003000	3.824900	-11.485000	22.861951	0.000496	20.754771
266.065397	-2.986900	3.825000	-11.424000	22.875425	0.000497	20.759261
267.067746	-3.005500	3.824200	-11.493000	22.864712	0.000496	20.752796
268.066120	-2.997200	3.824200	-11.462000	22.863489	0.000496	20.745407
269.065994	-3.001400	3.825600	-11.481000	22.859777	0.000498	20.773457
270.063281	-3.022600	3.823600	-11.556000	22.850779	0.000498	20.767762
271.065618	-2.959100	3.825800	-11.320000	22.871530	0.000497	20.756308
272.064446	-2.997000	3.823700	-11.459000	22.847486	0.000499	20.762092
273.066831	-3.008400	3.823500	-11.502000	22.876110	0.000498	20.754258
274.065948	-3.011700	3.822600	-11.511000	22.894465	0.000498	20.768854
275.066662	-2.994100	3.823200	-11.446000	22.885468	0.000500	20.755572
276.071545	-3.010300	3.822700	-11.506000	22.873335	0.000500	20.757168
277.068171	-2.972300	3.823600	-11.364000	22.894732	0.000501	20.755370
278.069090	-2.997600	3.822200	-11.457000	22.919963	0.000500	20.754096
279.066374	-3.003500	3.821300	-11.477000	22.956001	0.000500	20.773606
280.068592	-2.997100	3.821700	-11.453000	22.968355	0.000502	20.759904
281.066890	-3.013900	3.822100	-11.519000	22.970420	0.000503	20.774302
282.069796	-2.985600	3.821300	-11.408000	22.962143	0.000501	20.775967
283.069733	-2.995200	3.821000	-11.443000	22.946945	0.000501	20.782077
284.068441	-2.976200	3.821600	-11.373000	22.978678	0.000503	20.763609
285.067422	-2.994300	3.820500	-11.439000	22.991179	0.000503	20.777558
286.068064	-3.002400	3.820900	-11.471000	22.989681	0.000503	20.798342
287.067647	-3.002600	3.820500	-11.471000	22.990701	0.000504	20.763802
288.066270	-3.000400	3.820500	-11.462000	23.003129	0.000502	20.765348
289.068253	-3.010000	3.820400	-11.499000	23.003252	0.000504	20.769265
290.066868	-3.018500	3.819500	-11.529000	23.021777	0.000503	20.778343
291.070408	-2.979100	3.821700	-11.383000	22.993906	0.000503	20.776970
292.070323	-2.981100	3.820100	-11.388000	23.007802	0.000504	20.776669
293.069862	-3.017800	3.818600	-11.522000	23.029921	0.000505	20.789822
294.070652	-2.991400	3.819200	-11.423000	23.059256	0.000505	20.779386
295.071516	-2.973900	3.819700	-11.358000	23.054124	0.000506	20.790366
296.069882	-3.001100	3.818300	-11.458000	23.077691	0.000505	20.779840
297.068946	-2.997300	3.818200	-11.443000	23.085529	0.000506	20.772046
298.071511	-2.996600	3.819000	-11.443000	23.050265	0.000506	20.801197
299.070987	-3.006500	3.818000	-11.478000	23.067522	0.000507	20.783876
300.071653	-3.000300	3.820000	-11.460000	23.044537	0.000506	20.791190
301.072629	-3.029600	3.817200	-11.563000	23.054696	0.000507	20.786197
302.072080	-3.010300	3.817900	-11.492000	23.064136	0.000508	20.765783
303.073990	-3.015800	3.815900	-11.507000	23.072900	0.000507	20.782152
304.074056	-3.015100	3.818400	-11.512000	23.104679	0.000507	20.777484
305.074063	-2.992000	3.817800	-11.422000	23.099453	0.000509	20.790741
306.073643	-3.007800	3.817200	-11.481000	23.112925	0.000509	20.788118
307.073669	-2.980300	3.816700	-11.374000	23.135633	0.000508	20.791907
308.075095	-3.013100	3.816300	-11.497000	23.139024	0.000510	20.787244
309.075426	-3.008200	3.814500	-11.474000	23.160741	0.000510	20.795730
310.078346	-3.011900	3.815700	-11.492000	23.179618	0.000510	20.808008
311.078070	-3.012400	3.814400	-11.489000	23.168587	0.000509	20.792213
312.076626	-2.996500	3.815100	-11.431000	23.156359	0.000511	20.780907
313.077063	-3.025100	3.813200	-11.534000	23.169307	0.000510	20.791512
314.083213	-2.998000	3.815000	-11.437000	23.157005	0.000510	20.793882
315.077131	-3.019200	3.815100	-11.517000	23.141838	0.000510	20.791961
316.079414	-3.000200	3.813800	-11.441000	23.190003	0.000509	20.807983
317.083663	-3.005600	3.814200	-11.463000	23.208826	0.000512	20.790810
318.078147	-3.006500	3.812100	-11.460000	23.232537	0.000512	20.803192
319.079191	-2.999000	3.814700	-11.440000	23.217865	0.000512	20.800343
320.082575	-2.995200	3.813400	-11.421000	23.238037	0.000513	20.808230
321.080251	-2.992600	3.813400	-11.411000	23.265627	0.000513	20.790835
322.083591	-2.978600	3.813300	-11.357000	23.275212	0.000512	20.815614
323.087022	-3.007600	3.811700	-11.463000	23.243611	0.000513	20.790583
324.081638	-2.988300	3.813200	-11.394000	23.203370	0.000513	20.806206
325.085072	-3.021700	3.811700	-11.517000	23.233001	0.000515	20.816933
326.082381	-2.976000	3.812800	-11.346000	23.228574	0.000513	20.806334
327.083331	-2.984400	3.813300	-11.379000	23.219407	0.000513	20.804260
328.084039	-2.987000	3.810600	-11.382000	23.253296	0.000513	20.813091
329.084033	-2.995700	3.811700	-11.418000	23.283872	0.000515	20.802956
330.086228	-2.991700	3.812300	-11.405000	23.273069	0.000515	20.816785
331.085949	-2.999800	3.811400	-11.432000	23.283975	0.000514	20.776507
332.087670	-3.008100	3.811200	-11.464000	23.274537	0.000515	20.782695
333.085660	-2.994800	3.811300	-11.413000	23.275311	0.000515	20.818084
334.087204	-3.000500	3.809700	-11.430000	23.266618	0.000517	20.816484
335.087134	-3.023600	3.809000	-11.516000	23.270732	0.000515	20.814444
336.087366	-2.987700	3.811300	-11.386000	23.265770	0.000516	20.831281
337.089923	-2.992300	3.808800	-11.396000	23.282856	0.000516	20.811421
338.087966	-3.009800	3.808100	-11.461000	23.299341	0.000517	20.820356
339.088743	-3.000200	3.808500	-11.426000	23.319133	0.000518	20.820751
340.088519	-2.971000	3.809000	-11.315000	23.327501	0.000518	20.820129
341.089058	-3.007900	3.807400	-11.451000	23.344754	0.000518	20.813713
342.090487	-3.005000	3.808000	-11.442000	23.356956	0.000518	20.815037
343.089913	-2.999100	3.809400	-11.423000	23.382079	0.000518	20.817457
344.089472	-3.003200	3.807000	-11.432000	23.370528	0.000519	20.810147
345.093576	-3.007500	3.808000	-11.451000	23.387854	0.000518	20.823720
346.090057	-3.006100	3.807400	-11.445000	23.388204	0.000516	20.836398
347.091778	-3.006200	3.807000	-11.444000	23.393910	0.000519	20.834531
348.090835	-2.991400	3.806000	-11.384000	23.378299	0.000519	20.823151
349.092731	-3.011800	3.806200	-11.463000	23.385144	0.000519	20.827641
350.092800	-2.990800	3.807000	-11.385000	23.402425	0.000518	20.814617
351.090202	-2.994600	3.806200	-11.397000	23.386740	0.000519	20.832560
352.092562	-2.991900	3.805600	-11.385000	23.389386	0.000519	20.843272
353.097761	-2.996300	3.806100	-11.404000	23.400691	0.000519	20.829947
354.089037	-3.003100	3.805600	-11.428000	23.455191	0.000520	20.824830
355.091279	-2.981600	3.804500	-11.343000	23.470131	0.000519	20.816572
356.093116	-3.010200	3.804200	-11.450000	23.499010	0.000521	20.831769
357.093957	-3.020100	3.804400	-11.489000	23.476881	0.000522	20.851787
358.093482	-3.016800	3.803600	-11.474000	23.472698	0.000521	20.821990
359.099764	-2.990400	3.804300	-11.376000	23.463912	0.000521	20.839262
360.091668	-2.993800	3.804300	-11.388000	23.504642	0.000522	20.835518
361.092721	-3.011800	3.802500	-11.451000	23.504046	0.000521	20.849618
362.098899	-3.005100	3.803100	-11.427000	23.555609	0.000520	20.829709
363.094667	-3.020500	3.802400	-11.484000	23.543858	0.000522	20.838792
364.093428	-2.993400	3.804100	-11.387000	23.541443	0.000521	20.849174
365.095919	-2.991700	3.802900	-11.376000	23.594123	0.000522	20.821377
366.091875	-3.002300	3.802400	-11.416000	23.562610	0.000522	20.824874
367.092687	-2.990600	3.802800	-11.371000	23.572494	0.000522	20.849006
368.093521	-3.008600	3.801700	-11.437000	23.579840	0.000523	20.849257
369.092427	-2.994300	3.801800	-11.382000	23.582756	0.000525	20.838431
370.099720	-3.022600	3.801400	-11.488000	23.533289	0.000524	20.825827
371.096250	-2.998500	3.802100	-11.399000	23.555845	0.000524	20.836584
372.092898	-2.981200	3.801500	-11.332000	23.538546	0.000524	20.852433
373.094557	-2.997600	3.799900	-11.390000	23.532776	0.000525	20.842382
374.095718	-2.994100	3.798800	-11.373000	23.532347	0.000523	20.827254
375.093400	-2.980000	3.801000	-11.325000	23.527725	0.000524	20.827363
376.095406	-2.986000	3.800500	-11.347000	23.542734	0.000526	20.835295
377.097592	-2.996800	3.799900	-11.386000	23.576050	0.000524	20.843088
378.096417	-2.982000	3.800300	-11.332000	23.611421	0.000523	20.863846
379.094755	-3.014800	3.799500	-11.454000	23.604080	0.000525	20.853168
380.096646	-2.974300	3.799200	-11.299000	23.623748	0.000525	20.820729
381.102859	-2.986000	3.798900	-11.343000	23.647997	0.000523	20.843142
382.097044	-3.014900	3.797900	-11.449000	23.638390	0.000524	20.851528
383.096192	-2.977800	3.799000	-11.311000	23.631896	0.000527	20.851657
384.095845	-2.998500	3.799100	-11.390000	23.638818	0.000528	20.838208
385.097016	-3.017300	3.797800	-11.458000	23.601680	0.000526	20.850289
386.097355	-2.989800	3.798900	-11.357000	23.614081	0.000528	20.856556
387.097168	-2.994700	3.797300	-11.370000	23.597551	0.000526	20.835245
388.100315	-3.003500	3.797300	-11.404000	23.611671	0.000527	20.858882
389.096887	-3.012900	3.797000	-11.439000	23.625565	0.000528	20.833931
390.097037	-2.964700	3.796200	-11.253000	23.640325	0.000527	20.856314
391.098299	-2.989100	3.797300	-11.349000	23.655140	0.000526	20.852200
392.099714	-2.989400	3.795200	-11.344000	23.661170	0.000528	20.835960
393.097287	-2.982700	3.797200	-11.325000	23.677669	0.000528	20.846337
394.098151	-3.009900	3.795700	-11.423000	23.699257	0.000527	20.853755
395.101088	-2.987400	3.795400	-11.337000	23.708169	0.000528	20.859845
396.100201	-2.990000	3.794800	-11.346000	23.717209	0.000528	20.860847
397.098783	-3.017400	3.794000	-11.446000	23.717460	0.000528	20.853987
398.097774	-3.006000	3.794300	-11.405000	23.749353	0.000528	20.862729
399.100675	-3.012200	3.793300	-11.426000	23.767944	0.000529	20.861454
400.104825	-2.995400	3.795500	-11.368000	23.740244	0.000529	20.868295
401.100957	-3.020200	3.792700	-11.453000	23.712647	0.000528	20.854851
402.102663	-3.009000	3.793300	-11.413000	23.708292	0.000529	20.856649
403.100927	-2.998900	3.793500	-11.376000	23.711779	0.000529	20.860145
404.100915	-3.012900	3.794100	-11.431000	23.715435	0.000530	20.860965
405.099560	-2.993800	3.793700	-11.355000	23.761914	0.000528	20.849245
406.102315	-3.015500	3.792700	-11.435000	23.745884	0.000532	20.870156
407.100818	-3.020000	3.792100	-11.451000	23.745067	0.000531	20.879293
408.102166	-3.011800	3.791500	-11.418000	23.720080	0.000533	20.880320
409.102596	-3.012000	3.791500	-11.419000	23.705321	0.000531	20.865998
410.101145	-3.000500	3.792200	-11.378000	23.738780	0.000531	20.852603
411.102671	-3.004800	3.791100	-11.391000	23.740697	0.000532	20.857369
412.102951	-3.007500	3.791500	-11.402000	23.750530	0.000531	20.862960
413.104018	-3.024800	3.790000	-11.463000	23.753668	0.000533	20.883649
414.104312	-3.012400	3.790200	-11.417000	23.788466	0.000534	20.879658
415.105299	-2.977200	3.789400	-11.281000	23.826869	0.000534	20.857473
416.104172	-3.028500	3.788300	-11.472000	23.837100	0.000534	20.857774
417.105726	-3.009000	3.788300	-11.398000	23.851315	0.000534	20.856381
418.104584	-2.997700	3.789900	-11.360000	23.853975	0.000535	20.866635
419.108319	-3.024200	3.789000	-11.457000	23.831903	0.000534	20.852564
420.105493	-2.988700	3.790500	-11.328000	23.834765	0.000536	20.877717
421.106170	-3.021400	3.788200	-11.445000	23.838799	0.000537	20.867064
422.104843	-2.988300	3.789200	-11.323000	23.851015	0.000534	20.862244
423.110797	-3.023100	3.787600	-11.450000	23.837548	0.000534	20.858698
424.107445	-3.014500	3.787300	-11.416000	23.810992	0.000534	20.850089
425.106918	-2.992100	3.787700	-11.332000	23.825878	0.000535	20.838463
426.108378	-3.017900	3.786600	-11.427000	23.830854	0.000534	20.846770
427.105974	-3.002800	3.786600	-11.370000	23.823534	0.000536	20.835164
428.108959	-2.995300	3.787200	-11.343000	23.829356	0.000536	20.849062
429.108834	-2.998300	3.787000	-11.353000	23.804121	0.000537	20.828501
430.108096	-3.012100	3.786400	-11.404000	23.825824	0.000536	20.849314
431.113116	-3.010600	3.787400	-11.401000	23.806037	0.000536	20.857448
432.109056	-2.970700	3.786200	-11.247000	23.817130	0.000536	20.844864
433.107255	-2.998000	3.786300	-11.350000	23.870171	0.000537	20.830719
434.111720	-3.006500	3.785600	-11.381000	23.870817	0.000537	20.851280
435.113082	-3.025700	3.784400	-11.449000	23.873550	0.000537	20.839323
436.109974	-2.975000	3.784900	-11.260000	23.873403	0.000538	20.833959
437.114296	-3.001400	3.785200	-11.360000	23.882062	0.000536	20.839323
438.111577	-3.004000	3.784000	-11.366000	23.892223	0.000537	20.843348
439.114619	-2.995800	3.785100	-11.339000	23.855764	0.000538	20.836186
440.113648	-2.997600	3.783400	-11.340000	23.885796	0.000537	20.838799
441.115596	-3.012800	3.784400	-11.400000	23.858246	0.000537	20.836779
442.110299	-3.002200	3.782600	-11.355000	23.869398	0.000536	20.830418
443.115819	-3.006800	3.783100	-11.374000	23.873654	0.000537	20.823780
444.112519	-3.014400	3.780800	-11.396000	23.846897	0.000537	20.838202
445.113029	-3.006800	3.782800	-11.373000	23.871664	0.000535	20.828422
446.116380	-2.999100	3.782700	-11.344000	23.880047	0.000536	20.843941
447.114608	-3.003500	3.782000	-11.359000	23.891100	0.000536	20.830843
448.114597	-3.010000	3.781600	-11.382000	23.931322	0.000536	20.830872
449.118216	-3.017400	3.782400	-11.412000	23.994311	0.000539	20.824338
450.116418	-3.006900	3.779900	-11.364000	23.987392	0.000539	20.812183
451.114981	-3.024200	3.780300	-11.432000	24.041493	0.000537	20.821394
452.118847	-2.986400	3.781300	-11.292000	23.994292	0.000538	20.834275
453.120261	-3.011900	3.780200	-11.385000	23.993563	0.000538	20.806044
454.115802	-2.987400	3.780300	-11.293000	23.989987	0.000538	20.832803
455.113834	-2.993000	3.779500	-11.311000	23.938247	0.000536	20.847773
456.115932	-2.985800	3.780300	-11.286000	23.916004	0.000539	20.847279
457.116935	-2.999300	3.777800	-11.329000	23.940572	0.000538	20.821656
458.121533	-2.999600	3.778900	-11.334000	23.964859	0.000539	20.826096
459.120998	-3.006200	3.778900	-11.360000	23.994745	0.000539	20.820979
460.115341	-2.991300	3.778000	-11.300000	23.988106	0.000539	20.833761
461.117103	-2.997400	3.778200	-11.324000	23.999630	0.000539	20.836310
462.119998	-2.982200	3.778800	-11.268000	24.029988	0.000538	20.816969
463.119151	-2.993000	3.778100	-11.307000	24.055426	0.000540	20.824461
464.117475	-3.003200	3.777600	-11.344000	24.063483	0.000540	20.802670
465.120175	-3.014900	3.776700	-11.385000	24.054352	0.000539	20.810108
466.117075	-2.998000	3.776700	-11.322000	24.092475	0.000540	20.820367
467.117805	-2.998800	3.776700	-11.324000	24.068939	0.000538	20.784435
468.121759	-3.000900	3.776800	-11.333000	24.099689	0.000540	20.821438
469.117533	-3.009200	3.776900	-11.364000	24.110238	0.000540	20.797879
470.118356	-3.017700	3.776100	-11.395000	24.130626	0.000539	20.809792
471.120343	-3.005700	3.776800	-11.351000	24.111632	0.000540	20.812553
472.119649	-2.987700	3.775700	-11.280000	24.074559	0.000541	20.822313
473.120807	-2.977500	3.776200	-11.243000	24.059902	0.000540	20.833218
474.120139	-3.004000	3.775800	-11.341000	24.058834	0.000541	20.821241
475.118360	-2.996000	3.774900	-11.308000	24.088693	0.000539	20.811358
476.118130	-3.006900	3.774100	-11.346000	24.093199	0.000540	20.796911
477.121509	-2.998500	3.773900	-11.315000	24.106682	0.000540	20.806167
478.120623	-3.003600	3.775200	-11.338000	24.078095	0.000539	20.810212
479.120163	-2.995500	3.774100	-11.304000	24.030939	0.000538	20.810810
480.124408	-3.003400	3.774300	-11.334000	24.058341	0.000539	20.793246
481.122397	-3.004500	3.773000	-11.335000	24.031515	0.000538	20.813758
482.121954	-2.975300	3.773500	-11.226000	24.038233	0.000539	20.814331
483.125805	-3.011600	3.772600	-11.361000	24.059385	0.000540	20.817527
484.123802	-2.993400	3.773400	-11.294000	24.079744	0.000539	20.791952
485.122634	-2.997900	3.772000	-11.307000	24.085147	0.000540	20.811595
486.124918	-2.992400	3.772000	-11.285000	24.076656	0.000540	20.809718
487.121826	-2.987700	3.771400	-11.267000	24.083925	0.000541	20.794723
488.123527	-2.997200	3.772300	-11.306000	24.126750	0.000540	20.799741
489.126598	-2.997600	3.771600	-11.304000	24.123746	0.000539	20.798625
490.125928	-3.007400	3.771000	-11.339000	24.145562	0.000540	20.791108
491.126486	-3.000500	3.769900	-11.310000	24.163132	0.000540	20.803515
492.128260	-3.022000	3.770900	-11.394000	24.191796	0.000539	20.796704
493.124038	-2.989600	3.769000	-11.267000	24.187842	0.000539	20.782780
494.124099	-2.985500	3.771400	-11.258000	24.161443	0.000542	20.798976
495.129105	-3.032100	3.768000	-11.424000	24.177142	0.000541	20.800497
496.126530	-2.983900	3.769500	-11.247000	24.206082	0.000541	20.785428
497.126747	-2.989300	3.769600	-11.268000	24.164998	0.000540	20.793058
498.128421	-3.015400	3.767800	-11.361000	24.155898	0.000540	20.790569
499.131105	-2.983800	3.769100	-11.245000	24.160000	0.000541	20.796106
500.127847	-2.988600	3.769000	-11.263000	24.166702	0.000540	20.803302
501.127283	-2.990600	3.768900	-11.270000	24.172222	0.000541	20.787028
502.128757	-2.990500	3.768000	-11.267000	24.160704	0.000540	20.785432
503.129003	-2.967800	3.768900	-11.185000	24.167071	0.000541	20.803198
504.128632	-2.999200	3.766300	-11.295000	24.166175	0.000541	20.782859
505.127460	-2.980900	3.767300	-11.229000	24.200384	0.000539	20.787299
506.128881	-3.013000	3.766300	-11.347000	24.209440	0.000543	20.797805
507.128395	-3.009600	3.766500	-11.335000	24.202625	0.000539	20.783857
508.135187	-3.001800	3.765200	-11.301000	24.213571	0.000541	20.781560
509.129739	-3.001300	3.766200	-11.302000	24.261290	0.000541	20.779639
510.129297	-2.997700	3.765700	-11.288000	24.269548	0.000541	20.771800
511.131077	-2.993900	3.766400	-11.275000	24.198469	0.000541	20.786801
512.133154	-2.995200	3.764900	-11.275000	24.177216	0.000541	20.785398
513.132110	-2.973800	3.765600	-11.197000	24.197942	0.000540	20.782005
514.131992	-3.000100	3.766600	-11.300000	24.198838	0.000540	20.782904
515.135351	-2.977900	3.764700	-11.210000	24.183785	0.000540	20.782029
516.130923	-3.008600	3.763800	-11.323000	24.214413	0.000543	20.778137
517.132708	-2.996500	3.764200	-11.277000	24.261339	0.000544	20.785378
518.136250	-3.000600	3.763300	-11.291000	24.285496	0.000541	20.793962
519.137985	-2.996400	3.763000	-11.274000	24.303680	0.000543	20.794185
520.134690	-2.990100	3.763700	-11.252000	24.280173	0.000543	20.779614
521.134550	-3.003200	3.763200	-11.301000	24.320051	0.000543	20.791167
522.137269	-3.006400	3.762100	-11.309000	24.330977	0.000543	20.767513
523.136520	-2.996200	3.762800	-11.272000	24.317161	0.000541	20.797751
524.136164	-3.000300	3.761600	-11.285000	24.286264	0.000542	20.790465
525.137483	-2.964400	3.763000	-11.154000	24.273851	0.000543	20.778014
526.137483	-2.976300	3.762900	-11.198000	24.304753	0.000542	20.777243
527.138381	-2.985900	3.761500	-11.230000	24.336220	0.000542	20.786524
528.143434	-3.002800	3.759900	-11.289000	24.342690	0.000543	20.782108
529.136810	-2.994600	3.761800	-11.265000	24.349730	0.000541	20.796284
530.138299	-3.003700	3.760400	-11.293000	24.306265	0.000543	20.770699
531.141095	-2.984600	3.760700	-11.224000	24.339573	0.000542	20.782301
532.139121	-2.993400	3.760300	-11.255000	24.343581	0.000541	20.783951
533.138836	-3.006100	3.759700	-11.301000	24.354452	0.000543	20.782528
534.139189	-2.981800	3.760200	-11.212000	24.307633	0.000543	20.788668
535.138275	-2.996300	3.759500	-11.264000	24.321041	0.000541	20.771771
536.138263	-2.988200	3.759300	-11.232000	24.333005	0.000540	20.772393
537.141795	-2.993400	3.759300	-11.252000	24.291557	0.000542	20.762110
538.143598	-3.006300	3.757600	-11.294000	24.312478	0.000542	20.790209
539.139873	-3.015200	3.758200	-11.331000	24.342788	0.000541	20.787897
540.144125	-2.990200	3.759100	-11.240000	24.317732	0.000543	20.772719
541.141989	-2.996300	3.757400	-11.257000	24.337756	0.000542	20.780479
542.145612	-3.012000	3.757900	-11.317000	24.364171	0.000544	20.769518
543.144721	-2.998600	3.758200	-11.268000	24.389300	0.000541	20.783822
544.144225	-2.993300	3.758300	-11.249000	24.344945	0.000542	20.758292
545.142703	-2.996400	3.756900	-11.256000	24.300592	0.000541	20.783975
546.149089	-3.008700	3.755200	-11.297000	24.276830	0.000542	20.750655
547.143908	-3.012600	3.756500	-11.316000	24.276087	0.000542	20.765557
548.145161	-3.017900	3.754800	-11.331000	24.309623	0.000543	20.772645
549.146576	-3.005300	3.755400	-11.286000	24.313104	0.000543	20.781353
550.147500	-3.011700	3.754300	-11.306000	24.344196	0.000543	20.764179
551.147230	-3.003000	3.755400	-11.277000	24.328426	0.000540	20.772541
552.146048	-3.003500	3.754600	-11.276000	24.299844	0.000543	20.773267
553.145998	-3.002700	3.753900	-11.271000	24.311110	0.000545	20.767972
554.144932	-3.000600	3.754300	-11.264000	24.350390	0.000542	20.752374
555.144303	-2.988200	3.755100	-11.220000	24.420120	0.000543	20.763532
556.144470	-2.995500	3.753900	-11.243000	24.445666	0.000542	20.755970
557.144962	-3.006400	3.754100	-11.286000	24.422503	0.000542	20.741740
558.148229	-2.993700	3.753800	-11.237000	24.402460	0.000544	20.758618
559.145426	-2.981000	3.752800	-11.185000	24.394696	0.000543	20.782597
560.146497	-3.005100	3.752200	-11.276000	24.351385	0.000544	20.773761
561.147715	-2.988100	3.753800	-11.216000	24.382176	0.000542	20.770037
562.148903	-2.991700	3.751300	-11.222000	24.382698	0.000542	20.764871
563.146079	-2.979700	3.752900	-11.182000	24.333517	0.000544	20.755837
564.148061	-2.983300	3.751100	-11.190000	24.364467	0.000544	20.748003
565.150764	-2.988400	3.751300	-11.209000	24.345063	0.000544	20.756513
566.148574	-2.986500	3.751300	-11.203000	24.322168	0.000543	20.767212
567.149837	-3.008300	3.750700	-11.282000	24.372595	0.000543	20.727707
568.147370	-2.993000	3.750600	-11.225000	24.384786	0.000542	20.753688
569.151232	-3.017300	3.749400	-11.312000	24.398916	0.000540	20.745104
570.152511	-3.008700	3.749100	-11.279000	24.378287	0.000544	20.748117
571.151499	-2.996700	3.749700	-11.235000	24.416723	0.000542	20.762495
572.150291	-3.022000	3.749700	-11.330000	24.471990	0.000542	20.762940
573.153424	-2.991800	3.748500	-11.214000	24.472039	0.000542	20.762989
574.151235	-3.024900	3.748700	-11.337000	24.471764	0.000545	20.769351
575.151130	-2.993800	3.749000	-11.222000	24.517133	0.000542	20.750384
576.153040	-2.982300	3.749300	-11.180000	24.513101	0.000543	20.764831
577.150845	-2.994300	3.748000	-11.221000	24.533570	0.000542	20.761660
578.154698	-2.989600	3.748200	-11.205000	24.542919	0.000543	20.756815
579.154085	-2.999400	3.748400	-11.242000	24.554339	0.000542	20.759265
580.153687	-3.023400	3.747700	-11.330000	24.524586	0.000544	20.750750
581.152817	-3.021200	3.746100	-11.317000	24.491431	0.000541	20.759685
582.153496	-3.006900	3.746900	-11.266000	24.468569	0.000543	20.770887
583.152410	-3.014200	3.746100	-11.290000	24.485081	0.000542	20.764693
584.152465	-2.996000	3.746100	-11.223000	24.495059	0.000539	20.755738
585.153102	-2.985700	3.747700	-11.188000	24.543332	0.000543	20.743953
586.153585	-2.981200	3.748000	-11.173000	24.546916	0.000542	20.757507
587.155607	-3.007300	3.747100	-11.268000	24.547959	0.000543	20.743380
588.152498	-3.001300	3.745500	-11.240000	24.545272	0.000542	20.740683
589.156723	-3.016000	3.744200	-11.291000	24.512713	0.000543	20.746423
590.152000	-3.007400	3.743300	-11.257000	24.503788	0.000540	20.753116
591.155954	-2.999000	3.744600	-11.229000	24.468239	0.000541	20.750641
592.154493	-2.998500	3.744700	-11.228000	24.503059	0.000541	20.750488
593.155934	-3.001100	3.744500	-11.236000	24.501843	0.000540	20.756855
594.153835	-2.991400	3.744800	-11.201000	24.495325	0.000539	20.739883
595.157157	-3.009900	3.743700	-11.266000	24.482092	0.000541	20.747944
596.156229	-3.005100	3.742700	-11.246000	24.467712	0.000540	20.737784
597.159213	-2.993900	3.742500	-11.203000	24.451496	0.000540	20.767509
598.161824	-2.995600	3.743300	-11.212000	24.472340	0.000541	20.751436
599.156794	-3.004200	3.743000	-11.243000	24.480197	0.000542	20.729446
600.156228	-2.984700	3.744200	-11.175000	24.461918	0.000539	20.750937
601.157341	-3.004900	3.741100	-11.241000	24.458260	0.000542	20.744422
602.158810	-2.994300	3.741200	-11.202000	24.495946	0.000539	20.757576
603.157794	-3.000100	3.742500	-11.227000	24.498904	0.000540	20.737784
604.158770	-2.997300	3.739800	-11.209000	24.507509	0.000541	20.760643
605.162293	-3.002800	3.742100	-11.236000	24.496197	0.000540	20.741232
606.157111	-3.000800	3.742100	-11.227000	24.527530	0.000540	20.746117
607.156952	-3.001000	3.741600	-11.228000	24.527063	0.000539	20.750863
608.155968	-3.011400	3.740600	-11.264000	24.532857	0.000540	20.761893
609.160182	-2.994200	3.740700	-11.200000	24.530745	0.000542	20.737962
610.156739	-3.018300	3.740500	-11.289000	24.515248	0.000542	20.749915
611.159320	-2.981800	3.740900	-11.152000	24.516390	0.000540	20.748690
612.157160	-3.001500	3.739500	-11.223000	24.543002	0.000540	20.745519
613.156202	-3.005200	3.738100	-11.233000	24.544046	0.000539	20.752730
614.163856	-2.996300	3.739200	-11.202000	24.520840	0.000539	20.705263
615.159186	-2.964500	3.739700	-11.085000	24.511285	0.000538	20.744042
616.157471	-3.020300	3.737500	-11.287000	24.492760	0.000539	20.726404
617.158413	-3.002100	3.737700	-11.220000	24.471341	0.000538	20.738579
618.158910	-3.009000	3.738000	-11.246000	24.463523	0.000538	20.736426
619.157732	-3.016300	3.737500	-11.273000	24.498102	0.000538	20.742669
620.157654	-2.990500	3.737100	-11.174000	24.502301	0.000536	20.734080
621.158059	-3.002500	3.737000	-11.219000	24.502203	0.000537	20.734455
622.165264	-3.000200	3.735700	-11.206000	24.567468	0.000538	20.732134
623.159674	-2.980300	3.737300	-11.137000	24.596068	0.000538	20.728113
624.162251	-3.004400	3.736100	-11.224000	24.548737	0.000538	20.743213
625.162888	-3.020200	3.736000	-11.282000	24.534280	0.000537	20.735818
626.162976	-3.002100	3.735700	-11.214000	24.573080	0.000539	20.696036
627.167547	-3.003600	3.736000	-11.220000	24.609220	0.000536	20.732776
628.167892	-3.003000	3.735300	-11.216000	24.618721	0.000537	20.717651
629.163505	-3.015500	3.734300	-11.260000	24.608522	0.000538	20.708839
630.164877	-2.991200	3.735900	-11.173000	24.607724	0.000535	20.702349
631.166445	-2.999200	3.735100	-11.201000	24.563530	0.000539	20.719173
632.163086	-3.018700	3.734800	-11.273000	24.528879	0.000536	20.737987
633.166551	-2.999100	3.732900	-11.195000	24.559720	0.000538	20.725782
634.167944	-2.999800	3.734900	-11.203000	24.585091	0.000534	20.726582
635.162042	-3.005600	3.733500	-11.221000	24.598918	0.000538	20.713428
636.168011	-3.012800	3.733800	-11.249000	24.612701	0.000536	20.721094
637.171021	-3.034000	3.732600	-11.323000	24.613867	0.000536	20.731274
638.165171	-3.004600	3.733700	-11.217000	24.607872	0.000536	20.716249
639.169086	-2.994400	3.732400	-11.175000	24.602354	0.000536	20.704073
640.167656	-2.982600	3.733100	-11.134000	24.563629	0.000536	20.734445
641.162922	-3.009000	3.732900	-11.231000	24.586710	0.000535	20.722991
642.168175	-3.015600	3.731200	-11.251000	24.561684	0.000536	20.729175
643.166816	-2.993600	3.731000	-11.168000	24.618686	0.000534	20.718091
644.165048	-3.016500	3.730800	-11.253000	24.625336	0.000537	20.723342
645.168221	-2.994700	3.731100	-11.172000	24.588542	0.000536	20.714396
646.171061	-2.989400	3.733200	-11.159000	24.597697	0.000535	20.716945
647.172229	-3.014200	3.729900	-11.242000	24.584697	0.000533	20.706745
648.169870	-3.014500	3.730400	-11.244000	24.621802	0.000536	20.723589
649.170922	-2.995400	3.730200	-11.173000	24.617845	0.000535	20.724359
650.167665	-3.012900	3.728900	-11.234000	24.622969	0.000535	20.738510
651.176332	-2.995200	3.729000	-11.168000	24.593252	0.000536	20.712485
652.170086	-3.000900	3.728700	-11.188000	24.590515	0.000534	20.721119
653.170170	-2.996100	3.729200	-11.172000	24.605612	0.000535	20.724413
654.167909	-2.991000	3.729100	-11.152000	24.586361	0.000534	20.722166
655.170182	-2.978100	3.730900	-11.109000	24.618046	0.000533	20.719346
656.168151	-2.996200	3.730200	-11.176000	24.609220	0.000533	20.727560
657.171686	-3.021800	3.727400	-11.263000	24.651916	0.000534	20.729150
658.172511	-3.011300	3.727000	-11.221000	24.646669	0.000534	20.715350
659.169425	-3.002300	3.729700	-11.196000	24.673702	0.000532	20.700274
660.173239	-3.010500	3.727300	-11.219000	24.708796	0.000534	20.706093
661.174017	-2.985400	3.728600	-11.131000	24.755248	0.000529	20.708612
662.172722	-2.998500	3.727300	-11.176000	24.747092	0.000533	20.713705
663.176653	-2.991200	3.728000	-11.150000	24.770790	0.000535	20.716624
664.174084	-3.007100	3.726500	-11.205000	24.763354	0.000532	20.721489
665.171851	-2.978500	3.726300	-11.097000	24.736220	0.000533	20.713226
666.173111	-2.996500	3.725600	-11.162000	24.749504	0.000533	20.722764
667.171859	-2.980300	3.726100	-11.103000	24.784094	0.000530	20.724759
668.172108	-2.982600	3.725600	-11.111000	24.779172	0.000533	20.725984
669.172911	-2.984900	3.726400	-11.122000	24.756518	0.000532	20.714628
670.172383	-2.976700	3.725800	-11.090000	24.742943	0.000533	20.710015
671.172461	-2.990400	3.725300	-11.139000	24.726480	0.000533	20.714357
672.171545	-2.977900	3.725500	-11.093000	24.697086	0.000531	20.728483
673.172884	-2.999200	3.724500	-11.170000	24.701014	0.000531	20.719622
674.171434	-2.977100	3.725500	-11.090000	24.705961	0.000530	20.715577
675.173340	-2.972300	3.724600	-11.070000	24.725363	0.000530	20.728884
676.173680	-2.988200	3.724200	-11.129000	24.690176	0.000531	20.727713
677.171698	-2.991200	3.722800	-11.135000	24.691396	0.000530	20.716135
678.172902	-3.002300	3.723800	-11.178000	24.710498	0.000532	20.732460
679.173979	-3.001400	3.723500	-11.174000	24.758821	0.000529	20.728320
680.175019	-2.989400	3.723600	-11.131000	24.718162	0.000531	20.731615
681.174934	-3.013600	3.722600	-11.217000	24.753230	0.000531	20.736934
682.176117	-2.999100	3.723500	-11.166000	24.776607	0.000530	20.749964
683.176541	-2.987800	3.723000	-11.123000	24.792819	0.000531	20.729723
684.176291	-3.005900	3.721500	-11.185000	24.783522	0.000531	20.747895
685.175574	-2.999800	3.722800	-11.167000	24.760725	0.000529	20.712687
686.176826	-3.020000	3.720900	-11.235000	24.735900	0.000528	20.731872
687.176521	-3.021300	3.719500	-11.236000	24.725165	0.000528	20.705925
688.176050	-3.008600	3.722000	-11.197000	24.739320	0.000528	20.711595
689.177451	-3.032100	3.719300	-11.277000	24.727651	0.000529	20.722645
690.176712	-3.005200	3.720500	-11.180000	24.761828	0.000529	20.702413
691.180368	-3.012500	3.719300	-11.204000	24.768615	0.000530	20.725346
692.181519	-2.986600	3.720800	-11.112000	24.736264	0.000528	20.720857
693.179876	-3.022700	3.717800	-11.236000	24.728581	0.000529	20.709827
694.180416	-2.999700	3.721000	-11.162000	24.747235	0.000528	20.747040
695.178918	-3.001500	3.718800	-11.161000	24.729679	0.000530	20.728947
696.187638	-3.020100	3.718000	-11.228000	24.739350	0.000529	20.722531
697.185607	-2.988900	3.718700	-11.114000	24.729452	0.000527	20.733462
698.181286	-3.001400	3.719200	-11.161000	24.768570	0.000529	20.745692
699.180937	-3.004200	3.717900	-11.168000	24.815994	0.000528	20.722160
700.185910	-2.993900	3.716700	-11.127000	24.815714	0.000530	20.717611
701.182838	-2.990800	3.717700	-11.117000	24.868406	0.000529	20.726873
702.183294	-3.004200	3.718100	-11.169000	24.883253	0.000529	20.719488
703.183988	-3.000500	3.717500	-11.153000	24.895960	0.000528	20.717068
704.181723	-3.002500	3.716000	-11.156000	24.899168	0.000526	20.729298
705.188211	-3.032900	3.717300	-11.273000	24.849268	0.000530	20.734217
706.185589	-2.993200	3.716800	-11.124000	24.800501	0.000528	20.754977
707.186377	-2.991300	3.717200	-11.118000	24.782725	0.000527	20.722437
708.183969	-2.998300	3.716100	-11.142000	24.764397	0.000526	20.754780
709.187442	-2.995800	3.716100	-11.132000	24.766360	0.000528	20.742525
710.183671	-2.969400	3.717300	-11.037000	24.805644	0.000526	20.735008
711.186787	-2.967100	3.717900	-11.031000	24.854902	0.000526	20.732286
712.185995	-2.996800	3.715500	-11.133000	24.897795	0.000525	20.731713
713.184342	-3.008000	3.714400	-11.172000	24.878775	0.000524	20.722106
714.184447	-3.013700	3.714400	-11.193000	24.894715	0.000528	20.740476
715.188500	-2.978000	3.714600	-11.061000	24.853465	0.000525	20.750759
716.185662	-3.009900	3.712500	-11.173000	24.854558	0.000526	20.736682
717.189088	-2.995800	3.714700	-11.128000	24.825566	0.000525	20.738880
718.189796	-2.980800	3.714300	-11.070000	24.810472	0.000524	20.735586
719.185675	-3.019800	3.712800	-11.211000	24.861969	0.000526	20.752656
720.186926	-3.014700	3.713000	-11.192000	24.850454	0.000525	20.749159
721.185569	-3.002800	3.714000	-11.152000	24.869533	0.000526	20.737487
722.187570	-2.995900	3.713300	-11.124000	24.882264	0.000523	20.730350
723.187323	-2.997900	3.712500	-11.129000	24.870926	0.000523	20.731298
724.187589	-3.012400	3.711300	-11.178000	24.913001	0.000522	20.746502
725.186969	-3.019200	3.710600	-11.202000	24.929063	0.000524	20.724689
726.188418	-3.010800	3.711000	-11.172000	24.875980	0.000523	20.751545
727.190131	-3.030300	3.709900	-11.242000	24.877501	0.000524	20.747855
728.185783	-3.014200	3.711200	-11.185000	24.827771	0.000523	20.739196
729.187157	-2.990700	3.711700	-11.100000	24.850202	0.000523	20.747484
730.186514	-2.989000	3.710200	-11.089000	24.826880	0.000523	20.755372
731.191687	-3.006900	3.710800	-11.157000	24.825236	0.000524	20.752300
732.188648	-2.999900	3.710600	-11.131000	24.851398	0.000521	20.756746
733.207280	-2.996500	3.709900	-11.116000	24.885566	0.000520	20.753579
734.189852	-2.995400	3.709400	-11.111000	24.883952	0.000521	20.740105
735.189878	-3.002200	3.709100	-11.134000	24.872191	0.000522	20.753431
736.189323	-3.009400	3.708800	-11.161000	24.863539	0.000522	20.738584
737.190035	-2.990200	3.708300	-11.087000	24.870955	0.000519	20.752666
738.188319	-2.987300	3.708700	-11.078000	24.898853	0.000523	20.758380
739.193967	-2.989100	3.709100	-11.087000	24.876679	0.000517	20.738495
740.193592	-2.994800	3.708400	-11.105000	24.859823	0.000520	20.737700
741.192489	-3.020700	3.707900	-11.200000	24.868972	0.000519	20.749253
742.198057	-3.030200	3.706400	-11.231000	24.854558	0.000520	20.744269
743.191382	-3.013300	3.706600	-11.168000	24.872988	0.000521	20.752809
744.194750	-3.004500	3.707300	-11.137000	24.900265	0.000519	20.743676
745.195122	-3.012900	3.706800	-11.167000	24.884277	0.000522	20.744224
746.197016	-2.987700	3.707400	-11.075000	24.873992	0.000520	20.750971
747.198677	-3.012000	3.706800	-11.165000	24.871876	0.000520	20.746003
748.194069	-2.995100	3.706700	-11.102000	24.848829	0.000517	20.748477
749.199202	-2.997900	3.706700	-11.111000	24.831329	0.000517	20.751777
750.194367	-3.022700	3.705500	-11.200000	24.879326	0.000519	20.772922
751.195823	-3.001300	3.705300	-11.120000	24.862363	0.000517	20.776285
752.197739	-3.023900	3.704700	-11.202000	24.853391	0.000519	20.765858
753.196258	-2.988300	3.705500	-11.072000	24.822958	0.000520	20.752858
754.196801	-3.001100	3.703900	-11.115000	24.830571	0.000518	20.757180
755.197921	-2.996000	3.705500	-11.100000	24.877919	0.000520	20.774828
756.199290	-2.996600	3.706000	-11.104000	24.879385	0.000518	20.762075
757.200111	-3.000300	3.704500	-11.114000	24.902810	0.000516	20.741014
758.204138	-2.993700	3.705300	-11.092000	24.918129	0.000518	20.759709
759.195306	-2.995300	3.704600	-11.096000	24.925461	0.000515	20.777500
760.198763	-3.017200	3.702000	-11.168000	24.904552	0.000517	20.734227
761.197631	-2.979100	3.704300	-11.034000	24.913675	0.000516	20.758084
762.206290	-2.999500	3.703100	-11.106000	24.910024	0.000516	20.763903
763.201648	-3.000300	3.702500	-11.108000	24.893716	0.000517	20.731412
764.202705	-3.009700	3.703100	-11.144000	24.868008	0.000514	20.768200
765.200075	-3.003600	3.702200	-11.118000	24.864376	0.000518	20.759339
766.199425	-3.003100	3.701600	-11.115000	24.891482	0.000516	20.766629
767.204154	-2.994800	3.702800	-11.089000	24.899035	0.000517	20.759037
768.201091	-2.985800	3.701600	-11.052000	24.886359	0.000517	20.768126
769.202594	-2.999100	3.700200	-11.096000	24.881482	0.000516	20.764179
770.205762	-3.005300	3.701300	-11.123000	24.903514	0.000517	20.754523
771.204302	-3.002600	3.701100	-11.112000	24.923060	0.000515	20.747588
772.205503	-2.997000	3.701200	-11.091000	24.934294	0.000519	20.767874
773.208118	-2.999500	3.700200	-11.098000	24.936479	0.000515	20.753945
774.203570	-3.007900	3.701000	-11.132000	24.948890	0.000518	20.770195
775.203768	-3.033900	3.701000	-11.228000	24.915147	0.000515	20.770941
776.211015	-3.014700	3.699300	-11.152000	24.880758	0.000514	20.769143
777.204403	-2.983800	3.700000	-11.039000	24.921962	0.000515	20.779678
778.210019	-3.006000	3.700100	-11.122000	24.939865	0.000514	20.763982
779.206400	-2.988600	3.700700	-11.059000	24.919827	0.000514	20.753827
780.205741	-3.018000	3.698600	-11.162000	24.907470	0.000513	20.756598
781.206863	-3.030200	3.699200	-11.208000	24.929619	0.000513	20.771242
782.207305	-2.995700	3.699100	-11.081000	24.944367	0.000513	20.761863
783.203710	-2.996600	3.698500	-11.082000	24.963406	0.000513	20.793301
784.207390	-2.998400	3.697900	-11.087000	24.975167	0.000512	20.787561
785.208600	-3.000700	3.698400	-11.098000	24.982154	0.000512	20.754745
786.203548	-2.992100	3.698000	-11.064000	24.985441	0.000513	20.774641
787.208293	-3.009000	3.697600	-11.125000	24.976067	0.000511	20.778034
788.214052	-3.004500	3.696400	-11.105000	24.969926	0.000511	20.765231
789.209409	-2.970800	3.698200	-10.986000	24.958018	0.000510	20.774616
790.208855	-2.982100	3.698000	-11.027000	24.956227	0.000510	20.770447
791.215225	-3.005700	3.697200	-11.112000	24.993521	0.000511	20.800294
792.206984	-2.999300	3.696700	-11.087000	24.977986	0.000510	20.792288
793.211453	-2.988200	3.695400	-11.041000	24.937832	0.000511	20.763839
794.212303	-2.994800	3.695800	-11.067000	24.934427	0.000510	20.781284
795.208124	-3.003900	3.695000	-11.099000	24.941070	0.000510	20.790322
796.217376	-3.000400	3.695100	-11.086000	24.940746	0.000511	20.780513
797.214137	-2.986700	3.695500	-11.036000	24.892161	0.000510	20.784855
798.210624	-3.012500	3.695300	-11.131000	24.914960	0.000510	20.796358
799.223843	-2.991500	3.695400	-11.054000	24.957358	0.000509	20.766367
800.214187	-3.008000	3.695500	-11.115000	24.983591	0.000508	20.773258
801.209078	-3.002400	3.694500	-11.092000	25.032123	0.000509	20.785937
802.213533	-3.001000	3.694200	-11.085000	25.067170	0.000507	20.790772
803.215824	-3.012500	3.693800	-11.126000	25.054993	0.000507	20.792772
804.213314	-3.000000	3.692900	-11.078000	25.080873	0.000508	20.777026
805.217595	-3.012800	3.692900	-11.126000	25.041220	0.000507	20.796017
806.218860	-3.036300	3.692000	-11.209000	25.038007	0.000509	20.784731
807.217573	-3.001100	3.692700	-11.081000	25.001389	0.000508	20.790174
808.223041	-3.003900	3.691000	-11.087000	24.997413	0.000507	20.770062
809.223640	-3.006400	3.692900	-11.102000	25.026769	0.000508	20.781985
810.219357	-3.008700	3.692700	-11.110000	25.016928	0.000507	20.801979
811.220410	-3.002200	3.691700	-11.082000	25.016997	0.000506	20.785927
812.227828	-2.984300	3.691900	-11.017000	25.005463	0.000506	20.792367
813.222739	-2.977500	3.691800	-10.992000	25.015481	0.000509	20.784880
814.223052	-2.992500	3.691000	-11.044000	25.035272	0.000506	20.810434
815.226927	-3.021700	3.689000	-11.145000	25.062368	0.000506	20.772675
816.223178	-2.992400	3.691600	-11.045000	25.071215	0.000505	20.804315
817.223747	-2.996600	3.689900	-11.055000	25.078403	0.000505	20.801574
818.236629	-2.996700	3.689600	-11.055000	25.055824	0.000505	20.813521
819.228363	-3.015900	3.690000	-11.128000	25.046180	0.000504	20.799099
820.230241	-3.017700	3.689500	-11.133000	25.100677	0.000504	20.794061
821.228167	-3.016400	3.690500	-11.131000	25.127649	0.000505	20.814025
822.228401	-3.012900	3.688800	-11.113000	25.081877	0.000506	20.791310
823.228806	-3.029900	3.687000	-11.170000	25.080342	0.000504	20.803994
824.229441	-2.992400	3.689000	-11.038000	25.111536	0.000503	20.794056
825.225323	-2.989500	3.688600	-11.026000	25.113253	0.000503	20.794832
826.233171	-3.011500	3.687600	-11.105000	25.090409	0.000503	20.810306
827.229051	-2.989900	3.689100	-11.029000	25.087673	0.000504	20.807560
828.229575	-2.983700	3.688400	-11.004000	25.085631	0.000504	20.800294
829.229620	-3.004100	3.688000	-11.078000	25.084613	0.000503	20.800220
830.228584	-2.992500	3.687200	-11.033000	25.056995	0.000502	20.797153
831.231382	-2.997000	3.686900	-11.049000	25.072681	0.000501	20.819537
832.229220	-3.015700	3.686100	-11.115000	25.052272	0.000503	20.810429
833.233527	-3.002500	3.686800	-11.069000	25.096023	0.000504	20.819734
834.233174	-2.994800	3.686300	-11.039000	25.108726	0.000500	20.804038
835.235159	-3.000600	3.686500	-11.061000	25.132667	0.000501	20.802942
836.239246	-2.991700	3.687000	-11.029000	25.108658	0.000500	20.811081
837.229257	-2.988300	3.686200	-11.015000	25.068750	0.000500	20.811797
838.236339	-2.997400	3.685500	-11.046000	25.083801	0.000500	20.824061
839.236857	-3.006900	3.684400	-11.078000	25.121533	0.000501	20.813101
840.236767	-3.019100	3.684200	-11.122000	25.110153	0.000500	20.810212
841.235802	-3.005400	3.685600	-11.075000	25.082763	0.000499	20.814959
842.236864	-2.967700	3.684300	-10.933000	25.052360	0.000500	20.819527
843.230791	-3.003000	3.683700	-11.062000	25.079137	0.000500	20.816060
844.232250	-2.993700	3.684300	-11.029000	25.106660	0.000499	20.820456
845.239879	-2.967100	3.683700	-10.929000	25.088023	0.000498	20.813601
846.235888	-2.999000	3.682400	-11.043000	25.096323	0.000497	20.827148
847.235742	-2.999700	3.682500	-11.046000	25.119374	0.000499	20.819468
848.234250	-3.012700	3.682300	-11.092000	25.141450	0.000498	20.816974
849.233653	-3.013300	3.683500	-11.098000	25.173670	0.000495	20.833673
850.245677	-3.004800	3.682100	-11.063000	25.173670	0.000499	20.827509
851.235847	-2.985100	3.682400	-10.992000	25.175594	0.000497	20.812845
852.244447	-3.001500	3.682500	-11.051000	25.160613	0.000495	20.804918
853.238894	-2.991900	3.681700	-11.013000	25.141672	0.000494	20.810084
854.236390	-2.985500	3.681100	-10.988000	25.114208	0.000494	20.819973
855.238413	-3.006100	3.681200	-11.065000	25.119857	0.000495	20.819005
856.244456	-3.002700	3.681500	-11.054000	25.098631	0.000495	20.849853
857.232874	-2.988900	3.681800	-11.004000	25.104206	0.000494	20.809932
858.238822	-2.970800	3.680400	-10.933000	25.147365	0.000494	20.812955
859.234565	-2.982200	3.680300	-10.975000	25.125496	0.000495	20.833200
860.236461	-3.011300	3.680100	-11.081000	25.148841	0.000494	20.829609
861.236268	-3.013000	3.678500	-11.083000	25.136517	0.000495	20.839522
862.235453	-2.991800	3.678900	-11.006000	25.142785	0.000493	20.825900
863.237731	-2.992300	3.680100	-11.010000	25.167773	0.000495	20.851459
864.237334	-2.980300	3.679000	-10.963000	25.173771	0.000494	20.833773
865.235588	-3.002400	3.679200	-11.045000	25.175020	0.000493	20.824123
866.246911	-2.989000	3.680100	-10.999000	25.183522	0.000493	20.827442
867.243103	-2.990800	3.679800	-11.005000	25.147760	0.000492	20.839429
868.236034	-3.001300	3.678500	-11.039000	25.144459	0.000492	20.835167
869.245417	-2.997900	3.678100	-11.025000	25.133153	0.000492	20.834722
870.235843	-2.995200	3.677200	-11.013000	25.162736	0.000493	20.838817
871.237995	-3.005500	3.678400	-11.055000	25.118712	0.000493	20.837296
872.243680	-2.981300	3.678200	-10.964000	25.122201	0.000489	20.830841
873.239988	-2.987600	3.677400	-10.986000	25.137315	0.000490	20.835582
874.238938	-2.992000	3.678400	-11.004000	25.167996	0.000492	20.833666
875.244184	-3.001000	3.676900	-11.033000	25.197805	0.000491	20.820919
876.246615	-3.005200	3.675200	-11.044000	25.215836	0.000490	20.835701
877.243282	-3.002000	3.675200	-11.032000	25.217356	0.000491	20.830116
878.250108	-3.014200	3.675800	-11.079000	25.196576	0.000490	20.832960
879.244499	-2.991800	3.675500	-10.995000	25.163500	0.000488	20.841006
880.245374	-2.994200	3.674400	-11.001000	25.162285	0.000490	20.821295
881.244522	-3.014300	3.674800	-11.076000	25.169321	0.000491	20.837841
882.245945	-3.005700	3.675100	-11.046000	25.189084	0.000489	20.836344
883.243394	-2.971200	3.674100	-10.915000	25.187918	0.000489	20.835648
884.247606	-3.002900	3.673000	-11.028000	25.211764	0.000488	20.833984
885.245075	-3.007100	3.673900	-11.047000	25.233764	0.000488	20.838528
886.243230	-2.990300	3.673700	-10.984000	25.240750	0.000487	20.843170
887.250074	-2.985400	3.674000	-10.968000	25.250993	0.000489	20.838755
888.246534	-2.978700	3.673700	-10.941000	25.279432	0.000488	20.863514
889.247358	-2.985600	3.673200	-10.966000	25.270936	0.000487	20.842657
890.250685	-3.020900	3.671800	-11.092000	25.232756	0.000486	20.834671
891.250322	-3.013900	3.671400	-11.065000	25.191594	0.000485	20.856407
892.247197	-2.997900	3.672300	-11.008000	25.153962	0.000487	20.831905
893.254551	-3.011300	3.671100	-11.053000	25.160949	0.000484	20.839867
894.250530	-3.006500	3.671300	-11.037000	25.133604	0.000485	20.844184
895.257819	-3.012600	3.671100	-11.058000	25.138430	0.000486	20.847606
896.249837	-2.994800	3.671500	-10.994000	25.202693	0.000485	20.835309
897.250883	-3.002600	3.671400	-11.022000	25.217009	0.000484	20.848733
898.247590	-3.003200	3.669700	-11.020000	25.198639	0.000484	20.835980
899.250585	-3.002800	3.669900	-11.019000	25.194836	0.000483	20.842594
900.255210	-2.980200	3.671200	-10.940000	25.192800	0.000485	20.872316
901.255139	-3.016300	3.669200	-11.066000	25.195210	0.000484	20.857667
902.253436	-3.014100	3.668400	-11.055000	25.144674	0.000483	20.861460
903.251759	-3.019300	3.669000	-11.076000	25.198265	0.000483	20.857415
904.248907	-2.988200	3.668800	-10.962000	25.185887	0.000483	20.848308
905.253998	-2.990300	3.669800	-10.973000	25.240899	0.000484	20.843794
906.257610	-3.000300	3.668100	-11.004000	25.258747	0.000481	20.853652
907.251570	-3.001800	3.669100	-11.013000	25.302962	0.000483	20.847784
908.259492	-3.026500	3.667700	-11.100000	25.280171	0.000484	20.841971
909.260929	-3.015500	3.666800	-11.057000	25.256981	0.000480	20.850456
910.249629	-2.995300	3.667700	-10.985000	25.295676	0.000482	20.857539
911.251245	-3.008100	3.667400	-11.031000	25.280239	0.000480	20.861954
912.251282	-2.995300	3.668600	-10.988000	25.295774	0.000480	20.845784
913.250758	-2.985800	3.667300	-10.949000	25.300566	0.000482	20.841111
914.258343	-3.017700	3.665700	-11.062000	25.281307	0.000482	20.871086
915.255509	-2.999100	3.666300	-10.994000	25.305736	0.000479	20.861949
916.253492	-2.984600	3.666800	-10.943000	25.315628	0.000481	20.831105
917.253815	-3.004000	3.666800	-11.013000	25.310551	0.000481	20.846396
918.258367	-3.010800	3.666900	-11.040000	25.330336	0.000481	20.843502
919.254794	-3.002900	3.665300	-11.006000	25.261314	0.000480	20.835841
920.251936	-2.996000	3.664900	-10.979000	25.194963	0.000480	20.854100
921.258598	-2.998500	3.664800	-10.988000	25.180298	0.000478	20.864506
922.254292	-3.001700	3.665600	-11.001000	25.178084	0.000479	20.864180
923.262227	-3.003500	3.664200	-11.005000	25.247111	0.000480	20.837703
924.257960	-2.984600	3.663000	-10.932000	25.234734	0.000477	20.840449
925.255078	-2.992100	3.665700	-10.967000	25.199105	0.000477	20.837396
926.254645	-3.001300	3.664100	-10.995000	25.184366	0.000476	20.844410
927.263908	-2.995900	3.664300	-10.977000	25.206883	0.000478	20.842360
928.254405	-3.013100	3.662800	-11.035000	25.204399	0.000476	20.823271
929.267533	-2.991100	3.663800	-10.958000	25.215281	0.000476	20.835618
930.258909	-2.992100	3.662000	-10.956000	25.257191	0.000475	20.819374
931.255782	-3.032000	3.662200	-11.103000	25.238251	0.000475	20.832601
932.258608	-3.003100	3.663100	-11.000000	25.225297	0.000476	20.838562
933.259247	-2.988800	3.661900	-10.943000	25.225396	0.000476	20.824436
934.254920	-3.009000	3.661100	-11.016000	25.163378	0.000474	20.805796
935.264297	-2.979400	3.662900	-10.912000	25.158428	0.000474	20.848716
936.261010	-3.003100	3.660500	-10.992000	25.205161	0.000474	20.822614
937.259133	-2.977300	3.660500	-10.897000	25.274713	0.000472	20.825587
938.262746	-2.972600	3.662900	-10.888000	25.309011	0.000473	20.829676
939.258245	-3.003300	3.660000	-10.991000	25.288256	0.000472	20.827330
940.260895	-2.995900	3.659700	-10.963000	25.286313	0.000474	20.808784
941.268092	-2.993500	3.660500	-10.956000	25.318505	0.000472	20.839683
942.260410	-3.021900	3.660200	-11.059000	25.292979	0.000472	20.816899
943.259759	-2.995200	3.659400	-10.960000	25.316832	0.000472	20.799123
944.265309	-2.999600	3.658600	-10.973000	25.275284	0.000471	20.831850
945.262266	-3.003500	3.658500	-10.987000	25.280405	0.000472	20.814707
946.261256	-3.003400	3.658900	-10.988000	25.287312	0.000470	20.826856
947.264618	-3.006100	3.659600	-11.000000	25.291660	0.000470	20.829800
948.261207	-3.009300	3.659300	-11.011000	25.230645	0.000469	20.830180
949.261142	-3.002100	3.657900	-10.980000	25.190875	0.000468	20.813013
950.267862	-3.010300	3.658300	-11.011000	25.237808	0.000471	20.824096
951.265697	-2.979100	3.659100	-10.900000	25.278029	0.000469	20.836503
952.264640	-2.986000	3.656700	-10.919000	25.303580	0.000469	20.823276
953.264253	-3.018000	3.657200	-11.036000	25.311559	0.000469	20.814692
954.262438	-3.010900	3.654900	-11.004000	25.328388	0.000467	20.801243
955.257142	-2.985800	3.657900	-10.921000	25.320660	0.000469	20.793958
956.261880	-2.996300	3.656200	-10.954000	25.308554	0.000468	20.801717
957.261912	-3.013300	3.654900	-11.013000	25.259622	0.000469	20.830349
958.262582	-3.012000	3.654700	-11.007000	25.228875	0.000467	20.799006
959.261840	-2.994100	3.655500	-10.944000	25.266779	0.000467	20.800552
960.263034	-2.987600	3.654500	-10.918000	25.245429	0.000468	20.801402
961.265179	-3.003100	3.654500	-10.974000	25.279579	0.000467	20.817671
962.265917	-3.007500	3.655500	-10.992000	25.254481	0.000465	20.794369
963.267844	-3.011500	3.654900	-11.006000	25.277819	0.000466	20.793618
964.268498	-3.013400	3.655400	-11.014000	25.267380	0.000468	20.804948
965.266279	-2.992700	3.654200	-10.935000	25.312519	0.000467	20.800957
966.270001	-3.000400	3.653600	-10.961000	25.338173	0.000466	20.815809
967.267351	-3.006300	3.652700	-10.979000	25.319357	0.000466	20.801185
968.269106	-2.996400	3.653100	-10.945000	25.317119	0.000467	20.805101
969.269152	-3.005400	3.652400	-10.976000	25.345133	0.000465	20.803358
970.275774	-3.021400	3.652400	-11.033000	25.389694	0.000467	20.827712
971.269747	-2.992800	3.651300	-10.927000	25.399236	0.000468	20.797466
972.271809	-2.983600	3.653100	-10.897000	25.424735	0.000464	20.806949
973.271803	-2.995500	3.650500	-10.934000	25.382837	0.000464	20.815612
974.272997	-2.985600	3.651100	-10.900000	25.330101	0.000464	20.790161
975.271354	-2.995800	3.651600	-10.938000	25.284741	0.000463	20.828542
976.270316	-2.996000	3.650700	-10.936000	25.263194	0.000462	20.798375
977.273190	-2.983300	3.650900	-10.890000	25.262997	0.000464	20.815721
978.280819	-2.987800	3.650300	-10.905000	25.319569	0.000464	20.793337
979.271173	-2.976200	3.649700	-10.861000	25.286389	0.000463	20.793214
980.269165	-2.990200	3.649300	-10.911000	25.292730	0.000461	20.788201
981.270074	-2.982700	3.649800	-10.885000	25.272999	0.000461	20.795891
982.273378	-2.991700	3.650300	-10.919000	25.306352	0.000463	20.773902
983.270583	-2.978700	3.650400	-10.872000	25.293532	0.000458	20.802757
984.274602	-2.987900	3.650000	-10.905000	25.253341	0.000463	20.802707
985.277751	-2.979500	3.649800	-10.874000	25.311507	0.000459	20.781449
986.278072	-2.990600	3.647400	-10.908000	25.335911	0.000457	20.790779
987.274195	-2.995800	3.648300	-10.929000	25.331863	0.000457	20.792404
988.274397	-3.015300	3.647700	-10.998000	25.331415	0.000458	20.800016
989.278862	-2.968000	3.649200	-10.830000	25.365342	0.000459	20.785717
990.274049	-3.000300	3.646900	-10.941000	25.388466	0.000459	20.795660
991.275760	-3.007000	3.645700	-10.961000	25.413719	0.000457	20.785930
992.274739	-2.988300	3.647000	-10.896000	25.389834	0.000457	20.807938
993.277456	-3.007800	3.646500	-10.967000	25.373360	0.000457	20.788079
994.277419	-3.007800	3.645800	-10.965000	25.355564	0.000458	20.786330
995.279016	-2.999500	3.645100	-10.932000	25.316797	0.000457	20.786760
996.280584	-3.014400	3.644700	-10.985000	25.333527	0.000458	20.797394
997.278769	-3.025300	3.645400	-11.028000	25.351373	0.000456	20.788761
998.280046	-2.993700	3.644400	-10.909000	25.338372	0.000457	20.796569
999.275575	-3.011100	3.643600	-10.970000	25.387616	0.000455	20.796229
1000.277027	-2.997100	3.644200	-10.921000	25.385304	0.000453	20.777312
1001.275236	-3.003200	3.644900	-10.945000	25.350838	0.000456	20.778266
1002.282642	-2.991700	3.642800	-10.897000	25.309827	0.000454	20.795883
1003.281984	-2.997600	3.644300	-10.923000	25.348629	0.000454	20.791221
1004.277042	-2.999800	3.643200	-10.928000	25.393446	0.000455	20.782168
1005.276576	-2.989500	3.643700	-10.892000	25.326189	0.000455	20.788129
1006.283514	-2.988300	3.644000	-10.889000	25.309095	0.000454	20.779501
1007.275766	-2.973700	3.643400	-10.833000	25.358734	0.000454	20.785246
1008.290806	-3.006400	3.641800	-10.948000	25.335742	0.000453	20.773540
1009.282076	-2.999400	3.641700	-10.922000	25.309676	0.000452	20.778662
1010.278897	-2.999400	3.642400	-10.924000	25.322500	0.000455	20.780633
1011.283969	-3.020400	3.641400	-10.998000	25.300728	0.000452	20.780109
1012.286408	-3.016100	3.640600	-10.980000	25.286388	0.000452	20.778988
1013.283082	-2.981600	3.641800	-10.858000	25.265712	0.000452	20.756332
1014.287063	-3.001900	3.641000	-10.930000	25.329171	0.000450	20.772158
1015.285648	-2.999900	3.640100	-10.919000	25.292857	0.000449	20.775526
1016.287473	-3.001400	3.640700	-10.926000	25.314655	0.000450	20.774178
1017.282041	-2.986800	3.640200	-10.872000	25.285129	0.000451	20.774405
1018.289917	-2.992800	3.638500	-10.889000	25.333667	0.000450	20.774301
1019.283490	-3.010400	3.638900	-10.953000	25.339658	0.000451	20.772256
1020.289139	-3.014800	3.638200	-10.968000	25.300659	0.000449	20.780040
1021.288836	-2.981500	3.638200	-10.846000	25.296660	0.000449	20.768913
1022.295870	-3.004400	3.637600	-10.928000	25.256488	0.000448	20.763667
1023.290380	-2.989900	3.638700	-10.878000	25.240382	0.000449	20.761247
1024.289845	-2.979800	3.636600	-10.835000	25.256232	0.000446	20.765780
1025.291600	-2.985600	3.636300	-10.856000	25.288823	0.000448	20.762941
1026.289459	-3.001400	3.636700	-10.914000	25.316637	0.000449	20.775694
1027.287287	-3.021500	3.635200	-10.982000	25.330179	0.000448	20.766531
1028.285005	-3.005700	3.636200	-10.928000	25.293374	0.000447	20.771777
1029.285481	-3.018300	3.635300	-10.972000	25.317197	0.000446	20.775308
1030.298853	-3.019200	3.634800	-10.973000	25.284459	0.000446	20.770413
1031.291102	-2.996900	3.635600	-10.895000	25.266690	0.000445	20.792876
1032.289076	-2.990700	3.634500	-10.869000	25.311549	0.000447	20.775801
1033.291896	-3.004600	3.635900	-10.923000	25.297013	0.000445	20.782069
1034.289069	-3.009700	3.635600	-10.941000	25.274443	0.000446	20.757037
1035.287374	-2.994800	3.635400	-10.886000	25.281295	0.000445	20.771030
1036.291496	-3.014800	3.633600	-10.954000	25.303265	0.000446	20.766535
1037.286697	-2.994600	3.634800	-10.884000	25.359510	0.000446	20.778438
1038.287354	-3.021700	3.631600	-10.973000	25.388836	0.000443	20.761892
1039.291014	-3.016200	3.632400	-10.956000	25.361595	0.000443	20.761566
1040.289207	-2.997700	3.632400	-10.888000	25.343995	0.000442	20.766179
1041.299127	-2.974300	3.633200	-10.805000	25.339671	0.000442	20.747138
1042.291027	-3.000100	3.631900	-10.894000	25.327811	0.000444	20.776008
1043.292506	-2.995100	3.632800	-10.880000	25.346179	0.000442	20.742292
1044.288783	-2.989200	3.631300	-10.854000	25.383154	0.000442	20.772308
1045.295821	-2.989000	3.632800	-10.857000	25.413552	0.000443	20.754942
1046.291998	-3.005500	3.632100	-10.915000	25.407561	0.000442	20.754616
1047.295549	-3.002300	3.630300	-10.898000	25.421250	0.000442	20.789224
1048.293254	-3.013000	3.629600	-10.935000	25.475128	0.000443	20.764143
1049.293516	-3.003100	3.630700	-10.902000	25.507481	0.000439	20.769132
1050.296368	-3.020800	3.629000	-10.962000	25.492470	0.000440	20.746944
1051.295222	-2.999300	3.628600	-10.883000	25.482702	0.000440	20.750412
1052.292894	-3.000600	3.629100	-10.888000	25.478452	0.000440	20.762266
1053.298735	-2.994300	3.628300	-10.863000	25.448370	0.000439	20.767619
1054.296999	-3.032700	3.628600	-11.003000	25.464724	0.000439	20.754170
1055.295000	-3.012200	3.628600	-10.929000	25.496079	0.000439	20.770484
1056.294029	-3.000600	3.628400	-10.887000	25.467896	0.000440	20.763994
1057.301616	-2.992100	3.627800	-10.854000	25.423659	0.000436	20.766038
1058.295752	-2.985100	3.627200	-10.826000	25.384638	0.000437	20.751512
1059.296684	-2.986600	3.628600	-10.837000	25.375985	0.000437	20.746617
1060.305231	-3.011500	3.625800	-10.918000	25.352492	0.000435	20.755270
1061.295449	-2.996100	3.626500	-10.865000	25.363427	0.000435	20.749654
1062.300238	-2.993800	3.627300	-10.858000	25.440494	0.000434	20.776306
1063.301973	-3.018800	3.624400	-10.941000	25.438925	0.000434	20.761454
1064.295781	-2.993900	3.625000	-10.852000	25.505796	0.000435	20.775027
1065.300308	-3.019500	3.625200	-10.946000	25.499476	0.000434	20.777689
1066.299101	-2.994900	3.625300	-10.857000	25.470128	0.000433	20.741104
1067.299003	-3.006800	3.624700	-10.898000	25.449145	0.000434	20.765553
1068.298831	-3.008100	3.623700	-10.900000	25.483388	0.000432	20.743988
1069.299540	-2.987400	3.625400	-10.829000	25.435575	0.000432	20.749080
1070.295995	-2.983200	3.624400	-10.811000	25.396697	0.000430	20.757931
1071.302399	-3.039400	3.622200	-11.008000	25.406013	0.000430	20.743577
1072.299239	-3.001400	3.623800	-10.875000	25.426017	0.000432	20.763665
1073.302213	-3.004400	3.622400	-10.882000	25.459090	0.000429	20.771746
1074.296639	-2.983000	3.623100	-10.807000	25.452405	0.000431	20.750334
1075.300697	-2.981100	3.624500	-10.805000	25.500414	0.000429	20.776734
1076.302096	-3.011700	3.622400	-10.909000	25.489653	0.000427	20.762608
1077.300828	-2.987000	3.621400	-10.817000	25.453964	0.000429	20.749054
1078.300388	-2.972100	3.622500	-10.765000	25.466309	0.000429	20.744382
1079.301996	-3.002200	3.620100	-10.868000	25.493174	0.000428	20.756661
1080.301533	-2.996400	3.621000	-10.849000	25.497718	0.000428	20.760276
1081.302829	-3.022100	3.619300	-10.937000	25.508081	0.000427	20.744604
1082.303659	-2.988100	3.619600	-10.815000	25.526274	0.000428	20.760503
1083.302261	-3.010400	3.620400	-10.898000	25.536883	0.000427	20.752665
1084.316545	-3.003900	3.619800	-10.872000	25.508485	0.000428	20.759708
1085.305765	-3.020300	3.619500	-10.929000	25.509803	0.000425	20.752971
1086.305528	-3.013400	3.619000	-10.904000	25.530302	0.000423	20.724244
1087.305466	-3.011900	3.618000	-10.897000	25.515892	0.000425	20.731584
1088.304363	-3.000900	3.619700	-10.861000	25.542007	0.000424	20.735051
1089.303315	-3.012200	3.618500	-10.899000	25.517436	0.000422	20.752102
1090.306805	-2.984000	3.618500	-10.796000	25.491915	0.000423	20.742120
1091.304341	-2.952700	3.619000	-10.684000	25.506675	0.000423	20.728018
1092.309720	-2.984400	3.619300	-10.799000	25.527455	0.000421	20.731342
1093.306597	-2.977300	3.618100	-10.771000	25.554249	0.000422	20.754459
1094.307055	-3.017100	3.616600	-10.911000	25.517943	0.000423	20.723686
1095.302582	-3.000600	3.617200	-10.853000	25.463148	0.000424	20.752112
1096.313519	-3.005100	3.615400	-10.864000	25.486633	0.000421	20.758153
1097.303901	-3.013600	3.614200	-10.891000	25.505820	0.000423	20.738065
1098.307496	-3.018400	3.615000	-10.910000	25.561464	0.000421	20.734203
1099.318019	-3.003200	3.613900	-10.853000	25.568945	0.000421	20.727964
1100.306358	-2.974900	3.616000	-10.757000	25.542554	0.000420	20.755516
1101.308881	-2.975000	3.615500	-10.755000	25.514427	0.000423	20.732958
1102.309091	-3.008400	3.614200	-10.872000	25.542387	0.000421	20.740175
1103.306887	-2.996200	3.614400	-10.829000	25.486747	0.000420	20.734085
1104.309529	-2.993300	3.613600	-10.816000	25.506730	0.000419	20.736135
1105.312521	-3.019200	3.614300	-10.911000	25.537420	0.000420	20.740876
1106.307603	-3.027500	3.613800	-10.940000	25.559567	0.000418	20.729926
1107.308072	-2.993400	3.613200	-10.815000	25.518736	0.000420	20.726854
1108.310420	-3.003800	3.612700	-10.851000	25.575398	0.000417	20.737291
1109.308962	-2.997700	3.612100	-10.827000	25.555023	0.000417	20.716827
1110.310608	-3.016300	3.611400	-10.892000	25.551669	0.000418	20.728632
1111.307134	-2.990600	3.612600	-10.802000	25.583945	0.000417	20.714579
1112.307807	-2.971400	3.611800	-10.731000	25.600898	0.000415	20.743934
1113.314719	-2.988700	3.610900	-10.790000	25.615656	0.000416	20.736945
1114.311003	-3.005400	3.612000	-10.855000	25.616035	0.000414	20.735429
1115.304961	-3.004300	3.610100	-10.845000	25.594962	0.000413	20.737024
1116.311319	-2.999000	3.609700	-10.825000	25.525263	0.000414	20.731512
1117.307859	-3.008700	3.609400	-10.859000	25.510351	0.000412	20.735029
1118.310308	-2.966300	3.610900	-10.710000	25.536993	0.000413	20.716264
1119.309964	-3.018100	3.609500	-10.893000	25.578320	0.000413	20.732164
1120.306054	-2.984000	3.609900	-10.771000	25.614919	0.000412	20.734308
1121.318422	-3.001700	3.608800	-10.832000	25.608285	0.000413	20.722429
1122.308214	-2.975700	3.608700	-10.738000	25.565646	0.000411	20.736032
1123.311021	-2.995200	3.608700	-10.808000	25.521044	0.000411	20.722533
1124.311251	-2.981100	3.608300	-10.756000	25.518506	0.000411	20.733261
1125.314644	-3.012500	3.607800	-10.868000	25.529169	0.000411	20.725951
1126.313158	-2.988100	3.608100	-10.780000	25.536797	0.000413	20.721757
1127.313982	-3.004100	3.606300	-10.833000	25.501484	0.000410	20.740349
1128.310858	-2.996200	3.607400	-10.807000	25.475987	0.000411	20.715691
1129.314178	-2.995000	3.607200	-10.803000	25.492090	0.000411	20.738501
1130.314099	-3.012500	3.605000	-10.858000	25.498552	0.000410	20.732663
1131.309199	-3.018700	3.606200	-10.886000	25.509014	0.000409	20.723728
1132.314654	-3.003500	3.605200	-10.827000	25.542615	0.000410	20.736136
1133.319069	-2.995700	3.604400	-10.797000	25.598523	0.000410	20.719737
1134.316451	-2.990300	3.605000	-10.779000	25.616133	0.000409	20.702809
1135.317007	-2.998200	3.605200	-10.808000	25.590221	0.000406	20.722779
1136.315570	-2.990400	3.603900	-10.777000	25.586892	0.000408	20.729393
1137.312954	-3.015300	3.603500	-10.863000	25.539329	0.000407	20.715765
1138.314859	-3.008800	3.602800	-10.839000	25.526783	0.000407	20.717391
1139.316313	-3.017700	3.603300	-10.872000	25.557350	0.000407	20.718216
1140.319606	-3.005000	3.603300	-10.827000	25.536098	0.000407	20.737178
1141.317715	-3.013600	3.602700	-10.856000	25.515722	0.000406	20.727620
1142.318986	-2.988600	3.601900	-10.764000	25.472185	0.000406	20.711873
1143.315181	-2.998600	3.602900	-10.803000	25.508124	0.000405	20.733740
1144.316789	-3.007700	3.602000	-10.832000	25.530487	0.000405	20.710678
1145.320448	-3.005200	3.600800	-10.821000	25.542684	0.000403	20.721505
1146.318143	-3.014700	3.600900	-10.855000	25.607518	0.000405	20.718339
1147.319854	-3.000400	3.600800	-10.803000	25.593826	0.000403	20.714071
1148.319002	-3.002800	3.600000	-10.809000	25.538543	0.000403	20.714501
1149.328416	-2.994400	3.600300	-10.780000	25.557497	0.000403	20.707932
1150.320751	-3.002400	3.599800	-10.808000	25.593064	0.000401	20.725161
1151.323250	-2.981100	3.600200	-10.731000	25.620595	0.000405	20.714403
1152.319771	-2.989900	3.598800	-10.759000	25.584960	0.000403	20.734565
1153.322408	-3.016100	3.599200	-10.854000	25.554896	0.000401	20.735667
1154.321555	-2.979600	3.598700	-10.722000	25.505075	0.000402	20.735894
1155.336120	-3.002500	3.598600	-10.803000	25.466676	0.000400	20.725783
1156.322762	-3.011000	3.596800	-10.829000	25.468118	0.000400	20.734817
1157.329334	-3.014800	3.597800	-10.846000	25.531141	0.000400	20.740735
1158.321944	-2.992000	3.597200	-10.762000	25.563749	0.000400	20.722746
1159.327492	-2.987900	3.597300	-10.747000	25.560119	0.000401	20.736171
1160.324734	-2.991400	3.597000	-10.759000	25.567801	0.000397	20.726816
1161.327537	-2.999400	3.596700	-10.787000	25.543373	0.000399	20.741639
1162.322478	-3.015300	3.595600	-10.841000	25.504165	0.000398	20.753948
1163.328158	-2.972200	3.596800	-10.690000	25.499015	0.000397	20.747828
1164.324443	-2.991300	3.595200	-10.754000	25.519416	0.000398	20.737020
1165.327328	-2.996300	3.595500	-10.773000	25.513810	0.000396	20.745141
1166.324566	-3.000300	3.596000	-10.787000	25.521782	0.000397	20.727068
1167.328712	-3.010900	3.594300	-10.821000	25.515723	0.000399	20.726673
1168.326071	-3.020900	3.594200	-10.857000	25.536852	0.000397	20.732719
1169.325963	-3.002400	3.594500	-10.791000	25.508278	0.000397	20.717298
1170.331477	-2.993400	3.593100	-10.755000	25.490006	0.000397	20.740676
1171.335388	-2.975200	3.594000	-10.692000	25.497098	0.000394	20.726935
1172.330591	-2.992000	3.593800	-10.752000	25.537704	0.000394	20.717926
1173.333525	-3.019400	3.591600	-10.843000	25.579975	0.000395	20.727662
1174.331736	-3.006800	3.593500	-10.804000	25.598259	0.000396	20.739388
1175.329615	-3.003900	3.591900	-10.788000	25.645701	0.000396	20.725395
1176.333306	-3.015000	3.592500	-10.830000	25.622421	0.000394	20.735679
1177.336879	-3.007200	3.591300	-10.800000	25.580196	0.000394	20.726935
1178.330146	-3.009900	3.591400	-10.809000	25.562579	0.000393	20.766618
1179.335845	-3.002600	3.591000	-10.782000	25.599632	0.000391	20.740766
1180.334827	-3.007600	3.590100	-10.797000	25.609792	0.000393	20.747651
1181.332333	-2.992000	3.589600	-10.739000	25.596725	0.000389	20.734528
1182.333278	-2.993600	3.589800	-10.745000	25.582188	0.000389	20.727039
1183.340668	-2.990500	3.589100	-10.732000	25.582360	0.000390	20.732902
1184.335851	-2.978000	3.590500	-10.692000	25.624978	0.000388	20.746782
1185.330806	-2.985000	3.589000	-10.713000	25.589889	0.000392	20.756112
1186.336549	-2.982600	3.589000	-10.704000	25.581047	0.000389	20.747232
1187.338336	-2.987500	3.588300	-10.719000	25.587681	0.000388	20.738721
1188.331378	-2.987600	3.588700	-10.720000	25.582463	0.000390	20.744861
1189.335954	-2.994000	3.588200	-10.742000	25.599661	0.000388	20.729890
1190.338313	-2.986500	3.588500	-10.716000	25.577526	0.000389	20.741325
1191.335649	-2.968600	3.588100	-10.651000	25.616938	0.000387	20.749139
1192.335951	-2.981200	3.587100	-10.692000	25.633683	0.000389	20.754103
1193.336557	-3.004400	3.586600	-10.775000	25.653044	0.000387	20.748892
1194.336020	-3.030800	3.587200	-10.870000	25.598924	0.000387	20.728675
1195.343149	-3.033300	3.585400	-10.875000	25.611303	0.000387	20.744427
1196.337633	-2.988200	3.587000	-10.718000	25.661296	0.000386	20.722091
1197.338798	-3.025400	3.584900	-10.845000	25.705003	0.000388	20.722842
1198.338876	-3.000800	3.584300	-10.755000	25.629169	0.000384	20.743879
1199.339162	-2.987800	3.584400	-10.709000	25.605618	0.000387	20.747727
1200.337069	-3.025200	3.583600	-10.840000	25.560275	0.000383	20.745811
1201.343414	-3.022900	3.583200	-10.831000	25.524392	0.000385	20.757191
1202.338209	-2.999700	3.585200	-10.754000	25.466734	0.000385	20.754291
1203.335315	-3.002200	3.584500	-10.760000	25.509430	0.000382	20.758761
1204.342261	-3.008700	3.584400	-10.783000	25.557019	0.000382	20.738747
1205.341160	-3.002600	3.583300	-10.759000	25.596623	0.000382	20.736796
1206.341560	-3.006900	3.581600	-10.769000	25.580448	0.000384	20.753743
1207.345072	-3.017000	3.582000	-10.806000	25.532394	0.000382	20.750053
1208.340359	-3.012300	3.581800	-10.789000	25.571881	0.000383	20.743242
1209.337315	-3.013600	3.582300	-10.795000	25.604482	0.000383	20.744689
1210.342776	-3.007100	3.581100	-10.768000	25.613054	0.000384	20.739073
1211.338154	-3.031600	3.580300	-10.852000	25.597799	0.000382	20.757418
1212.341602	-2.991200	3.580900	-10.711000	25.559134	0.000381	20.751777
1213.351591	-3.009200	3.580800	-10.775000	25.554904	0.000380	20.750374
1214.343695	-3.006300	3.580700	-10.763000	25.592300	0.000379	20.755689
1215.340123	-3.008700	3.578300	-10.765000	25.608824	0.000378	20.767543
1216.345751	-2.985000	3.579400	-10.684000	25.594587	0.000380	20.782168
1217.343084	-3.006800	3.578800	-10.760000	25.579829	0.000380	20.753121
1218.341266	-2.993300	3.577600	-10.708000	25.576346	0.000379	20.739192
1219.352357	-3.012600	3.578800	-10.780000	25.652558	0.000378	20.745559
1220.346388	-2.996900	3.576700	-10.718000	25.618941	0.000377	20.776281
1221.345761	-3.010800	3.576700	-10.767000	25.630192	0.000379	20.760080
1222.341307	-2.997400	3.578400	-10.726000	25.595807	0.000376	20.772013
1223.345147	-3.004100	3.577400	-10.746000	25.541114	0.000376	20.741266
1224.343071	-2.987000	3.577500	-10.685000	25.546725	0.000376	20.773929
1225.343015	-3.006600	3.577200	-10.754000	25.541084	0.000375	20.780592
1226.345562	-3.008500	3.575400	-10.756000	25.559350	0.000376	20.764797
1227.342484	-2.997300	3.577100	-10.721000	25.532413	0.000376	20.766195
1228.347675	-2.992400	3.575700	-10.699000	25.518696	0.000375	20.763325
1229.346081	-2.988900	3.575700	-10.687000	25.544168	0.000374	20.775629
1230.343447	-3.024700	3.574200	-10.810000	25.535044	0.000376	20.766940
1231.345593	-2.977600	3.574700	-10.643000	25.556463	0.000375	20.759526
1232.349554	-3.030300	3.573300	-10.827000	25.546332	0.000374	20.779699
1233.346104	-2.987000	3.574200	-10.676000	25.526521	0.000374	20.767390
1234.346812	-3.025100	3.571700	-10.804000	25.477894	0.000372	20.767395
1235.347006	-3.015400	3.574000	-10.775000	25.503508	0.000373	20.755659
1236.342624	-3.000500	3.574300	-10.723000	25.542181	0.000372	20.775056
1237.353413	-2.981200	3.574800	-10.656000	25.553905	0.000372	20.776873
1238.345674	-3.019500	3.571500	-10.783000	25.575053	0.000371	20.769188
1239.342704	-3.012800	3.571900	-10.761000	25.599377	0.000370	20.769909
1240.351483	-3.013500	3.571500	-10.762000	25.633093	0.000371	20.766313
1241.343855	-3.007400	3.571000	-10.739000	25.626036	0.000369	20.763967
1242.343865	-2.991200	3.571100	-10.681000	25.614829	0.000369	20.782108
1243.348473	-2.973400	3.572400	-10.621000	25.569677	0.000371	20.776117
1244.347466	-2.993100	3.571200	-10.687000	25.576041	0.000370	20.767335
1245.347083	-3.002500	3.570800	-10.720000	25.607771	0.000369	20.768856
1246.348579	-3.005300	3.570800	-10.730000	25.621684	0.000369	20.781881
1247.347299	-2.993600	3.570300	-10.687000	25.566593	0.000367	20.780132
1248.345423	-3.002000	3.569900	-10.716000	25.526609	0.000367	20.783600
1249.357734	-2.997600	3.568800	-10.697000	25.553821	0.000369	20.781530
1250.359730	-2.956600	3.569900	-10.554000	25.597704	0.000366	20.782928
1251.351446	-2.986500	3.568700	-10.656000	25.597950	0.000366	20.775114
1252.350379	-2.993800	3.569400	-10.686000	25.594326	0.000367	20.774319
1253.354493	-3.010000	3.566800	-10.735000	25.561602	0.000368	20.796931
1254.346486	-2.997200	3.567000	-10.690000	25.579095	0.000366	20.778463
1255.348383	-2.997000	3.567000	-10.690000	25.585828	0.000365	20.787595
1256.345999	-3.000300	3.567500	-10.702000	25.595840	0.000364	20.771573
1257.351023	-2.998600	3.566600	-10.694000	25.623130	0.000367	20.778118
1258.347373	-3.006100	3.566100	-10.719000	25.658414	0.000365	20.786055
1259.346417	-3.007200	3.565100	-10.720000	25.650133	0.000364	20.787694
1260.358858	-2.999500	3.565800	-10.695000	25.655203	0.000364	20.779036
1261.354681	-3.015000	3.564200	-10.745000	25.694238	0.000364	20.797380
1262.349878	-3.007500	3.564800	-10.721000	25.720276	0.000363	20.787497
1263.348570	-3.030800	3.564000	-10.801000	25.719730	0.000363	20.781259
1264.355114	-3.007800	3.564600	-10.721000	25.717517	0.000362	20.790890
1265.355440	-2.980200	3.565400	-10.624000	25.670856	0.000360	20.788119
1266.350587	-3.015000	3.564900	-10.747000	25.633467	0.000363	20.789922
1267.352873	-3.016000	3.562800	-10.745000	25.616545	0.000360	20.795212
1268.353973	-2.997800	3.563600	-10.682000	25.570326	0.000360	20.790046
1269.352933	-3.003300	3.563500	-10.700000	25.570105	0.000361	20.798832
1270.355613	-3.003500	3.562200	-10.698000	25.602706	0.000360	20.804073
1271.358152	-3.002400	3.562900	-10.696000	25.631033	0.000360	20.791271
1272.353570	-2.973100	3.563600	-10.595000	25.602485	0.000358	20.796264
1273.354650	-2.990500	3.561600	-10.651000	25.606188	0.000359	20.803777
1274.354951	-2.991700	3.561100	-10.653000	25.632454	0.000357	20.799811
1275.351954	-2.987700	3.560700	-10.638000	25.616211	0.000359	20.791558
1276.354122	-3.005100	3.561700	-10.703000	25.609277	0.000357	20.794077
1277.359510	-3.006400	3.559700	-10.701000	25.573947	0.000356	20.794630
1278.366024	-2.987700	3.561400	-10.639000	25.588539	0.000356	20.805966
1279.357282	-2.992300	3.560500	-10.653000	25.635259	0.000357	20.786032
1280.359171	-3.004000	3.559900	-10.693000	25.594810	0.000359	20.791875
1281.354374	-3.011800	3.560000	-10.721000	25.642247	0.000357	20.786887
1282.357751	-3.025600	3.559200	-10.768000	25.625871	0.000359	20.795095
1283.358809	-3.002700	3.559000	-10.686000	25.624018	0.000357	20.806036
1284.359730	-2.984200	3.558700	-10.619000	25.641215	0.000355	20.800549
1285.365577	-2.990300	3.558700	-10.641000	25.672049	0.000354	20.787421
1286.358860	-2.982100	3.559500	-10.614000	25.706245	0.000356	20.822716
1287.358357	-3.028000	3.557100	-10.770000	25.709383	0.000353	20.811643
1288.361248	-3.011700	3.556300	-10.710000	25.687520	0.000355	20.822400
1289.362432	-3.016500	3.556700	-10.728000	25.642830	0.000353	20.818292
1290.363024	-3.000900	3.558100	-10.676000	25.643248	0.000354	20.812073
1291.363901	-2.989900	3.557500	-10.636000	25.651156	0.000353	20.816222
1292.361647	-2.996800	3.555200	-10.653000	25.696732	0.000353	20.804626
1293.359218	-3.000100	3.555400	-10.666000	25.705696	0.000352	20.819319
1294.365003	-3.015100	3.554800	-10.716000	25.661424	0.000354	20.818475
1295.366847	-2.993200	3.555800	-10.641000	25.705559	0.000351	20.828191
1296.359834	-2.993600	3.554800	-10.641000	25.718826	0.000352	20.807852
1297.363275	-3.011300	3.554700	-10.704000	25.718532	0.000350	20.816090
1298.363900	-3.011600	3.554900	-10.705000	25.701395	0.000350	20.839180
1299.361790	-3.022900	3.553700	-10.742000	25.683156	0.000350	20.809482
1300.366166	-3.012100	3.554100	-10.705000	25.671605	0.000349	20.792191
1301.366014	-3.003600	3.551500	-10.666000	25.659532	0.000348	20.817998
1302.362151	-2.975200	3.554000	-10.574000	25.653873	0.000349	20.809468
1303.361558	-2.982100	3.553400	-10.596000	25.664717	0.000348	20.819411
1304.366000	-3.010300	3.552300	-10.692000	25.627765	0.000348	20.819283
1305.362393	-2.980500	3.553400	-10.589000	25.694556	0.000347	20.819036
1306.367656	-3.009100	3.552500	-10.689000	25.712230	0.000350	20.814502
1307.370369	-3.009300	3.550800	-10.684000	25.756854	0.000350	20.803375
1308.369846	-3.007500	3.551100	-10.679000	25.812609	0.000347	20.829034
1309.366942	-3.010900	3.550400	-10.690000	25.739296	0.000346	20.819403
1310.369864	-2.997800	3.550700	-10.643000	25.748466	0.000348	20.810597
1311.365472	-2.979900	3.551200	-10.581000	25.718683	0.000346	20.833312
1312.369387	-2.982200	3.550000	-10.586000	25.725518	0.000346	20.816944
1313.365119	-2.979300	3.550600	-10.577000	25.742346	0.000345	20.817725
1314.378277	-3.001400	3.549200	-10.651000	25.737055	0.000347	20.828057
1315.370107	-3.003600	3.549100	-10.659000	25.676581	0.000347	20.818051
1316.369590	-2.996400	3.549000	-10.633000	25.664760	0.000347	20.820403
1317.365294	-3.005600	3.548100	-10.664000	25.630769	0.000343	20.811868
1318.372102	-2.972500	3.548900	-10.549000	25.618868	0.000345	20.789010
1319.373823	-2.995000	3.547900	-10.625000	25.649904	0.000345	20.820655
1320.373220	-2.994300	3.547100	-10.620000	25.652343	0.000344	20.815518
1321.370667	-3.014200	3.546800	-10.690000	25.664997	0.000344	20.821115
1322.377447	-2.992700	3.545600	-10.610000	25.705571	0.000346	20.813978
1323.369499	-2.989800	3.545800	-10.600000	25.769299	0.000342	20.838159
1324.372252	-3.009700	3.545800	-10.671000	25.787689	0.000341	20.842407
1325.370577	-2.979800	3.545800	-10.565000	25.777353	0.000343	20.826810
1326.375099	-3.010600	3.545200	-10.673000	25.779891	0.000341	20.822247
1327.370450	-3.001700	3.545400	-10.641000	25.773159	0.000341	20.844882
1328.369138	-2.987200	3.544900	-10.588000	25.775746	0.000341	20.845584
1329.370539	-2.995000	3.544700	-10.616000	25.762480	0.000343	20.832258
1330.374758	-2.980900	3.544200	-10.564000	25.804098	0.000342	20.850829
1331.375627	-2.996800	3.543400	-10.618000	25.772024	0.000342	20.833311
1332.372051	-3.007700	3.543800	-10.658000	25.788895	0.000339	20.840774
1333.373490	-3.006100	3.542000	-10.647000	25.763257	0.000341	20.834462
1334.370883	-2.987200	3.542000	-10.580000	25.749721	0.000338	20.827503
1335.377448	-3.019100	3.541600	-10.692000	25.688150	0.000338	20.840102
1336.372979	-3.021900	3.541400	-10.701000	25.666961	0.000337	20.825459
1337.371178	-2.978000	3.541700	-10.546000	25.702171	0.000339	20.829528
1338.370982	-2.971400	3.541100	-10.521000	25.697180	0.000340	20.826412
1339.371491	-2.986800	3.541300	-10.575000	25.707265	0.000337	20.845076
1340.376250	-3.005500	3.540100	-10.638000	25.677573	0.000338	20.826160
1341.374026	-3.016900	3.539400	-10.677000	25.639531	0.000338	20.838211
1342.378646	-3.012800	3.539800	-10.664000	25.602933	0.000335	20.842232
1343.372318	-3.006800	3.539500	-10.642000	25.638562	0.000338	20.850988
1344.372303	-2.995300	3.541000	-10.606000	25.653920	0.000337	20.847921
1345.370299	-3.004500	3.538900	-10.631000	25.641026	0.000335	20.841609
1346.372306	-3.002300	3.538600	-10.623000	25.700975	0.000337	20.835440
1347.368975	-2.991900	3.538200	-10.585000	25.748182	0.000334	20.867681
1348.379601	-3.000500	3.538000	-10.615000	25.759683	0.000336	20.843673
1349.369804	-3.000200	3.537200	-10.611000	25.718633	0.000335	20.854123
1350.372108	-3.000100	3.537100	-10.611000	25.703753	0.000336	20.853402
1351.370284	-2.988200	3.538400	-10.573000	25.719105	0.000332	20.851279
1352.370943	-3.007300	3.536300	-10.634000	25.725837	0.000334	20.857566
1353.376523	-2.994200	3.536600	-10.589000	25.760695	0.000333	20.856543
1354.370432	-2.993300	3.535900	-10.582000	25.717211	0.000332	20.846532
1355.374989	-3.016100	3.535500	-10.663000	25.721657	0.000333	20.841040
1356.370561	-2.982900	3.535300	-10.544000	25.766054	0.000334	20.847702
1357.371609	-3.005100	3.534500	-10.620000	25.779075	0.000332	20.852246
1358.371758	-3.011700	3.535200	-10.646000	25.791195	0.000332	20.856360
1359.376976	-3.008800	3.534000	-10.631000	25.760709	0.000331	20.869833
1360.373002	-3.008400	3.533700	-10.630000	25.742717	0.000330	20.849865
1361.371237	-3.002200	3.534000	-10.609000	25.761874	0.000332	20.881434
1362.378299	-3.002100	3.533100	-10.606000	25.779083	0.000328	20.857470
1363.372732	-2.991900	3.533000	-10.570000	25.783577	0.000329	20.881897
1364.373475	-2.993100	3.533700	-10.575000	25.835102	0.000329	20.872014
1365.373477	-3.008600	3.531200	-10.623000	25.789487	0.000330	20.866972
1366.372996	-2.982300	3.533100	-10.535000	25.742804	0.000327	20.852323
1367.374018	-3.005200	3.532400	-10.614000	25.710851	0.000325	20.851997
1368.378520	-2.983200	3.531600	-10.535000	25.651186	0.000329	20.867934
1369.379086	-2.976900	3.531500	-10.512000	25.658317	0.000326	20.872250
1370.374874	-2.994200	3.530600	-10.570000	25.685520	0.000327	20.864486
1371.379870	-3.018100	3.529000	-10.650000	25.708971	0.000326	20.859592
1372.377872	-2.988900	3.530700	-10.551000	25.679422	0.000327	20.876378
1373.375557	-3.001800	3.528600	-10.591000	25.671145	0.000325	20.880867
1374.374394	-3.013600	3.529400	-10.635000	25.706202	0.000326	20.871034
1375.375335	-3.009300	3.529600	-10.621000	25.730725	0.000326	20.866742
1376.375698	-2.981500	3.528700	-10.520000	25.716779	0.000326	20.888294
1377.376943	-2.987400	3.528500	-10.540000	25.645672	0.000324	20.893688
1378.378115	-3.019400	3.527400	-10.650000	25.675108	0.000325	20.878209
1379.376013	-3.000700	3.528800	-10.588000	25.720599	0.000324	20.894976
1380.384371	-3.015900	3.526300	-10.634000	25.725290	0.000324	20.883093
1381.374962	-3.006800	3.527900	-10.607000	25.763974	0.000323	20.870741
1382.376491	-2.984600	3.527700	-10.528000	25.800419	0.000323	20.873210
1383.375273	-3.005000	3.525500	-10.594000	25.763993	0.000322	20.889725
1384.381472	-3.011200	3.525000	-10.613000	25.734204	0.000323	20.888254
1385.376122	-2.998100	3.525100	-10.568000	25.758618	0.000321	20.880534
1386.399018	-3.005200	3.526500	-10.597000	25.772632	0.000322	20.891290
1387.377390	-2.966900	3.525700	-10.459000	25.788307	0.000320	20.886174
1388.385123	-2.975100	3.525100	-10.487000	25.810040	0.000320	20.871969
1389.381250	-3.005300	3.523700	-10.588000	25.814362	0.000323	20.890534
1390.378582	-2.997600	3.524400	-10.564000	25.771407	0.000321	20.905706
1391.382291	-2.992100	3.523300	-10.541000	25.755957	0.000321	20.899671
1392.379613	-2.958400	3.523200	-10.422000	25.744200	0.000320	20.881224
1393.380127	-2.970300	3.523500	-10.465000	25.735526	0.000321	20.891477
1394.385362	-2.984500	3.523900	-10.516000	25.749442	0.000317	20.899764
1395.381207	-3.012100	3.522700	-10.610000	25.714337	0.000321	20.880627
1396.383062	-2.993900	3.521800	-10.543000	25.731302	0.000319	20.884864
1397.386104	-2.990700	3.520600	-10.528000	25.671250	0.000320	20.896618
1398.379611	-2.995300	3.521500	-10.547000	25.694309	0.000318	20.900811
1399.384339	-3.008400	3.520400	-10.589000	25.690306	0.000317	20.883516
1400.394322	-3.004200	3.521000	-10.577000	25.753065	0.000318	20.862156
1401.389087	-3.008400	3.521500	-10.593000	25.730314	0.000316	20.874864
1402.382830	-3.013600	3.520100	-10.608000	25.741141	0.000317	20.885738
1403.385159	-3.001100	3.520500	-10.565000	25.725514	0.000317	20.871465
1404.384456	-3.010600	3.517800	-10.590000	25.727113	0.000318	20.874019
1405.386005	-2.997600	3.520200	-10.551000	25.735531	0.000317	20.874888
1406.389854	-3.001700	3.519400	-10.563000	25.781442	0.000315	20.872641
1407.388408	-2.987400	3.518900	-10.512000	25.789025	0.000315	20.880731
1408.388183	-3.008100	3.518500	-10.583000	25.841316	0.000315	20.867826
1409.389773	-3.007900	3.517200	-10.578000	25.882355	0.000316	20.881551
1410.400313	-2.993300	3.517500	-10.529000	25.875826	0.000315	20.853182
1411.388543	-2.995400	3.519200	-10.539000	25.839477	0.000316	20.863608
1412.389586	-2.988100	3.517000	-10.509000	25.841168	0.000317	20.861040
1413.395323	-2.965700	3.517500	-10.431000	25.754296	0.000315	20.872400
1414.387684	-2.974400	3.517200	-10.460000	25.703387	0.000315	20.863465
1415.391659	-2.998400	3.516400	-10.543000	25.693045	0.000315	20.877259
1416.394434	-2.993900	3.516500	-10.527000	25.713821	0.000313	20.866833
1417.404053	-3.001200	3.515000	-10.549000	25.710468	0.000313	20.855879
1418.393163	-3.010500	3.514800	-10.580000	25.728559	0.000313	20.861248
1419.393749	-3.037800	3.512800	-10.670000	25.734598	0.000314	20.877269
1420.392618	-3.017900	3.514900	-10.607000	25.739913	0.000312	20.863643
1421.396741	-3.018300	3.512700	-10.602000	25.711112	0.000314	20.866483
1422.396608	-2.973500	3.514600	-10.449000	25.706465	0.000312	20.866083
1423.393405	-3.008300	3.513300	-10.568000	25.719235	0.000312	20.869426
1424.395821	-2.982700	3.513100	-10.478000	25.727855	0.000310	20.852955
1425.394698	-2.997100	3.512000	-10.525000	25.778812	0.000309	20.860991
1426.393834	-2.987400	3.511300	-10.489000	25.822956	0.000309	20.843694
1427.394428	-2.991100	3.512300	-10.504000	25.840470	0.000309	20.851330
1428.402571	-2.998200	3.510600	-10.525000	25.856041	0.000311	20.859859
1429.397885	-3.001300	3.511600	-10.539000	25.860092	0.000308	20.851127
1430.395618	-3.010200	3.510100	-10.566000	25.869183	0.000307	20.845561
1431.396573	-3.037700	3.509400	-10.659000	25.809287	0.000307	20.836602
1432.398898	-2.966500	3.511600	-10.416000	25.793680	0.000305	20.856485
1433.394657	-2.989700	3.510200	-10.494000	25.783822	0.000306	20.846583
1434.393400	-2.989200	3.509200	-10.489000	25.816288	0.000305	20.857858
1435.395193	-3.000300	3.509300	-10.528000	25.805309	0.000306	20.849201
1436.392633	-2.994500	3.510100	-10.510000	25.823197	0.000305	20.837298
1437.396775	-2.998900	3.508500	-10.521000	25.768018	0.000305	20.839244
1438.397623	-3.001700	3.508500	-10.529000	25.745212	0.000303	20.838148
1439.392758	-3.007200	3.508000	-10.547000	25.730903	0.000305	20.826620
1440.402818	-3.000900	3.507500	-10.525000	25.687099	0.000305	20.837624
1441.396191	-3.009100	3.506400	-10.550000	25.642226	0.000302	20.830961
1442.401355	-2.973700	3.507200	-10.429000	25.623888	0.000303	20.845260
1443.402407	-2.983800	3.507800	-10.466000	25.645083	0.000303	20.851848
1444.395007	-3.002000	3.506100	-10.525000	25.717459	0.000305	20.843462
1445.394657	-3.002300	3.505900	-10.524000	25.730254	0.000302	20.851571
1446.401389	-2.995900	3.504800	-10.499000	25.792889	0.000301	20.833406
1447.397480	-3.006000	3.504300	-10.533000	25.815074	0.000303	20.840044
1448.393853	-2.986400	3.505200	-10.467000	25.812782	0.000301	20.817828
1449.396362	-2.997300	3.505100	-10.505000	25.792436	0.000302	20.862348
1450.400307	-2.999400	3.503800	-10.509000	25.769262	0.000301	20.838123
1451.403145	-2.969500	3.504100	-10.404000	25.737777	0.000300	20.827360
1452.402398	-2.998400	3.503000	-10.502000	25.795165	0.000301	20.850390
1453.402057	-3.001100	3.504400	-10.516000	25.823216	0.000299	20.840162
1454.399887	-2.990700	3.503700	-10.478000	25.852928	0.000299	20.826862
1455.404771	-3.001900	3.501900	-10.511000	25.840159	0.000301	20.822095
1456.400304	-3.009900	3.502800	-10.542000	25.859678	0.000300	20.853556
1457.404523	-3.007600	3.501600	-10.531000	25.863803	0.000299	20.830674
1458.404407	-3.013300	3.500600	-10.547000	25.779105	0.000298	20.837578
1459.402594	-3.002500	3.500300	-10.509000	25.772944	0.000299	20.823329
1460.406865	-2.992100	3.501400	-10.476000	25.806930	0.000298	20.826648
1461.408829	-2.982600	3.500200	-10.438000	25.873263	0.000295	20.830219
1462.410599	-3.007800	3.499500	-10.525000	25.902270	0.000296	20.831384
1463.406822	-3.002200	3.499400	-10.506000	25.921646	0.000297	20.815288
1464.409245	-2.994200	3.498000	-10.473000	25.832163	0.000295	20.845356
1465.405470	-2.998300	3.497900	-10.486000	25.827315	0.000295	20.839538
1466.410333	-3.019000	3.497500	-10.558000	25.831637	0.000297	20.811164
1467.416486	-3.032000	3.498200	-10.605000	25.874063	0.000296	20.834342
1468.405118	-3.007800	3.497600	-10.520000	25.911625	0.000296	20.833670
1469.412111	-3.013900	3.496900	-10.539000	25.927673	0.000295	20.835567
1470.416499	-2.982300	3.498400	-10.433000	25.977057	0.000295	20.825437
1471.408754	-3.011800	3.497300	-10.532000	25.918626	0.000295	20.840229
1472.413650	-2.999000	3.497700	-10.489000	25.859057	0.000294	20.836337
1473.413607	-2.992300	3.496600	-10.462000	25.835230	0.000295	20.829946
1474.408058	-3.009300	3.496100	-10.520000	25.785741	0.000294	20.832391
1475.412706	-3.014600	3.495100	-10.535000	25.777373	0.000294	20.820666
1476.422688	-3.008700	3.493600	-10.510000	25.816246	0.000292	20.838377
1477.416067	-3.012900	3.493400	-10.523000	25.812873	0.000292	20.844946
1478.417361	-2.994300	3.494400	-10.462000	25.888689	0.000293	20.818690
1479.416393	-3.001600	3.494700	-10.489000	25.910106	0.000292	20.827403
1480.414058	-3.003600	3.492800	-10.490000	25.880892	0.000293	20.830771
1481.412878	-3.014000	3.492200	-10.525000	25.916684	0.000291	20.843019
1482.413745	-2.997800	3.494200	-10.474000	25.839877	0.000291	20.832717
1483.406347	-3.004200	3.492300	-10.491000	25.848373	0.000291	20.815174
1484.414409	-3.002000	3.492600	-10.484000	25.836695	0.000292	20.838056
1485.412142	-3.006800	3.491800	-10.498000	25.847006	0.000291	20.831344
1486.408419	-3.013500	3.490900	-10.518000	25.862705	0.000290	20.821510
1487.416236	-3.009600	3.491900	-10.508000	25.851996	0.000289	20.818813
1488.414556	-3.012400	3.491100	-10.516000	25.820101	0.000290	20.818068
1489.414614	-3.020500	3.489700	-10.540000	25.839061	0.000288	20.811509
1490.414178	-3.015800	3.490000	-10.524000	25.869785	0.000289	20.821984
1491.412813	-2.975800	3.492400	-10.392000	25.865763	0.000289	20.834539
1492.407177	-3.011200	3.489800	-10.507000	25.857769	0.000289	20.831250
1493.416831	-3.012300	3.489500	-10.511000	25.866418	0.000288	20.799162
1494.413848	-2.997800	3.489000	-10.458000	25.878488	0.000286	20.825037
1495.412918	-3.019400	3.488600	-10.532000	25.883311	0.000287	20.812339
1496.415098	-2.985600	3.489500	-10.417000	25.897648	0.000286	20.830061
1497.417130	-2.975000	3.488700	-10.377000	25.920849	0.000284	20.838669
1498.418063	-2.993600	3.488300	-10.442000	25.873178	0.000286	20.795522
1499.419517	-2.996300	3.486800	-10.446000	25.845950	0.000284	20.808472
1500.416808	-3.000400	3.487300	-10.463000	25.777015	0.000286	20.816513
1501.414642	-2.991900	3.487300	-10.433000	25.776395	0.000285	20.813994
1502.413406	-2.980600	3.486500	-10.391000	25.792218	0.000283	20.813293
1503.428883	-3.003600	3.485700	-10.468000	25.788123	0.000283	20.812972
1504.415470	-2.979800	3.487200	-10.390000	25.826215	0.000285	20.796234
1505.417674	-2.985100	3.486800	-10.408000	25.900914	0.000283	20.806789
1506.421007	-2.992600	3.486100	-10.432000	25.910801	0.000282	20.804868
1507.416238	-2.998900	3.485200	-10.451000	25.887580	0.000283	20.819473
1508.416996	-3.003800	3.484600	-10.466000	25.800485	0.000282	20.801682
1509.418067	-3.004200	3.484900	-10.469000	25.774597	0.000284	20.805550
1510.419971	-3.006600	3.484300	-10.475000	25.786256	0.000280	20.800191
1511.425321	-2.960300	3.485600	-10.318000	25.791546	0.000281	20.797445
1512.421134	-2.985400	3.484600	-10.403000	25.810654	0.000281	20.823276
1513.425981	-2.979600	3.483500	-10.379000	25.862649	0.000280	20.804385
1514.420616	-2.993500	3.483600	-10.427000	25.884764	0.000279	20.817118
1515.422967	-2.984900	3.483300	-10.397000	25.905139	0.000282	20.807240
1516.421401	-3.001100	3.482800	-10.451000	25.942842	0.000280	20.812401
1517.422429	-2.993800	3.481500	-10.422000	25.894608	0.000279	20.815627
1518.427111	-2.990400	3.481400	-10.410000	25.884671	0.000279	20.788101
1519.430027	-3.009100	3.482300	-10.478000	25.881589	0.000278	20.798281
1520.435125	-2.993700	3.481300	-10.420000	25.883384	0.000277	20.799610
1521.420987	-3.005700	3.480300	-10.460000	25.879731	0.000277	20.813009
1522.422555	-2.983100	3.481400	-10.385000	25.858889	0.000279	20.797288
1523.420098	-3.007000	3.479000	-10.460000	25.801701	0.000277	20.794844
1524.421443	-3.027300	3.479500	-10.532000	25.849621	0.000279	20.786555
1525.435755	-3.023700	3.477700	-10.515000	25.886363	0.000277	20.803551
1526.421800	-3.004300	3.480000	-10.454000	25.901172	0.000275	20.789030
1527.422937	-3.013300	3.477400	-10.477000	25.912450	0.000274	20.797516
1528.430530	-2.990600	3.478800	-10.402000	25.886147	0.000278	20.788161
1529.420788	-3.009000	3.477400	-10.462000	25.895366	0.000276	20.786991
1530.423086	-3.020600	3.476300	-10.500000	25.930882	0.000276	20.810342
1531.425142	-3.009700	3.477400	-10.465000	25.921497	0.000275	20.819880
1532.433547	-3.007500	3.476700	-10.455000	25.908380	0.000275	20.795797
1533.426862	-2.979200	3.476700	-10.356000	25.890646	0.000274	20.806431
1534.430690	-2.992000	3.475300	-10.397000	25.913675	0.000273	20.793056
1535.424613	-3.011000	3.474300	-10.460000	25.954761	0.000274	20.808728
1536.424040	-2.995400	3.475400	-10.409000	25.934859	0.000275	20.793476
1537.439237	-3.016300	3.474300	-10.478000	25.904186	0.000275	20.783998
1538.425777	-2.975200	3.475600	-10.340000	25.885828	0.000274	20.814393
1539.423172	-3.007600	3.475500	-10.452000	25.879731	0.000273	20.806845
1540.427193	-3.013100	3.474400	-10.468000	25.908901	0.000273	20.796795
1541.426325	-2.988500	3.473600	-10.381000	25.952322	0.000271	20.780199
1542.424867	-2.993200	3.473600	-10.396000	25.916772	0.000273	20.799012
1543.434797	-2.992400	3.473200	-10.392000	25.934682	0.000273	20.776228
1544.428821	-2.998200	3.472700	-10.411000	25.907529	0.000271	20.792571
1545.426387	-3.000400	3.472000	-10.417000	25.894840	0.000272	20.772237
1546.427170	-2.998100	3.473200	-10.413000	25.923000	0.000271	20.768285
1547.429061	-2.986000	3.472900	-10.369000	25.976283	0.000271	20.787202
1548.430258	-2.991800	3.471200	-10.383000	25.992649	0.000272	20.793213
1549.427755	-2.986200	3.471300	-10.365000	26.037482	0.000270	20.776617
1550.425702	-3.012200	3.470700	-10.453000	26.045481	0.000270	20.789395
1551.427259	-3.003900	3.470500	-10.424000	26.031047	0.000269	20.776316
1552.428691	-2.988900	3.470200	-10.371000	25.999949	0.000268	20.814772
1553.425589	-3.004900	3.469300	-10.424000	25.976101	0.000269	20.799347
1554.430756	-3.006900	3.470800	-10.435000	25.954410	0.000268	20.779926
1555.428999	-2.995000	3.468700	-10.387000	25.970353	0.000270	20.777925
1556.426879	-2.991400	3.469100	-10.377000	25.967349	0.000267	20.782020
1557.427746	-3.020900	3.468000	-10.476000	25.994250	0.000265	20.794822
1558.432406	-3.017800	3.468300	-10.466000	25.998714	0.000265	20.803574
1559.428797	-3.002100	3.468800	-10.413000	25.983783	0.000266	20.785254
1560.428988	-3.007200	3.467700	-10.428000	25.963017	0.000266	20.771978
1561.432530	-3.005900	3.468600	-10.425000	25.913052	0.000265	20.761136
1562.433207	-3.023400	3.467800	-10.484000	25.940132	0.000265	20.773642
1563.429027	-3.040300	3.466200	-10.537000	25.961315	0.000265	20.799192
1564.432962	-3.003500	3.465700	-10.409000	25.937889	0.000265	20.770915
1565.433773	-3.014800	3.465800	-10.448000	25.910037	0.000264	20.792247
1566.431032	-3.000100	3.464200	-10.392000	25.911159	0.000262	20.791477
1567.431125	-3.014900	3.464300	-10.444000	25.898685	0.000264	20.783213
1568.427793	-2.987600	3.466100	-10.354000	25.888798	0.000264	20.769961
1569.428504	-2.983300	3.464500	-10.335000	25.916370	0.000263	20.773478
1570.433685	-3.016400	3.463800	-10.448000	25.919423	0.000264	20.774648
1571.429899	-3.007900	3.463300	-10.416000	25.968679	0.000260	20.766286
1572.429609	-3.013100	3.462600	-10.432000	25.989592	0.000263	20.796306
1573.432865	-2.983100	3.463800	-10.332000	25.972430	0.000262	20.789021
1574.429365	-2.983200	3.463200	-10.330000	25.976825	0.000259	20.767832
1575.429893	-2.997200	3.461400	-10.373000	25.951339	0.000260	20.786324
1576.433773	-3.008200	3.461600	-10.413000	25.890730	0.000260	20.756255
1577.428555	-3.018300	3.460300	-10.443000	25.926871	0.000260	20.769803
1578.429404	-3.011200	3.460600	-10.420000	25.924511	0.000259	20.775967
1579.434074	-3.004300	3.460600	-10.396000	25.946325	0.000259	20.755682
1580.430713	-3.005400	3.461600	-10.403000	25.935794	0.000260	20.775923
1581.430438	-2.998300	3.462000	-10.379000	25.950253	0.000259	20.760103
1582.433287	-2.994100	3.460100	-10.359000	25.930082	0.000258	20.764494
1583.429292	-2.987100	3.459700	-10.334000	25.882490	0.000259	20.780694
1584.436833	-2.976900	3.461800	-10.305000	25.881718	0.000259	20.784186
1585.435781	-3.016100	3.458100	-10.429000	25.915480	0.000257	20.775429
1586.437862	-3.008500	3.459600	-10.408000	25.958233	0.000257	20.767645
1587.431489	-3.003900	3.459000	-10.390000	25.942805	0.000257	20.771112
1588.439690	-2.991500	3.460200	-10.349000	25.927708	0.000256	20.760212
1589.436789	-3.008900	3.458300	-10.404000	25.927757	0.000257	20.762632
1590.430234	-3.009600	3.457300	-10.404000	25.896041	0.000255	20.771074
1591.435716	-3.021500	3.457100	-10.445000	25.895367	0.000254	20.759491
1592.432413	-2.992400	3.457400	-10.345000	25.889237	0.000255	20.743849
1593.430836	-2.988800	3.456000	-10.328000	25.932517	0.000255	20.766940
1594.439841	-3.004600	3.457700	-10.387000	25.915398	0.000254	20.767760
1595.431486	-2.996700	3.456100	-10.356000	25.915771	0.000253	20.742056
1596.436778	-3.004800	3.456800	-10.386000	25.904321	0.000253	20.761848
1597.442017	-2.987700	3.456100	-10.325000	25.868780	0.000255	20.762179
1598.433598	-2.982700	3.455300	-10.305000	25.838689	0.000253	20.750917
1599.436044	-2.985900	3.455700	-10.317000	25.813009	0.000253	20.755941
1600.438591	-3.006500	3.453800	-10.383000	25.832440	0.000252	20.750330
1601.440740	-2.982300	3.454900	-10.302000	25.904405	0.000252	20.747233
1602.438233	-2.990900	3.455700	-10.335000	25.938112	0.000250	20.762130
1603.444858	-3.011200	3.453600	-10.399000	25.942562	0.000252	20.764703
1604.442670	-3.011200	3.453200	-10.398000	25.891667	0.000252	20.739177
1605.438743	-3.008500	3.453200	-10.388000	25.887217	0.000248	20.754622
1606.442740	-3.025400	3.451400	-10.441000	25.936628	0.000252	20.748784
1607.443212	-3.012400	3.452500	-10.399000	25.969960	0.000251	20.776108
1608.442069	-3.008400	3.453300	-10.387000	25.968899	0.000248	20.769352
1609.449862	-2.997200	3.452200	-10.346000	25.937651	0.000249	20.747915
1610.446811	-3.021700	3.452000	-10.430000	25.966091	0.000249	20.726227
1611.438888	-2.974900	3.451400	-10.266000	25.950517	0.000248	20.732865
1612.441779	-3.002900	3.450300	-10.360000	25.973913	0.000249	20.758742
1613.455171	-3.019300	3.449900	-10.416000	25.987329	0.000248	20.746142
1614.445403	-2.991100	3.450100	-10.319000	26.005184	0.000249	20.763607
1615.448034	-2.990000	3.450900	-10.317000	26.011570	0.000248	20.758643
1616.445099	-3.005700	3.448200	-10.363000	26.017877	0.000247	20.758342
1617.458716	-3.013700	3.449400	-10.395000	25.967777	0.000248	20.738352
1618.450214	-2.991100	3.449900	-10.317000	25.972369	0.000247	20.736801
1619.449414	-2.990600	3.449800	-10.315000	25.995470	0.000247	20.743415
1620.455313	-2.998700	3.448600	-10.340000	26.036277	0.000245	20.753595
1621.443729	-3.037000	3.447300	-10.468000	26.002047	0.000245	20.756188
1622.447435	-3.026100	3.446900	-10.429000	25.983764	0.000247	20.743983
1623.446424	-3.017200	3.447500	-10.399000	25.961858	0.000246	20.755640
1624.461980	-3.012900	3.445400	-10.380000	25.956219	0.000244	20.764199
1625.448093	-2.993800	3.448300	-10.322000	25.939896	0.000244	20.749697
1626.458639	-3.008000	3.446100	-10.365000	25.940368	0.000246	20.748275
1627.459537	-3.002400	3.444800	-10.340000	25.991163	0.000245	20.752364
1628.455606	-3.016800	3.446500	-10.397000	26.010463	0.000245	20.744728
1629.448357	-2.984000	3.445700	-10.281000	26.030707	0.000246	20.746576
1630.456198	-2.981700	3.444800	-10.270000	25.969232	0.000242	20.733175
1631.446529	-2.985100	3.446500	-10.287000	25.969084	0.000245	20.752943
1632.450093	-3.000100	3.443400	-10.330000	25.998419	0.000242	20.739740
1633.455259	-3.007700	3.443700	-10.357000	26.022310	0.000243	20.733872
1634.450992	-2.993400	3.443900	-10.309000	26.009003	0.000244	20.732830
1635.451355	-2.985000	3.443400	-10.277000	26.000258	0.000244	20.758657
1636.451219	-3.011100	3.442000	-10.363000	26.033317	0.000241	20.725490
1637.450658	-3.001700	3.443500	-10.336000	26.036124	0.000243	20.761028
1638.467099	-2.972700	3.443800	-10.237000	25.974350	0.000241	20.736895
1639.459059	-2.977400	3.443100	-10.251000	25.993075	0.000239	20.761872
1640.456725	-2.988100	3.441900	-10.284000	26.019853	0.000242	20.763646
1641.461151	-3.013300	3.442200	-10.371000	26.030603	0.000241	20.760697
1642.476633	-3.006000	3.442000	-10.345000	26.057901	0.000240	20.740233
1643.460072	-3.019200	3.440000	-10.385000	26.080927	0.000240	20.723538
1644.456606	-3.000300	3.440700	-10.322000	26.060457	0.000241	20.750388
1645.463539	-3.013200	3.439900	-10.364000	26.009465	0.000239	20.760321
1646.454933	-3.027000	3.438700	-10.408000	25.933308	0.000237	20.747820
1647.457856	-3.000900	3.441200	-10.326000	25.940388	0.000239	20.752088
1648.455589	-3.022400	3.437400	-10.388000	25.931789	0.000237	20.736336
1649.457719	-2.986200	3.439800	-10.271000	25.943165	0.000238	20.745869
1650.475288	-2.971000	3.439600	-10.218000	25.984373	0.000237	20.734637
1651.455072	-2.989700	3.439300	-10.281000	25.964930	0.000237	20.744501
1652.460246	-2.989900	3.437300	-10.276000	25.960780	0.000237	20.754557
1653.471568	-3.007400	3.438200	-10.338000	25.997415	0.000236	20.753905
1654.455584	-3.017900	3.436600	-10.370000	26.009710	0.000236	20.747765
1655.457579	-3.014600	3.436800	-10.360000	26.029305	0.000235	20.760815
1656.476566	-3.001700	3.436500	-10.315000	26.059292	0.000237	20.759175
1657.462611	-2.993800	3.435100	-10.283000	26.030053	0.000235	20.759669
1658.464711	-2.983000	3.436800	-10.251000	26.004219	0.000235	20.748886
1659.473131	-3.006900	3.434300	-10.326000	25.944753	0.000234	20.736084
1660.467765	-3.004900	3.435100	-10.322000	25.876837	0.000235	20.752255
1661.476337	-3.016200	3.434600	-10.358000	25.834872	0.000233	20.744238
1662.464489	-2.999700	3.435600	-10.305000	25.900633	0.000232	20.727321
1663.464866	-2.994600	3.435000	-10.286000	25.957117	0.000234	20.744238
1664.474191	-2.999100	3.433900	-10.298000	25.982597	0.000231	20.755139
1665.465903	-2.988300	3.433900	-10.261000	26.000979	0.000232	20.770762
1666.465973	-3.013000	3.431800	-10.339000	26.020377	0.000230	20.751370
1667.480732	-3.010700	3.432900	-10.334000	26.039652	0.000232	20.769789
1668.479602	-3.011200	3.433000	-10.336000	26.039249	0.000233	20.739985
1669.474744	-3.009800	3.432400	-10.330000	26.031551	0.000230	20.762597
1670.466751	-3.022400	3.431800	-10.371000	25.989873	0.000232	20.757233
1671.472354	-2.999400	3.431600	-10.292000	26.017265	0.000230	20.763891
1672.467846	-2.993500	3.431400	-10.271000	26.020323	0.000229	20.753686
1673.468378	-3.016800	3.430500	-10.349000	26.029431	0.000231	20.759519
1674.466966	-3.019600	3.428700	-10.352000	26.000673	0.000229	20.771403
1675.464495	-3.015400	3.430100	-10.342000	26.018926	0.000230	20.770302
1676.465302	-3.004800	3.430900	-10.308000	25.995526	0.000229	20.771447
1677.468474	-2.988500	3.429400	-10.247000	25.979209	0.000229	20.750787
1678.465389	-3.017900	3.429400	-10.349000	25.965026	0.000228	20.763090
1679.465936	-2.986600	3.429700	-10.242000	25.919295	0.000228	20.769778
1680.469465	-2.997400	3.428200	-10.275000	25.946713	0.000227	20.791634
1681.468958	-2.989300	3.428300	-10.247000	25.892883	0.000229	20.767901
1682.469951	-2.995600	3.427700	-10.266000	25.900208	0.000226	20.784743
1683.469321	-3.023100	3.428000	-10.362000	25.950587	0.000227	20.745264
1684.473026	-2.980800	3.429100	-10.221000	25.908134	0.000227	20.759040
1685.468831	-3.000900	3.427100	-10.284000	25.955552	0.000225	20.749778
1686.469309	-2.981600	3.426400	-10.216000	26.000466	0.000227	20.755548
1687.471325	-3.001300	3.426100	-10.281000	25.992910	0.000225	20.750801
1688.471159	-2.990500	3.425600	-10.242000	25.974179	0.000226	20.759484
1689.472398	-2.970900	3.426000	-10.177000	25.971348	0.000227	20.769441
1690.484888	-3.012200	3.424600	-10.314000	25.955154	0.000226	20.756965
1691.469923	-2.998700	3.423900	-10.267000	25.969081	0.000225	20.765742
1692.480002	-2.995900	3.425400	-10.261000	25.996208	0.000224	20.784935
1693.474786	-3.012800	3.424000	-10.315000	26.012824	0.000225	20.771758
1694.473367	-2.991000	3.424000	-10.241000	26.011807	0.000224	20.783538
1695.485056	-2.990600	3.425300	-10.243000	25.968137	0.000224	20.760526
1696.491731	-2.998000	3.423900	-10.263000	25.985250	0.000222	20.777719
1697.473915	-3.003300	3.424000	-10.282000	26.030153	0.000222	20.758347
1698.474734	-3.001300	3.424200	-10.276000	26.071160	0.000220	20.763514
1699.490196	-3.001500	3.422700	-10.272000	26.085740	0.000220	20.772947
1700.476032	-3.023500	3.420700	-10.342000	26.054840	0.000220	20.776513
1701.475456	-3.018500	3.421600	-10.328000	26.018379	0.000219	20.773071
1702.488276	-2.999600	3.421900	-10.263000	26.042226	0.000222	20.777116
1703.476642	-3.010000	3.419900	-10.293000	26.052333	0.000218	20.784900
1704.478429	-2.996400	3.422300	-10.253000	26.089786	0.000221	20.776538
1705.476851	-3.008800	3.420800	-10.291000	26.088645	0.000219	20.784401
1706.478860	-2.989000	3.420000	-10.221000	26.089589	0.000219	20.768280
1707.481285	-2.980000	3.420900	-10.193000	26.046940	0.000218	20.786594
1708.488366	-2.996100	3.418900	-10.242000	26.097213	0.000219	20.759345
1709.480649	-2.975700	3.420700	-10.178000	26.111125	0.000217	20.793238
1710.482703	-2.993800	3.420200	-10.239000	26.136484	0.000219	20.797856
1711.478253	-2.998100	3.419300	-10.250000	26.107699	0.000217	20.771777
1712.480735	-3.033000	3.418300	-10.367000	26.039444	0.000217	20.788071
1713.483716	-3.006000	3.417100	-10.271000	26.021093	0.000217	20.785281
1714.482517	-3.005600	3.417400	-10.270000	26.007584	0.000215	20.777872
1715.481167	-2.968500	3.419000	-10.148000	26.056517	0.000216	20.782940
1716.477548	-2.995200	3.416500	-10.233000	26.080339	0.000214	20.778426
1717.482591	-3.014900	3.416100	-10.298000	26.110914	0.000214	20.783543
1718.487543	-2.991300	3.415400	-10.216000	26.130286	0.000218	20.784042
1719.479055	-2.987000	3.416300	-10.203000	26.197420	0.000216	20.772316
1720.481486	-2.993300	3.415700	-10.223000	26.226404	0.000216	20.791011
1721.492411	-3.007500	3.415100	-10.270000	26.231422	0.000216	20.787045
1722.481130	-3.002900	3.415000	-10.253000	26.215606	0.000214	20.772100
1723.486708	-3.011200	3.415400	-10.284000	26.213375	0.000215	20.793565
1724.497923	-3.016400	3.414800	-10.300000	26.151836	0.000212	20.781040
1725.485276	-3.003100	3.414500	-10.253000	26.094045	0.000212	20.805474
1726.483253	-3.004600	3.415000	-10.260000	26.093254	0.000214	20.784290
1727.485179	-2.980000	3.414300	-10.172000	26.077037	0.000211	20.766099
1728.488792	-3.008100	3.412900	-10.266000	26.077583	0.000211	20.788933
1729.495704	-2.995000	3.413200	-10.221000	26.046466	0.000211	20.786118
1730.490122	-2.963700	3.413200	-10.114000	26.044859	0.000212	20.784504
1731.485614	-3.026300	3.412200	-10.325000	26.027693	0.000211	20.774368
1732.488840	-3.005100	3.411800	-10.252000	26.061947	0.000210	20.791240
1733.488751	-2.988900	3.412600	-10.199000	26.102762	0.000209	20.791947
1734.494687	-3.029200	3.410000	-10.328000	26.122227	0.000210	20.792540
1735.486910	-2.992800	3.411900	-10.210000	26.111054	0.000212	20.784632
1736.489675	-3.003100	3.410400	-10.241000	26.095113	0.000209	20.792323
1737.488176	-3.019600	3.408500	-10.290000	26.136812	0.000209	20.817625
1738.485289	-2.970200	3.410800	-10.129000	26.132919	0.000209	20.800438
1739.487565	-2.989500	3.410400	-10.194000	26.151121	0.000209	20.799761
1740.497568	-2.999100	3.409100	-10.223000	26.141388	0.000210	20.776706
1741.489604	-3.001600	3.408800	-10.230000	26.159050	0.000207	20.797771
1742.506085	-2.992600	3.408100	-10.198000	26.198067	0.000207	20.802365
1743.497594	-3.006700	3.408700	-10.248000	26.155029	0.000207	20.787567
1744.486210	-2.997000	3.409300	-10.217000	26.112456	0.000208	20.798843
1745.494440	-2.993200	3.408000	-10.200000	26.090956	0.000208	20.801422
1746.488595	-2.988800	3.406900	-10.182000	26.098364	0.000207	20.816452
1747.489861	-3.004400	3.406500	-10.234000	26.135766	0.000208	20.790023
1748.488688	-3.012800	3.405600	-10.258000	26.151859	0.000205	20.783908
1749.489911	-3.020600	3.405600	-10.286000	26.097947	0.000207	20.809394
1750.490247	-2.992400	3.406300	-10.191000	26.138578	0.000205	20.809444
1751.500825	-2.998800	3.404800	-10.209000	26.161632	0.000206	20.797047
1752.490855	-2.980500	3.406100	-10.151000	26.183013	0.000205	20.809997
1753.489915	-3.008500	3.404700	-10.242000	26.169463	0.000205	20.793536
1754.500722	-2.996200	3.404400	-10.200000	26.211605	0.000204	20.833038
1755.490767	-3.001100	3.404700	-10.217000	26.257674	0.000204	20.821012
1756.492873	-2.987300	3.405300	-10.172000	26.256209	0.000204	20.788246
1757.492031	-2.994400	3.403500	-10.190000	26.253585	0.000203	20.805998
1758.502917	-3.000600	3.404000	-10.213000	26.224656	0.000203	20.804902
1759.489638	-2.985900	3.404800	-10.164000	26.136019	0.000204	20.798812
1760.490874	-3.002600	3.402600	-10.215000	26.118816	0.000201	20.812345
1761.489080	-2.991100	3.402000	-10.175000	26.049200	0.000201	20.813521
1762.493673	-3.018700	3.400500	-10.264000	26.059656	0.000201	20.795103
1763.491797	-2.978400	3.404100	-10.137000	26.102807	0.000201	20.806691
1764.495848	-2.997400	3.402100	-10.196000	26.111301	0.000200	20.798630
1765.497441	-2.984700	3.402100	-10.153000	26.057062	0.000201	20.809092
1766.497426	-3.003300	3.401200	-10.214000	26.093453	0.000202	20.802982
1767.495861	-3.021300	3.400300	-10.272000	26.089531	0.000200	20.810421
1768.495185	-2.987500	3.400400	-10.158000	26.115013	0.000200	20.800464
1769.515219	-2.999200	3.399000	-10.193000	26.061118	0.000199	20.794201
1770.500319	-2.984500	3.398900	-10.143000	26.018596	0.000198	20.808850
1771.493963	-2.984800	3.399900	-10.146000	26.001960	0.000197	20.796404
1772.508956	-3.010600	3.397700	-10.228000	26.064028	0.000200	20.808505
1773.495149	-3.008700	3.397500	-10.222000	26.142442	0.000197	20.810481
1774.499086	-2.996500	3.398900	-10.184000	26.194495	0.000199	20.789292
1775.493996	-3.011900	3.398400	-10.235000	26.181907	0.000196	20.804144
1776.497031	-3.015700	3.397500	-10.245000	26.132085	0.000199	20.803393
1777.495807	-2.996200	3.397700	-10.179000	26.124786	0.000199	20.818344
1778.497127	-2.984800	3.398000	-10.140000	26.149918	0.000196	20.817045
1779.501225	-2.990700	3.398400	-10.163000	26.106958	0.000195	20.803750
1780.502056	-2.978000	3.396600	-10.114000	26.130031	0.000196	20.798485
1781.496717	-3.007500	3.395000	-10.210000	26.123297	0.000196	20.825382
1782.496271	-3.000300	3.395000	-10.186000	26.152701	0.000194	20.823159
1783.514108	-2.996200	3.396200	-10.175000	26.123327	0.000195	20.808343
1784.499665	-2.997100	3.395600	-10.177000	26.117020	0.000194	20.830455
1785.504697	-3.039000	3.393600	-10.313000	26.136662	0.000195	20.817949
1786.497261	-3.015500	3.393000	-10.231000	26.159356	0.000193	20.833640
1787.501164	-2.983100	3.395000	-10.127000	26.168136	0.000195	20.810220
1788.502759	-2.995500	3.393900	-10.166000	26.172230	0.000193	20.807696
1789.501852	-2.987800	3.395400	-10.144000	26.196240	0.000195	20.833719
1790.512806	-3.008100	3.393600	-10.206000	26.178940	0.000193	20.822025
1791.503495	-3.013700	3.392300	-10.222000	26.133094	0.000192	20.821476
1792.504275	-3.010000	3.391100	-10.206000	26.119887	0.000194	20.816266
1793.502267	-3.016100	3.391400	-10.228000	26.137297	0.000193	20.817639
1794.508438	-3.007600	3.392300	-10.202000	26.158134	0.000192	20.830515
1795.506379	-3.003400	3.391700	-10.185000	26.161663	0.000191	20.819363
1796.519752	-2.971000	3.392700	-10.079000	26.151601	0.000192	20.826796
1797.506867	-2.989300	3.391600	-10.138000	26.116166	0.000190	20.828175
1798.509400	-3.000200	3.391100	-10.173000	26.102885	0.000190	20.826684
1799.509877	-3.025000	3.391400	-10.258000	26.128588	0.000188	20.824535
1800.512783	-2.998700	3.390000	-10.165000	26.151342	0.000189	20.828432
1801.511085	-3.007300	3.390300	-10.195000	26.213873	0.000192	20.838162
1802.515975	-2.987900	3.390900	-10.131000	26.235013	0.000192	20.802033
1803.512291	-2.977600	3.390000	-10.093000	26.284972	0.000188	20.846074
1804.509594	-2.987000	3.389500	-10.123000	26.308587	0.000188	20.811486
1805.508849	-2.993700	3.388300	-10.143000	26.305143	0.000188	20.848801
1806.508322	-2.969100	3.390000	-10.064000	26.303531	0.000188	20.836276
1807.509768	-2.975900	3.388400	-10.082000	26.239339	0.000187	20.836251
1808.508410	-2.997400	3.387800	-10.154000	26.196106	0.000187	20.842593
1809.509462	-3.008900	3.387000	-10.190000	26.199194	0.000186	20.855652
1810.512007	-3.006100	3.386800	-10.180000	26.235820	0.000185	20.827500
1811.512031	-3.008400	3.385800	-10.185000	26.258149	0.000187	20.829076
1812.510543	-2.997500	3.386500	-10.150000	26.253854	0.000185	20.845622
1813.514266	-3.011300	3.386900	-10.199000	26.203746	0.000185	20.839365
1814.512651	-3.018400	3.385800	-10.218000	26.194480	0.000184	20.816778
1815.514208	-3.006300	3.386000	-10.179000	26.183369	0.000186	20.836432
1816.516082	-3.001200	3.385900	-10.161000	26.131959	0.000184	20.848784
1817.519821	-2.992000	3.385200	-10.128000	26.112852	0.000184	20.849974
1818.514188	-2.972800	3.385000	-10.061000	26.174433	0.000182	20.833617
1819.521386	-2.996400	3.384100	-10.139000	26.163280	0.000183	20.837109
1820.518374	-2.994800	3.384400	-10.134000	26.157029	0.000182	20.842206
1821.515125	-2.979300	3.384300	-10.081000	26.131774	0.000182	20.842434
1822.513918	-3.007900	3.384100	-10.178000	26.153706	0.000183	20.844558
1823.517323	-3.005800	3.383200	-10.169000	26.194881	0.000184	20.822397
1824.514503	-3.023500	3.382500	-10.226000	26.153431	0.000180	20.835747
1825.514289	-3.013700	3.382400	-10.193000	26.101136	0.000181	20.841521
1826.520502	-2.983900	3.382600	-10.093000	26.102803	0.000182	20.830868
1827.519119	-2.995900	3.382700	-10.133000	26.150139	0.000181	20.835758
1828.528490	-3.006100	3.380800	-10.162000	26.200909	0.000182	20.840307
1829.517634	-2.992500	3.382100	-10.120000	26.228950	0.000182	20.844777
1830.517035	-2.997000	3.380200	-10.130000	26.271341	0.000180	20.848022
1831.521935	-3.014100	3.380500	-10.188000	26.271248	0.000179	20.853619
1832.529286	-2.992700	3.380600	-10.117000	26.271794	0.000180	20.861753
1833.517009	-2.988900	3.379900	-10.101000	26.242363	0.000179	20.850195
1834.517077	-3.008200	3.379100	-10.164000	26.227564	0.000179	20.856661
1835.518643	-2.991900	3.379100	-10.109000	26.179888	0.000180	20.880822
1836.521791	-3.005700	3.378700	-10.154000	26.228691	0.000178	20.851629
1837.523722	-3.000900	3.378500	-10.138000	26.229561	0.000178	20.864830
1838.520878	-3.003200	3.377100	-10.141000	26.284268	0.000177	20.843470
1839.528875	-3.020200	3.378100	-10.201000	26.296492	0.000176	20.861443
1840.532207	-2.974600	3.377800	-10.047000	26.300266	0.000175	20.848167
1841.533650	-3.006400	3.376900	-10.151000	26.302906	0.000177	20.852243
1842.527596	-3.007300	3.377800	-10.157000	26.343555	0.000175	20.860851
1843.526818	-2.999300	3.376400	-10.126000	26.297937	0.000176	20.868585
1844.525581	-2.981700	3.376100	-10.065000	26.216513	0.000175	20.868314
1845.526849	-3.007300	3.376100	-10.151000	26.248726	0.000175	20.871762
1846.534831	-3.004700	3.375600	-10.142000	26.265491	0.000175	20.856842
1847.527444	-2.997900	3.376300	-10.121000	26.229730	0.000172	20.865000
1848.536578	-3.002600	3.376000	-10.136000	26.231549	0.000174	20.851182
1849.541605	-2.967300	3.375100	-10.014000	26.220146	0.000176	20.844465
1850.533766	-2.997600	3.373900	-10.113000	26.303744	0.000175	20.863041
1851.530156	-2.999000	3.374000	-10.118000	26.252640	0.000173	20.870953
1852.538027	-2.984000	3.373700	-10.066000	26.289835	0.000173	20.857124
1853.530764	-2.996800	3.373700	-10.109000	26.311887	0.000172	20.854156
1854.531507	-3.012500	3.371900	-10.156000	26.314393	0.000175	20.863786
1855.533950	-3.004900	3.373800	-10.138000	26.328449	0.000173	20.858947
1856.531378	-3.012900	3.371700	-10.157000	26.338131	0.000172	20.851133
1857.532995	-2.992500	3.372100	-10.090000	26.259240	0.000173	20.856250
1858.535633	-2.997000	3.372200	-10.106000	26.263309	0.000171	20.848011
1859.532564	-2.999300	3.371600	-10.111000	26.313872	0.000173	20.849513
1860.536499	-3.003000	3.370700	-10.122000	26.356727	0.000171	20.856546
1861.535750	-3.009300	3.370600	-10.142000	26.341482	0.000173	20.848812
1862.533957	-3.031900	3.370300	-10.216000	26.323450	0.000170	20.841595
1863.538100	-2.987000	3.370500	-10.066000	26.311282	0.000172	20.839323
1864.533626	-3.003400	3.369800	-10.120000	26.324394	0.000170	20.847759
1865.539876	-2.970400	3.370900	-10.012000	26.381406	0.000170	20.843892
1866.542082	-3.014400	3.370300	-10.159000	26.360564	0.000170	20.835273
1867.538472	-3.014400	3.369200	-10.155000	26.282048	0.000168	20.851196
1868.537807	-2.993800	3.369400	-10.086000	26.327863	0.000170	20.824694
1869.537495	-2.999900	3.369000	-10.105000	26.315326	0.000169	20.829638
1870.538591	-2.993900	3.368000	-10.083000	26.259027	0.000169	20.840390
1871.538827	-3.007500	3.366800	-10.125000	26.286368	0.000169	20.837046
1872.538488	-3.016100	3.366300	-10.152000	26.320289	0.000167	20.842212
1873.538203	-2.998000	3.366100	-10.091000	26.399115	0.000167	20.826130
1874.537789	-3.007700	3.366800	-10.126000	26.440556	0.000169	20.855926
1875.539315	-2.991000	3.366400	-10.068000	26.395548	0.000167	20.824441
1876.537348	-2.993700	3.366400	-10.077000	26.384594	0.000167	20.824337
1877.538165	-3.008000	3.365800	-10.124000	26.418831	0.000166	20.846419
1878.538198	-2.978400	3.366000	-10.024000	26.389852	0.000164	20.820138
1879.538933	-2.990300	3.365400	-10.062000	26.358341	0.000165	20.842996
1880.544610	-3.000400	3.363900	-10.092000	26.346571	0.000164	20.823107
1881.537979	-3.018600	3.364600	-10.155000	26.399080	0.000164	20.832732
1882.541010	-3.012900	3.363700	-10.134000	26.417479	0.000163	20.835103
1883.542026	-2.992200	3.363100	-10.062000	26.422123	0.000163	20.847830
1884.546550	-3.001200	3.362600	-10.091000	26.428776	0.000162	20.814690
1885.545268	-3.023400	3.363100	-10.167000	26.366356	0.000163	20.824025
1886.547369	-3.002700	3.364000	-10.099000	26.375369	0.000162	20.829764
1887.542359	-2.984300	3.363300	-10.036000	26.368060	0.000162	20.832850
1888.543567	-3.003500	3.362700	-10.099000	26.326848	0.000161	20.826045
1889.547029	-2.984000	3.362500	-10.033000	26.304870	0.000161	20.825768
1890.545059	-3.003300	3.362100	-10.096000	26.298338	0.000160	20.820626
1891.543138	-2.989500	3.361900	-10.050000	26.305243	0.000162	20.839419
1892.544774	-2.995300	3.361300	-10.067000	26.299901	0.000160	20.823145
1893.545598	-3.015200	3.360100	-10.131000	26.310054	0.000159	20.819599
1894.544130	-2.997100	3.361800	-10.074000	26.282921	0.000160	20.820780
1895.545383	-3.022400	3.360800	-10.157000	26.305568	0.000159	20.808926
1896.544791	-3.003900	3.359200	-10.090000	26.336333	0.000158	20.820878
1897.546623	-3.013400	3.360500	-10.126000	26.364272	0.000160	20.825250
1898.546432	-3.036500	3.358700	-10.198000	26.356099	0.000157	20.827941
1899.544481	-3.010100	3.358800	-10.110000	26.376956	0.000159	20.818557
1900.558562	-2.993400	3.358900	-10.053000	26.445410	0.000159	20.829986
1901.546365	-3.000000	3.357800	-10.072000	26.519771	0.000157	20.797097
1902.546864	-3.005100	3.358100	-10.090000	26.526381	0.000157	20.807060
1903.548422	-3.016900	3.356400	-10.125000	26.551725	0.000158	20.811672
1904.547863	-2.985200	3.358200	-10.024000	26.498152	0.000155	20.820410
1905.548073	-2.975300	3.357100	-9.987000	26.424015	0.000155	20.822707
1906.548805	-2.984400	3.358300	-10.022000	26.419426	0.000154	20.803395
1907.551325	-2.987600	3.356800	-10.028000	26.424517	0.000157	20.806616
1908.547389	-2.988100	3.357300	-10.031000	26.435667	0.000157	20.803598
1909.548154	-3.003600	3.355800	-10.079000	26.456650	0.000155	20.817576
1910.548460	-3.016400	3.354200	-10.117000	26.491755	0.000154	20.818722
1911.549088	-3.001800	3.355300	-10.071000	26.457692	0.000154	20.805347
1912.551606	-3.010800	3.354400	-10.099000	26.478729	0.000154	20.803258
1913.554660	-2.993800	3.354900	-10.043000	26.537424	0.000154	20.794926
1914.549463	-2.998200	3.354000	-10.055000	26.554601	0.000155	20.814090
1915.553814	-3.009400	3.352700	-10.089000	26.590853	0.000153	20.797426
1916.552641	-3.006900	3.353300	-10.082000	26.586161	0.000151	20.812149
1917.557982	-2.999800	3.351900	-10.053000	26.566503	0.000154	20.805191
1918.556799	-2.983900	3.352500	-10.002000	26.500911	0.000150	20.810856
1919.551219	-2.992300	3.353200	-10.032000	26.469783	0.000150	20.791895
1920.550830	-3.017100	3.351700	-10.112000	26.457946	0.000153	20.799912
1921.552080	-3.019100	3.351000	-10.116000	26.445528	0.000151	20.801181
1922.555231	-3.006900	3.351200	-10.075000	26.465493	0.000150	20.798964
1923.553518	-3.003200	3.350900	-10.062000	26.414594	0.000151	20.792375
1924.554405	-3.002800	3.351300	-10.062000	26.426521	0.000152	20.800096
1925.554596	-2.993200	3.351000	-10.029000	26.498673	0.000148	20.796278
1926.553833	-3.006500	3.350900	-10.074000	26.513817	0.000148	20.802491
1927.555138	-3.007000	3.350400	-10.073000	26.494855	0.000150	20.778690
1928.560498	-2.979000	3.351700	-9.983100	26.521822	0.000147	20.781141
1929.554755	-2.994500	3.349600	-10.029000	26.500222	0.000146	20.802576
1930.557891	-3.013700	3.348100	-10.089000	26.536156	0.000148	20.796023
1931.563799	-3.001300	3.350200	-10.054000	26.568232	0.000147	20.790333
1932.563550	-3.011700	3.349300	-10.087000	26.541522	0.000146	20.776761
1933.562918	-2.986900	3.348500	-10.001000	26.504533	0.000146	20.752855
1934.563555	-3.019500	3.347800	-10.108000	26.477503	0.000146	20.801077
1935.567769	-2.987300	3.347500	-9.998600	26.432968	0.000146	20.792825
1936.565448	-2.996500	3.347200	-10.028000	26.424924	0.000143	20.777627
1937.561795	-2.988200	3.346800	-9.999100	26.398511	0.000144	20.799444
1938.563469	-2.998900	3.346600	-10.035000	26.390963	0.000142	20.764356
1939.562187	-3.013600	3.345900	-10.082000	26.424930	0.000144	20.771469
1940.572456	-2.997700	3.345700	-10.028000	26.465639	0.000144	20.782040
1941.562435	-2.993900	3.345900	-10.016000	26.503721	0.000143	20.769109
1942.561351	-2.998000	3.345100	-10.027000	26.501722	0.000142	20.770420
1943.571755	-2.985500	3.344700	-9.984400	26.429399	0.000140	20.764107
1944.559870	-2.993500	3.344200	-10.010000	26.408342	0.000142	20.754323
1945.559741	-2.997000	3.343500	-10.020000	26.472947	0.000142	20.774687
1946.563483	-2.998000	3.343700	-10.023000	26.438098	0.000142	20.774273
1947.560093	-3.004500	3.342300	-10.041000	26.424374	0.000139	20.764272
1948.561822	-3.007100	3.342200	-10.049000	26.439966	0.000141	20.783738
1949.563862	-3.000500	3.343700	-10.031000	26.420630	0.000140	20.767147
1950.563062	-2.989500	3.342300	-9.990400	26.395057	0.000140	20.786964
1951.561986	-3.025200	3.342100	-10.109000	26.402777	0.000138	20.774334
1952.570941	-2.971400	3.342000	-9.929600	26.443610	0.000138	20.778391
1953.565710	-3.002600	3.341000	-10.031000	26.472037	0.000139	20.780885
1954.564977	-2.995000	3.340100	-10.003000	26.468612	0.000139	20.771752
1955.566676	-2.994100	3.341400	-10.004000	26.463208	0.000138	20.777700
1956.563290	-2.975300	3.341700	-9.941500	26.434358	0.000138	20.772885
1957.566083	-2.994700	3.341000	-10.005000	26.466259	0.000137	20.751843
1958.564568	-3.001700	3.338900	-10.021000	26.449508	0.000136	20.771043
1959.566772	-3.013400	3.339700	-10.063000	26.415395	0.000137	20.759041
1960.563919	-3.015800	3.339800	-10.071000	26.426049	0.000139	20.752205
1961.563882	-2.993900	3.338400	-9.993600	26.453258	0.000136	20.759164
1962.566501	-3.024400	3.337200	-10.093000	26.500210	0.000136	20.747088
1963.566549	-3.000900	3.337800	-10.016000	26.543540	0.000137	20.761719
1964.566535	-3.017200	3.338200	-10.071000	26.549770	0.000136	20.757550
1965.562939	-3.004800	3.338600	-10.030000	26.559749	0.000136	20.759521
1966.567075	-3.000400	3.338800	-10.017000	26.576577	0.000136	20.757470
1967.563075	-3.026700	3.336300	-10.097000	26.624168	0.000134	20.765008
1968.564704	-3.009100	3.338200	-10.044000	26.631518	0.000135	20.740154
1969.567091	-3.013400	3.336400	-10.053000	26.641766	0.000135	20.776536
1970.568676	-2.974900	3.337700	-9.928800	26.614704	0.000133	20.771142
1971.568797	-3.001200	3.335500	-10.009000	26.594299	0.000134	20.762957
1972.567506	-3.006800	3.334800	-10.026000	26.616168	0.000133	20.746534
1973.569938	-2.999200	3.334400	-9.999400	26.569545	0.000133	20.745660
1974.573249	-3.002000	3.334400	-10.009000	26.537666	0.000133	20.749176
1975.570731	-3.000600	3.334400	-10.004000	26.538040	0.000131	20.763777
1976.571011	-2.985200	3.335300	-9.955200	26.533642	0.000133	20.763149
1977.578608	-2.988900	3.334900	-9.966300	26.577509	0.000130	20.775477
1978.568339	-2.979700	3.335000	-9.936400	26.610674	0.000131	20.759504
1979.571351	-2.992300	3.335100	-9.979200	26.627281	0.000129	20.736842
1980.571808	-2.977000	3.333300	-9.922200	26.652077	0.000129	20.766038
1981.570452	-3.016700	3.332900	-10.053000	26.679378	0.000129	20.753654
1982.571267	-2.976900	3.333400	-9.922100	26.626087	0.000129	20.746547
1983.569130	-2.976800	3.332700	-9.920400	26.621419	0.000130	20.758451
1984.569968	-3.001400	3.332700	-10.002000	26.601131	0.000129	20.745169
1985.570010	-3.040800	3.329700	-10.124000	26.609199	0.000128	20.766556
1986.574247	-3.001200	3.331300	-9.996700	26.585026	0.000127	20.760274
1987.578037	-2.982900	3.330200	-9.932400	26.576757	0.000127	20.746271
1988.573215	-2.999500	3.331700	-9.992500	26.593762	0.000125	20.747244
1989.575663	-2.970200	3.330100	-9.890100	26.644598	0.000128	20.754726
1990.571787	-2.989600	3.329600	-9.953700	26.709470	0.000127	20.743130
1991.574303	-3.008700	3.330100	-10.018000	26.719595	0.000126	20.766112
1992.573950	-3.013900	3.328600	-10.031000	26.691793	0.000125	20.739583
1993.577710	-2.972300	3.328800	-9.892800	26.704944	0.000126	20.749011
1994.580714	-3.020900	3.328900	-10.055000	26.707351	0.000125	20.739577
1995.575213	-2.989100	3.328100	-9.947800	26.684070	0.000124	20.767381
1996.574935	-2.973000	3.329000	-9.896600	26.688020	0.000124	20.747644
1997.577662	-2.950200	3.328000	-9.817600	26.680523	0.000124	20.741529
1998.577630	-2.993200	3.328800	-9.962200	26.727931	0.000122	20.739879
1999.579743	-2.990200	3.327100	-9.948000	26.737394	0.000124	20.747496
2000.581062	-2.997700	3.327300	-9.973200	26.718553	0.000123	20.742305
2001.576103	-3.007000	3.326400	-10.002000	26.741044	0.000123	20.747373
2002.579783	-2.980900	3.326700	-9.915100	26.754868	0.000124	20.761746
2003.579420	-2.988700	3.326000	-9.939400	26.717984	0.000122	20.749793
2004.576520	-3.000800	3.326500	-9.980600	26.757850	0.000123	20.748148
2005.579985	-2.996400	3.324400	-9.959600	26.719699	0.000122	20.726385
2006.577715	-3.013300	3.323400	-10.014000	26.698721	0.000122	20.751289
2007.581032	-3.015100	3.323700	-10.020000	26.706749	0.000120	20.725221
2008.577175	-3.003200	3.325300	-9.985600	26.667328	0.000120	20.737273
2009.580418	-2.994600	3.323900	-9.953100	26.627513	0.000119	20.729488
2010.579096	-3.011400	3.324600	-10.011000	26.646079	0.000119	20.755266
2011.582500	-2.993300	3.322400	-9.943900	26.633222	0.000119	20.736176
2012.579848	-3.005600	3.322800	-9.986200	26.655267	0.000119	20.737001
2013.584579	-3.022700	3.321900	-10.040000	26.674708	0.000118	20.728096
2014.582505	-3.001400	3.321500	-9.967400	26.671137	0.000118	20.742050
2015.579126	-3.003300	3.321700	-9.975200	26.694125	0.000117	20.731495
2016.582473	-2.995800	3.321300	-9.949300	26.694296	0.000120	20.725977
2017.581659	-3.029300	3.320800	-10.059000	26.714792	0.000117	20.732358
2018.582515	-2.990400	3.320400	-9.928500	26.717695	0.000116	20.732536
2019.578976	-3.022600	3.320400	-10.035000	26.756098	0.000117	20.723626
2020.579630	-2.996900	3.319600	-9.947800	26.796238	0.000118	20.740277
2021.585618	-3.014100	3.318200	-10.001000	26.757935	0.000118	20.734008
2022.588234	-2.999900	3.318600	-9.954800	26.775292	0.000115	20.740554
2023.583163	-2.995800	3.319400	-9.943200	26.789979	0.000116	20.720706
2024.583383	-2.982900	3.318600	-9.898700	26.821429	0.000115	20.734784
2025.580470	-2.979700	3.319300	-9.889300	26.791664	0.000113	20.739945
2026.580595	-3.000600	3.317800	-9.954200	26.790617	0.000115	20.731305
2027.581486	-3.007700	3.317000	-9.975700	26.776028	0.000113	20.719955
2028.584050	-3.013400	3.316300	-9.992600	26.783892	0.000115	20.724069
2029.583841	-3.008400	3.317400	-9.979300	26.816407	0.000116	20.729261
2030.581261	-2.998600	3.317000	-9.945700	26.791242	0.000114	20.732882
2031.581689	-3.016100	3.315600	-9.999600	26.755045	0.000114	20.724938
2032.584790	-3.014000	3.315700	-9.993200	26.766247	0.000112	20.734778
2033.585061	-3.010800	3.314800	-9.979100	26.767056	0.000113	20.722789
2034.584758	-3.014800	3.314700	-9.992200	26.776965	0.000114	20.706673
2035.586526	-2.984000	3.314900	-9.891100	26.784658	0.000113	20.731478
2036.584352	-2.988500	3.315200	-9.905800	26.748841	0.000115	20.714906
2037.587376	-3.004900	3.315300	-9.960500	26.735256	0.000113	20.709783
2038.584203	-3.008400	3.313200	-9.966800	26.760037	0.000110	20.731379
2039.588013	-2.998200	3.314500	-9.936100	26.765023	0.000112	20.721693
2040.588984	-3.006200	3.311900	-9.955100	26.771153	0.000109	20.689922
2041.584442	-2.983000	3.313400	-9.882700	26.808232	0.000111	20.714876
2042.587980	-3.013200	3.311900	-9.978500	26.759039	0.000111	20.722315
2043.584149	-3.012500	3.311700	-9.975700	26.778846	0.000109	20.728005
2044.587883	-3.001900	3.312400	-9.942900	26.785100	0.000108	20.732870
2045.586972	-3.005500	3.312500	-9.954600	26.755983	0.000109	20.727778
2046.584778	-2.988500	3.311900	-9.897100	26.804012	0.000108	20.725807
2047.586436	-2.986800	3.311300	-9.889500	26.817983	0.000108	20.700497
2048.588291	-2.994500	3.310300	-9.911300	26.833814	0.000107	20.726374
2049.588453	-3.009900	3.310000	-9.961300	26.863921	0.000107	20.733887
2050.588608	-2.993100	3.310400	-9.907400	26.891271	0.000109	20.711126
2051.588013	-3.001500	3.309700	-9.932500	26.861141	0.000107	20.715917
2052.585414	-3.016600	3.308900	-9.980900	26.851881	0.000106	20.722254
2053.588787	-3.003000	3.310700	-9.941900	26.809758	0.000106	20.703133
2054.586806	-3.006600	3.308800	-9.947400	26.777965	0.000106	20.708152
2055.588415	-2.998400	3.308100	-9.918500	26.739214	0.000103	20.736049
2056.589184	-3.015100	3.308800	-9.974900	26.691256	0.000105	20.719601
2057.591875	-3.002700	3.307800	-9.931700	26.677052	0.000103	20.717649
2058.589313	-2.986700	3.309000	-9.882600	26.704707	0.000104	20.712261
2059.587938	-2.996000	3.308200	-9.910500	26.676201	0.000103	20.715371
2060.589928	-3.024900	3.305900	-9.999200	26.656809	0.000104	20.728120
2061.588816	-2.987700	3.307500	-9.880700	26.673941	0.000104	20.724480
2062.591280	-2.978800	3.307800	-9.852100	26.658469	0.000103	20.700389
2063.587911	-3.001500	3.305600	-9.921100	26.709774	0.000103	20.722098
2064.590555	-3.031000	3.305600	-10.018000	26.718656	9.965081E-5	20.707792
2065.591414	-3.010800	3.304600	-9.948900	26.732229	0.000103	20.737562
2066.591012	-3.020600	3.303600	-9.977600	26.821994	0.000102	20.730136
2067.587756	-3.004300	3.303900	-9.924600	26.921419	9.965081E-5	20.719156
2068.587501	-3.018100	3.303800	-9.970200	26.939056	0.000101	20.723615
2069.592481	-3.007300	3.302300	-9.930300	26.942725	0.000101	20.713079
2070.589756	-2.970800	3.303200	-9.812400	26.928628	9.981582E-5	20.697480
2071.593727	-2.987000	3.302000	-9.862300	26.937483	9.892475E-5	20.720611
2072.592661	-2.994500	3.302100	-9.887200	26.887347	9.658158E-5	20.722829
2073.593708	-2.991200	3.303200	-9.879800	26.921715	9.800069E-5	20.719454
2074.593839	-2.989300	3.301700	-9.869100	26.933645	9.889175E-5	20.712010
2075.593068	-2.990400	3.301400	-9.870500	26.932629	9.717563E-5	20.711462
2076.593588	-3.001100	3.301400	-9.907400	26.874599	9.592153E-5	20.734666
2077.592549	-3.005100	3.301800	-9.921600	26.873307	9.585553E-5	20.714400
2078.593880	-3.009200	3.301200	-9.932500	26.884894	9.833071E-5	20.717516
2079.590251	-3.011600	3.299500	-9.935500	26.971154	9.545950E-5	20.725073
2080.594540	-3.003900	3.299100	-9.909300	26.991454	9.859473E-5	20.726520
2081.591415	-3.010600	3.298800	-9.930500	26.964798	9.321534E-5	20.731484
2082.597046	-3.005600	3.298500	-9.913100	26.916378	9.357836E-5	20.737322
2083.595340	-3.006700	3.299800	-9.920400	26.940219	9.351236E-5	20.714827
2084.592932	-3.021700	3.298600	-9.966200	26.998943	9.397439E-5	20.722198
2085.593910	-3.008000	3.297300	-9.916500	26.960696	9.275330E-5	20.724040
2086.592403	-2.984600	3.299000	-9.845400	26.969012	9.202725E-5	20.746153
2087.596639	-2.985800	3.298300	-9.846200	26.951321	9.209325E-5	20.722198
2088.594923	-3.008500	3.296700	-9.917400	26.940255	9.351236E-5	20.732408
2089.598292	-2.979100	3.298200	-9.825400	26.960402	9.192824E-5	20.728960
2090.595353	-2.989200	3.297100	-9.854500	27.016157	9.311633E-5	20.723862
2091.594913	-2.997100	3.294800	-9.873700	27.032989	9.120219E-5	20.706174
2092.596781	-2.984400	3.296100	-9.835900	27.040061	9.103718E-5	20.740315
2093.595570	-3.010800	3.295200	-9.919600	26.984596	8.819897E-5	20.736695
2094.595369	-2.986700	3.296000	-9.843100	26.976935	9.080616E-5	20.719032
2095.596415	-2.993900	3.294300	-9.860700	26.984081	9.001410E-5	20.721477
2096.599049	-2.995100	3.295300	-9.869100	26.932135	8.961807E-5	20.725191
2097.597233	-3.001400	3.294900	-9.888300	26.959833	8.912304E-5	20.731706
2098.598662	-2.995000	3.294600	-9.866200	26.911314	8.869401E-5	20.725591
2099.604220	-2.993800	3.293800	-9.860200	26.924247	8.803396E-5	20.724371
2100.607875	-2.978900	3.293700	-9.811000	26.914492	8.803396E-5	20.739219
2101.600486	-3.002400	3.291800	-9.882500	26.962771	8.608682E-5	20.737506
2102.598679	-2.983700	3.292600	-9.823400	27.019926	8.608682E-5	20.730972
2103.600862	-3.004700	3.292300	-9.891200	26.967290	8.605381E-5	20.732093
2104.601951	-3.013900	3.291100	-9.917700	27.051805	8.542677E-5	20.741220
2105.600316	-2.988000	3.291400	-9.834200	27.086650	8.644984E-5	20.725528
2106.600766	-3.004600	3.289400	-9.882800	27.051791	8.714289E-5	20.741206
2107.602455	-3.012000	3.291000	-9.911900	27.074152	8.437069E-5	20.729555
2108.599602	-2.997200	3.288700	-9.856600	27.051074	8.542677E-5	20.745701
2109.603772	-2.993900	3.290900	-9.852000	27.036341	8.549277E-5	20.727091
2110.599925	-3.009600	3.289400	-9.898800	26.998971	8.506374E-5	20.725545
2111.600770	-3.003900	3.289700	-9.881300	26.979217	8.460171E-5	20.734604
2112.607199	-2.984600	3.289200	-9.816500	26.963038	8.107045E-5	20.715014
2113.602763	-2.995800	3.287800	-9.849000	26.959615	8.272057E-5	20.728642
2114.604702	-3.010600	3.287500	-9.896300	26.951237	8.331461E-5	20.737761
2115.603562	-3.016200	3.287300	-9.913700	26.950741	8.275357E-5	20.720666
2116.600473	-3.000900	3.286300	-9.861200	26.980697	8.182950E-5	20.725660
2117.605473	-2.993700	3.287600	-9.841200	26.958934	8.235754E-5	20.738389
2118.603385	-2.984800	3.285700	-9.806600	26.973924	8.202752E-5	20.736394
2119.606530	-2.987000	3.286000	-9.814600	26.972736	8.070742E-5	20.729983
2120.606310	-3.047900	3.283700	-10.007000	26.988497	8.202752E-5	20.724495
2121.606064	-3.026000	3.283400	-9.935100	26.967525	8.143348E-5	20.736122
2122.602468	-3.008900	3.285300	-9.884000	26.999440	8.258856E-5	20.729810
2123.607782	-3.011700	3.283700	-9.887700	27.061456	8.110345E-5	20.731959
2124.602278	-3.004700	3.284300	-9.867100	27.115404	8.179650E-5	20.753500
2125.608142	-2.996500	3.283900	-9.839300	27.140371	7.902430E-5	20.719814
2126.606068	-2.977200	3.283000	-9.772900	27.139306	7.783621E-5	20.756677
2127.604681	-2.997000	3.282000	-9.835600	27.110376	7.843026E-5	20.747021
2128.610089	-3.017900	3.281900	-9.903000	27.074343	7.866127E-5	20.742550
2129.609785	-3.014800	3.282100	-9.894300	27.055436	7.849626E-5	20.754355
2130.610801	-3.015200	3.281500	-9.893100	27.100181	7.780321E-5	20.728232
2131.607645	-2.992200	3.282000	-9.818800	27.076235	7.783621E-5	20.733072
2132.605262	-3.018100	3.280700	-9.900700	27.069119	7.602108E-5	20.732080
2133.609718	-2.986300	3.281100	-9.798200	27.081310	7.651612E-5	20.740547
2134.608492	-3.007200	3.280400	-9.862700	27.073589	7.628510E-5	20.740843
2135.606611	-2.975400	3.280300	-9.758900	27.079846	7.770420E-5	20.729591
2136.610011	-2.996800	3.280900	-9.831800	27.084983	7.763820E-5	20.726697
2137.609536	-2.994000	3.277300	-9.810200	27.059077	7.681314E-5	20.741421
2138.611505	-2.998300	3.279000	-9.830400	27.059230	7.608708E-5	20.733514
2139.612683	-3.002500	3.279000	-9.844900	27.036550	7.645011E-5	20.722558
2140.608365	-3.007800	3.277900	-9.858100	27.063380	7.565805E-5	20.743853
2141.610402	-2.986600	3.279900	-9.794700	27.104392	7.423895E-5	20.731518
2142.607808	-2.996100	3.277900	-9.820100	27.077598	7.427195E-5	20.733020
2143.615059	-2.980200	3.277400	-9.766500	27.159232	7.433796E-5	20.758700
2144.611317	-2.993600	3.278200	-9.813000	27.173528	7.529503E-5	20.737041
2145.612314	-3.013700	3.276300	-9.872700	27.223399	7.443696E-5	20.759229
2146.615959	-3.002500	3.276000	-9.834700	27.158864	7.460198E-5	20.733673
2147.615582	-2.987800	3.275400	-9.785300	27.142419	7.334788E-5	20.747005
2148.617088	-3.001900	3.275000	-9.830900	27.089145	7.420595E-5	20.729460
2149.615273	-2.981600	3.274500	-9.762100	27.075895	7.476699E-5	20.767819
2150.617050	-3.003700	3.274000	-9.833100	27.041477	7.239081E-5	20.739843
2151.614675	-2.996400	3.275200	-9.812100	27.060404	7.341389E-5	20.728057
2152.616972	-3.017600	3.272400	-9.874200	27.016238	7.272084E-5	20.751445
2153.618125	-3.005700	3.273400	-9.838100	27.051348	7.103771E-5	20.744554
2154.617002	-3.007300	3.272800	-9.841400	27.154052	7.163176E-5	20.761076
2155.622417	-2.980400	3.271700	-9.750300	27.200644	7.314987E-5	20.747246
2156.620867	-2.993700	3.273600	-9.798900	27.122288	7.116972E-5	20.753311
2157.623714	-3.003400	3.272300	-9.827200	27.155962	6.866154E-5	20.751143
2158.621834	-3.000000	3.272200	-9.815800	27.219604	7.133474E-5	20.750669
2159.624053	-3.015100	3.270700	-9.860700	27.255969	7.054268E-5	20.756428
2160.619857	-3.025200	3.269400	-9.889900	27.267582	6.925558E-5	20.743452
2161.623415	-2.997500	3.270800	-9.803200	27.245250	6.859554E-5	20.752758
2162.624783	-3.001800	3.270200	-9.816000	27.154120	6.984963E-5	20.772999
2163.623846	-2.985100	3.270500	-9.762400	27.188381	6.872755E-5	20.771897
2164.624547	-2.976600	3.269000	-9.729700	27.225947	6.707742E-5	20.759421
2165.621441	-2.989000	3.267500	-9.766000	27.271053	6.773747E-5	20.758799
2166.625340	-2.997000	3.267700	-9.792000	27.226235	6.800149E-5	20.760185
2167.625606	-3.007700	3.267500	-9.826200	27.179449	6.740745E-5	20.744420
2168.626779	-2.999000	3.267500	-9.798500	27.121182	6.803450E-5	20.753621
2169.627803	-3.005700	3.267800	-9.820900	27.180416	6.661539E-5	20.766730
2170.622063	-2.980200	3.267400	-9.737000	27.221276	6.621936E-5	20.769422
2171.621818	-3.008000	3.265200	-9.820600	27.301976	6.826551E-5	20.769515
2172.623171	-2.985100	3.266000	-9.748300	27.325977	6.780348E-5	20.757148
2173.628607	-3.009300	3.264900	-9.824000	27.337529	6.519629E-5	20.755493
2174.623374	-3.007000	3.264300	-9.814300	27.310411	6.453624E-5	20.757611
2175.626529	-2.994300	3.265000	-9.775500	27.287216	6.516328E-5	20.763677
2176.624179	-3.013700	3.263700	-9.834800	27.282508	6.344716E-5	20.785968
2177.627279	-3.003500	3.264100	-9.802300	27.269903	6.526229E-5	20.755745
2178.624950	-2.980300	3.263100	-9.724500	27.237004	6.400820E-5	20.776233
2179.629758	-2.992200	3.263000	-9.762700	27.283175	6.305113E-5	20.776682
2180.636646	-3.000600	3.263000	-9.789600	27.359830	6.305113E-5	20.767495
2181.624218	-3.009300	3.260900	-9.811000	27.400816	6.262210E-5	20.789761
2182.630389	-3.010600	3.261600	-9.818500	27.382925	6.229207E-5	20.767969
2183.629502	-3.016700	3.260400	-9.834300	27.344005	6.239108E-5	20.771491
2184.631369	-3.014800	3.260900	-9.829400	27.300101	6.153302E-5	20.770000
2185.631819	-3.023400	3.259600	-9.853200	27.272168	5.951987E-5	20.788843
2186.626379	-2.996900	3.260000	-9.768900	27.297720	6.166503E-5	20.779933
2187.626905	-2.981600	3.259700	-9.718100	27.346245	6.202806E-5	20.783227
2188.627898	-2.957400	3.260500	-9.641700	27.291696	5.942086E-5	20.771502
2189.632418	-3.019500	3.256800	-9.832900	27.334791	5.951987E-5	20.791620
2190.628538	-2.985200	3.259100	-9.728500	27.397675	5.998191E-5	20.777593
2191.628142	-3.003900	3.258600	-9.787500	27.476646	5.843079E-5	20.767899
2192.626707	-2.967900	3.258900	-9.670400	27.479615	5.826578E-5	20.765196
2193.630094	-2.997500	3.257300	-9.761500	27.394412	5.780375E-5	20.773361
2194.629843	-2.995900	3.255800	-9.753300	27.342467	5.744072E-5	20.782746
2195.630875	-3.007900	3.256100	-9.793400	27.343709	6.017992E-5	20.783521
2196.630495	-2.992800	3.256900	-9.746900	27.370527	5.753973E-5	20.795800
2197.628023	-2.998300	3.255000	-9.757500	27.326520	5.777074E-5	20.784722
2198.629577	-3.019600	3.254300	-9.825600	27.363064	5.836479E-5	20.756998
2199.632465	-3.028200	3.253800	-9.852800	27.422353	5.747372E-5	20.765909
2200.631575	-3.013700	3.254200	-9.806500	27.434215	5.678067E-5	20.784955
2201.627194	-2.999800	3.254200	-9.760500	27.482190	5.546057E-5	20.777744
2202.628323	-2.985800	3.254400	-9.715900	27.480035	5.423948E-5	20.780318
2203.629138	-3.000600	3.253000	-9.760400	27.453722	5.602162E-5	20.772336
2204.631434	-2.992200	3.253000	-9.732400	27.450417	5.555958E-5	20.797935
2205.632880	-2.997200	3.253200	-9.749900	27.408103	5.315040E-5	20.777651
2206.634583	-3.034700	3.250100	-9.862200	27.341895	5.489953E-5	20.786438
2207.638324	-2.977000	3.252900	-9.683300	27.314404	5.509755E-5	20.779172
2208.636802	-3.019100	3.250800	-9.813800	27.333332	5.384346E-5	20.791100
2209.635057	-3.001200	3.250500	-9.754600	27.333032	5.450350E-5	20.800756
2210.634331	-3.008400	3.250000	-9.776600	27.381978	5.516355E-5	20.794044
2211.636134	-2.999000	3.250100	-9.746400	27.454364	5.496554E-5	20.777725
2212.639092	-3.005200	3.251600	-9.771000	27.517541	5.377745E-5	20.792923
2213.640037	-3.001200	3.249000	-9.749900	27.558418	5.417348E-5	20.797067
2214.635819	-2.998400	3.248300	-9.739300	27.611118	5.305140E-5	20.803625
2215.639105	-3.010900	3.247800	-9.777400	27.598665	5.427249E-5	20.803422
2216.640994	-2.996800	3.247500	-9.731000	27.534648	5.315040E-5	20.810134
2217.639666	-2.998500	3.248000	-9.737600	27.526661	5.305140E-5	20.804469
2218.636208	-2.990400	3.246600	-9.708000	27.481364	5.321641E-5	20.797302
2219.637602	-3.011200	3.246800	-9.776100	27.412083	5.499854E-5	20.802992
2220.639706	-3.014900	3.245600	-9.784500	27.390873	5.093924E-5	20.802992
2221.636939	-2.989100	3.246300	-9.701400	27.407835	5.328241E-5	20.780701
2222.645767	-2.998900	3.245500	-9.731800	27.443679	5.338142E-5	20.820554
2223.644826	-3.022200	3.243800	-9.803100	27.427851	5.140128E-5	20.808424
2224.638221	-2.999000	3.246100	-9.734300	27.448093	5.100525E-5	20.787062
2225.647147	-2.983500	3.245200	-9.681200	27.432962	5.110425E-5	20.808350
2226.641939	-2.968200	3.245200	-9.631600	27.456472	5.080723E-5	20.808769
2227.642048	-3.002200	3.242700	-9.734000	27.431586	5.080723E-5	20.801750
2228.645464	-2.993600	3.244000	-9.710000	27.443472	5.189631E-5	20.802802
2229.643447	-3.014100	3.242200	-9.771300	27.402885	5.041120E-5	20.796109
2230.642637	-3.000800	3.242100	-9.728000	27.433765	4.978416E-5	20.819589
2231.642520	-2.996700	3.242000	-9.714300	27.496123	5.044421E-5	20.819263
2232.645383	-2.995900	3.242700	-9.713500	27.528121	4.853007E-5	20.833438
2233.646445	-3.004700	3.240300	-9.735100	27.504007	5.034520E-5	20.792582
2234.646862	-2.978200	3.239700	-9.647600	27.581391	4.942113E-5	20.815440
2235.643033	-3.012500	3.239800	-9.758800	27.594660	4.991617E-5	20.830212
2236.649074	-2.995900	3.240700	-9.707200	27.630247	4.876108E-5	20.820502
2237.643659	-2.979400	3.240100	-9.652500	27.693958	4.958614E-5	20.799738
2238.648231	-3.001100	3.239500	-9.721500	27.641875	4.763900E-5	20.809443
2239.647770	-2.998500	3.237500	-9.707200	27.602567	4.968515E-5	20.803081
2240.644402	-3.034400	3.236200	-9.818500	27.560498	4.938813E-5	20.810539
2241.647675	-2.987000	3.238800	-9.673400	27.492807	4.839806E-5	20.800754
2242.647134	-2.998400	3.238200	-9.708200	27.534898	4.654992E-5	20.837412
2243.648162	-3.021300	3.235500	-9.774600	27.608009	4.895910E-5	20.812350
2244.646678	-3.024300	3.235900	-9.785800	27.650223	4.711096E-5	20.817843
2245.649082	-2.990500	3.237700	-9.681400	27.668954	4.727597E-5	20.826260
2246.645655	-3.002300	3.234200	-9.708900	27.596583	4.691295E-5	20.832147
2247.649914	-2.999100	3.238400	-9.711100	27.642689	4.777101E-5	20.827331
2248.645392	-2.987600	3.233500	-9.659700	27.634624	4.701195E-5	20.841975
2249.648951	-3.009300	3.233700	-9.730300	27.571154	4.513082E-5	20.822209
2250.648231	-2.999600	3.234200	-9.700000	27.554838	4.516382E-5	20.820016
2251.652841	-2.985300	3.232700	-9.649700	27.589214	4.456978E-5	20.829000
2252.650270	-3.001900	3.231900	-9.701200	27.677779	4.641791E-5	20.835614
2253.650498	-3.017100	3.230900	-9.747400	27.635199	4.298566E-5	20.835915
2254.653384	-3.020300	3.230400	-9.756100	27.625646	4.575786E-5	20.822510
2255.652720	-2.984100	3.233100	-9.647500	27.599710	4.582387E-5	20.822491
2256.652884	-2.990400	3.232300	-9.665000	27.603425	4.476779E-5	20.839505
2257.653800	-2.991600	3.230600	-9.664000	27.611136	4.509781E-5	20.827825
2258.653978	-3.003200	3.232700	-9.707700	27.587948	4.209459E-5	20.838631
2259.651349	-3.011800	3.228700	-9.723300	27.544470	4.539484E-5	20.826654
2260.654410	-2.997800	3.229000	-9.679100	27.487029	4.298566E-5	20.826235
2261.653858	-2.977800	3.231000	-9.620700	27.500470	4.166556E-5	20.831697
2262.659280	-3.006800	3.227800	-9.704200	27.487158	4.222660E-5	20.838692
2263.658000	-2.999000	3.229000	-9.683200	27.569771	4.199559E-5	20.835989
2264.652597	-2.992100	3.227000	-9.654600	27.669921	4.275464E-5	20.821069
2265.656599	-3.014500	3.226200	-9.723100	27.711460	4.420675E-5	20.845324
2266.654987	-3.008900	3.225700	-9.704800	27.678556	4.044447E-5	20.830231
2267.654278	-3.005500	3.226800	-9.696700	27.652045	4.199559E-5	20.820625
2268.656769	-2.983900	3.225700	-9.624800	27.715706	3.899237E-5	20.827312
2269.661426	-3.002500	3.224900	-9.682500	27.729566	4.169856E-5	20.844578
2270.659320	-2.967900	3.225900	-9.573400	27.658961	4.103852E-5	20.832799
2271.656034	-2.997700	3.224800	-9.666300	27.631116	4.249062E-5	20.844609
2272.659301	-3.003600	3.225000	-9.684800	27.679975	3.942140E-5	20.836875
2273.660117	-3.007200	3.223400	-9.692200	27.712359	4.120353E-5	20.858556
2274.662989	-2.985400	3.225300	-9.628200	27.655772	4.196258E-5	20.862305
2275.656285	-3.016500	3.222500	-9.720100	27.589904	3.892636E-5	20.839177
2276.661193	-2.998900	3.221600	-9.660500	27.582511	3.889336E-5	20.823204
2277.661505	-3.011300	3.222700	-9.704100	27.600069	4.156656E-5	20.869318
2278.658855	-3.013100	3.221200	-9.704800	27.630601	3.955341E-5	20.854048
2279.661678	-3.019000	3.219800	-9.719300	27.668029	3.876135E-5	20.867052
2280.659665	-2.998800	3.219300	-9.652800	27.717327	3.948740E-5	20.854546
2281.664946	-2.995400	3.219600	-9.643200	27.709194	3.711123E-5	20.848734
2282.661883	-3.002000	3.220100	-9.665600	27.715840	3.895936E-5	20.850679
2283.660464	-2.998900	3.219400	-9.653900	27.777563	3.688021E-5	20.871541
2284.661867	-3.032200	3.217100	-9.753700	27.792169	3.645118E-5	20.856843
2285.661619	-3.029500	3.216700	-9.743800	27.805857	3.872835E-5	20.868721
2286.664670	-2.997900	3.218300	-9.647000	27.739105	3.730924E-5	20.861763
2287.668204	-2.963300	3.218400	-9.535700	27.705327	3.622016E-5	20.860014
2288.664320	-3.015200	3.216500	-9.697700	27.766152	3.684721E-5	20.874282
2289.664391	-2.983400	3.216800	-9.596200	27.725435	3.466905E-5	20.864128
2290.667193	-3.021100	3.215600	-9.713500	27.741504	3.546111E-5	20.846634
2291.664118	-3.019300	3.215100	-9.706900	27.714445	3.783728E-5	20.856388
2292.669422	-3.018300	3.216100	-9.706200	27.686975	3.631917E-5	20.851979
2293.664322	-3.024400	3.213300	-9.717700	27.704373	3.433902E-5	20.884183
2294.664898	-3.008200	3.213700	-9.666800	27.723147	3.338195E-5	20.876997
2295.668055	-2.995500	3.214000	-9.626900	27.765552	3.546111E-5	20.864670
2296.667875	-3.031000	3.212400	-9.735900	27.803912	3.608815E-5	20.861074
2297.671107	-3.001200	3.213200	-9.642600	27.832150	3.559312E-5	20.869104
2298.667714	-2.976200	3.214200	-9.565000	27.785935	3.579113E-5	20.872854
2299.667134	-3.004100	3.210800	-9.644000	27.832273	3.364597E-5	20.845995
2300.669575	-2.977400	3.213300	-9.566500	27.778617	3.394300E-5	20.841309
2301.666825	-2.989200	3.211000	-9.597800	27.757267	3.364597E-5	20.884781
2302.671149	-3.006500	3.210200	-9.650900	27.761551	3.275491E-5	20.870127
2303.670187	-3.009300	3.211800	-9.663600	27.698664	3.206186E-5	20.870379
2304.671757	-3.006600	3.209700	-9.649000	27.698065	3.252389E-5	20.857448
2305.670352	-2.982500	3.210100	-9.572700	27.727309	3.183084E-5	20.858901
2306.671831	-2.982300	3.208200	-9.566600	27.720914	3.064275E-5	20.867164
2307.672346	-3.004500	3.210200	-9.644100	27.765675	3.367898E-5	20.858630
2308.674427	-2.997200	3.208700	-9.616200	27.795181	3.011471E-5	20.826210
2309.669947	-3.013700	3.209700	-9.672100	27.817226	3.285392E-5	20.849819
2310.670783	-3.022700	3.206900	-9.692600	27.866499	3.225987E-5	20.856259
2311.672729	-2.997800	3.205600	-9.608100	27.903270	3.216086E-5	20.863396
2312.677696	-2.996300	3.205800	-9.604500	27.943459	2.882762E-5	20.861647
2313.675622	-3.007200	3.205700	-9.639500	27.857670	3.183084E-5	20.857331
2314.673911	-3.014800	3.204400	-9.659700	27.812319	3.103878E-5	20.852940
2315.675093	-3.009900	3.203700	-9.642100	27.819037	2.872861E-5	20.850693
2316.675651	-3.024600	3.202500	-9.685000	27.854691	2.978469E-5	20.835367
2317.672016	-3.010800	3.204500	-9.647800	27.837711	2.994970E-5	20.858106
2318.677470	-2.990900	3.202900	-9.578400	27.862730	3.196285E-5	20.835397
2319.672989	-2.997100	3.202900	-9.598700	27.900816	2.684747E-5	20.845280
2320.673859	-2.989000	3.202700	-9.571300	27.950201	2.783755E-5	20.848520
2321.673542	-3.007600	3.201200	-9.626600	27.957469	2.628643E-5	20.834498
2322.672972	-2.987300	3.199800	-9.558000	28.001425	2.846459E-5	20.860249
2323.673403	-3.028700	3.199600	-9.688900	27.963716	2.839859E-5	20.833199
2324.676181	-2.974600	3.199100	-9.515100	27.965532	2.849760E-5	20.833131
2325.675743	-2.999900	3.198400	-9.593900	28.002324	2.658346E-5	20.840766
2326.676937	-3.000100	3.198800	-9.596100	28.011672	2.803556E-5	20.843063
2327.680905	-3.000100	3.198400	-9.594700	28.006466	2.886062E-5	20.851099
2328.675540	-2.995600	3.197000	-9.575200	27.997668	2.549438E-5	20.846037
2329.676013	-2.987200	3.196600	-9.548000	27.875730	2.585740E-5	20.854645
2330.679883	-3.009900	3.195900	-9.618000	27.825620	2.697948E-5	20.838352
2331.679279	-2.981800	3.198900	-9.537800	27.827480	2.549438E-5	20.840224
2332.682011	-2.993900	3.195600	-9.566700	27.818229	2.820057E-5	20.831862
2333.678856	-3.001000	3.194900	-9.587200	27.845805	2.674847E-5	20.830218
2334.682621	-3.004400	3.194900	-9.597800	27.911289	2.589040E-5	20.822157
2335.680115	-3.011000	3.193100	-9.613700	27.930354	2.767254E-5	20.828543
2336.680731	-3.003900	3.193400	-9.591600	27.892622	2.655045E-5	20.836560
2337.683495	-3.001700	3.193900	-9.586300	27.911069	2.598941E-5	20.827151
2338.682415	-3.033000	3.191800	-9.679900	27.922895	2.542837E-5	20.824355
2339.680778	-3.050300	3.190800	-9.731900	27.923336	2.523036E-5	20.821006
2340.685866	-2.993200	3.191500	-9.552000	27.933186	2.536237E-5	20.825704
2341.681489	-3.016000	3.191400	-9.623800	27.963035	2.615442E-5	20.833463
2342.681430	-3.008300	3.190500	-9.596700	28.030225	2.780454E-5	20.815747
2343.684072	-3.008600	3.190300	-9.597200	28.085978	2.420728E-5	20.822557
2344.683556	-3.017300	3.189300	-9.622400	28.107198	2.562638E-5	20.824004
2345.685370	-2.975600	3.188600	-9.487000	28.117683	2.499934E-5	20.829817
2346.684034	-2.999300	3.189200	-9.564700	28.133997	2.688048E-5	20.819688
2347.683658	-3.001600	3.186100	-9.562900	28.058958	2.671546E-5	20.828549
2348.683538	-3.003000	3.187600	-9.570700	28.051269	2.694648E-5	20.832188
2349.684032	-3.000000	3.185600	-9.556000	28.035927	2.483433E-5	20.811055
2350.686546	-3.012000	3.186100	-9.595900	27.994371	2.387726E-5	20.809054
2351.687259	-3.025400	3.185600	-9.636300	27.968688	2.437229E-5	20.823506
2352.684421	-3.013700	3.184800	-9.597800	28.007457	2.516435E-5	20.837398
2353.684720	-2.995800	3.184200	-9.538300	27.968456	2.526336E-5	20.805255
2354.686896	-3.004500	3.182500	-9.560500	27.897328	2.364624E-5	20.824701
2355.686631	-2.986400	3.183900	-9.507100	27.901788	2.193011E-5	20.826345
2356.691743	-3.001900	3.181900	-9.551400	27.988467	2.391026E-5	20.807853
2357.686033	-3.002000	3.182700	-9.553600	28.062250	2.239215E-5	20.821905
2358.685718	-2.995000	3.181500	-9.528100	28.128511	2.397626E-5	20.804682
2359.685997	-3.005300	3.180000	-9.556600	28.172111	2.100605E-5	20.824868
2360.685835	-2.994000	3.180900	-9.522600	28.172264	2.222714E-5	20.818857
2361.687186	-3.007500	3.180100	-9.563100	28.093912	2.338222E-5	20.802095
2362.688550	-3.018200	3.177500	-9.589300	28.037261	2.094004E-5	20.809078
2363.685349	-2.993000	3.178600	-9.513000	28.075983	2.166609E-5	20.814867
2364.686080	-3.001500	3.176700	-9.534700	28.080797	2.311820E-5	20.792212
2365.687160	-3.007900	3.177800	-9.558300	28.091129	2.298619E-5	20.808777
2366.686759	-3.022700	3.176800	-9.601400	28.078515	2.014798E-5	20.804614
2367.687299	-3.003100	3.177000	-9.539800	28.076288	2.080803E-5	20.805691
2368.687987	-2.980500	3.176500	-9.467100	28.118601	2.094004E-5	20.826948
2369.686779	-2.959400	3.174500	-9.393200	28.061834	2.074203E-5	20.808684
2370.690510	-3.001600	3.174200	-9.526300	27.987536	2.021399E-5	20.811658
2371.688881	-3.005400	3.173000	-9.534500	27.936568	2.047801E-5	20.812039
2372.692722	-3.002700	3.173000	-9.526600	27.906889	1.935592E-5	20.800659
2373.688490	-3.013300	3.171100	-9.554500	27.866050	1.849786E-5	20.808394
2374.689383	-2.992800	3.171500	-9.491100	27.908076	1.981796E-5	20.805173
2375.691194	-2.988800	3.170100	-9.474100	27.970393	2.044500E-5	20.809575
2376.690613	-2.969600	3.170500	-9.414400	28.032102	1.895989E-5	20.815739
2377.694338	-2.998700	3.169900	-9.505100	28.104291	1.902590E-5	20.808750
2378.694356	-3.002600	3.167500	-9.510300	28.113564	1.882789E-5	20.808128
2379.691377	-3.016400	3.167700	-9.553900	28.102786	1.945493E-5	20.799174
2380.692702	-3.007800	3.168200	-9.528200	28.075418	1.935592E-5	20.796754
2381.695596	-3.000000	3.167300	-9.501700	28.124899	2.041200E-5	20.781131
2382.692660	-2.990200	3.165800	-9.465300	28.041307	1.909190E-5	20.790393
2383.697454	-3.003700	3.165700	-9.507800	28.043418	1.641871E-5	20.798681
2384.694879	-2.989400	3.164800	-9.459600	28.071239	1.641871E-5	20.796814
2385.696064	-3.000100	3.163300	-9.489600	28.053982	1.523062E-5	20.796039
2386.696652	-2.983800	3.163500	-9.438300	28.075698	1.691374E-5	20.784234
2387.697165	-2.993700	3.161900	-9.464700	28.067672	1.694675E-5	20.790853
2388.697572	-3.001800	3.161000	-9.488100	28.124714	1.744178E-5	20.781420
2389.696406	-2.957100	3.162800	-9.351500	28.054238	1.721077E-5	20.807676
2390.696029	-2.996200	3.161000	-9.469800	27.995828	1.803583E-5	20.797719
2391.697740	-3.004600	3.159200	-9.491000	27.978949	1.559365E-5	20.807282
2392.697897	-3.000400	3.160400	-9.482200	27.979096	1.671573E-5	20.797947
2393.698298	-3.010200	3.159200	-9.509700	28.012174	1.450457E-5	20.798051
2394.701537	-2.978400	3.158000	-9.405100	28.081062	1.602268E-5	20.793427
2395.698956	-2.994500	3.156000	-9.450300	28.144978	1.691374E-5	20.787595
2396.699967	-3.011700	3.155800	-9.502900	28.118852	1.562665E-5	20.785476
2397.704104	-3.007000	3.155200	-9.486300	28.115256	1.556064E-5	20.784226
2398.700593	-2.994800	3.155200	-9.448400	28.073635	1.430655E-5	20.773622
2399.701889	-3.012200	3.154800	-9.501100	27.979878	1.486759E-5	20.790673
2400.700115	-3.017400	3.153800	-9.515300	28.005885	1.658372E-5	20.786504
2401.700343	-2.994100	3.152800	-9.438700	28.074087	1.490060E-5	20.775974
2402.701411	-2.984400	3.151900	-9.405400	28.100287	1.443856E-5	20.773425
2403.700746	-2.993200	3.151500	-9.432500	28.108251	1.678173E-5	20.799460
2404.705462	-3.009300	3.149400	-9.476700	28.097570	1.450457E-5	20.774957
2405.704749	-2.995400	3.150600	-9.436000	28.081929	1.579166E-5	20.787187
2406.702834	-2.993300	3.149300	-9.425200	28.114973	1.523062E-5	20.781571
2407.703622	-3.014100	3.148800	-9.490600	28.070257	1.235941E-5	20.772118
2408.705555	-3.011500	3.146700	-9.475300	28.104733	1.424055E-5	20.798764
2409.704504	-2.977600	3.147600	-9.371500	28.079059	1.549464E-5	20.780979
2410.705389	-2.989900	3.146600	-9.406800	28.075261	1.334948E-5	20.796122
2411.706021	-3.008700	3.145000	-9.461200	28.117952	1.427355E-5	20.794053
2412.705227	-2.988900	3.144000	-9.396500	28.158574	1.268943E-5	20.777575
2413.706375	-2.976600	3.143400	-9.356100	28.206791	1.476859E-5	20.781546
2414.704711	-2.966300	3.144500	-9.326300	28.280724	1.249142E-5	20.771583
2415.710435	-3.015000	3.141200	-9.469400	28.340635	1.288745E-5	20.792551
2416.705994	-3.004800	3.140700	-9.436600	28.352285	1.381152E-5	20.787686
2417.706221	-3.037000	3.139000	-9.532200	28.295549	1.103931E-5	20.810692
2418.708879	-3.003500	3.138700	-9.426200	28.311707	1.420755E-5	20.781442
2419.707039	-2.983000	3.139100	-9.363500	28.325388	1.186437E-5	20.764397
2420.706325	-2.983600	3.138500	-9.362800	28.335596	1.196338E-5	20.773727
2421.709450	-2.998300	3.137600	-9.406800	28.339804	1.133633E-5	20.775593
2422.707854	-3.004100	3.136600	-9.421800	28.357271	1.153435E-5	20.776111
2423.707659	-3.009400	3.134200	-9.430400	28.341835	1.183137E-5	20.770051
2424.708495	-3.010300	3.134100	-9.433500	28.327922	1.034626E-5	20.782595
2425.706748	-2.994200	3.133400	-9.380700	28.344276	1.074229E-5	20.784363
2426.711285	-3.013100	3.131600	-9.434800	28.298652	1.094031E-5	20.774461
2427.707476	-3.012100	3.131500	-9.430700	28.334161	1.064328E-5	20.760902
2428.707795	-3.009700	3.131300	-9.423200	28.249492	1.014825E-5	20.773328
2429.708485	-3.019500	3.128600	-9.445100	28.234190	1.123733E-5	20.773569
2430.707782	-2.994300	3.129800	-9.370100	28.250349	1.156735E-5	20.776562
2431.711082	-3.010600	3.127600	-9.414100	28.284134	1.107231E-5	20.766007
2432.709756	-2.991300	3.128700	-9.358300	28.293963	1.252442E-5	20.777327
2433.709614	-2.993600	3.127400	-9.361200	28.315534	9.059167E-6	20.783398
2434.709875	-3.011000	3.124800	-9.406900	28.298079	8.102096E-6	20.762030
2435.710175	-2.994400	3.125400	-9.357600	28.256234	8.300111E-6	20.781065
2436.710642	-2.985700	3.123300	-9.324400	28.264564	8.729143E-6	20.775701
2437.711220	-2.989600	3.123600	-9.337300	28.236032	1.262343E-5	20.769735
2438.711923	-3.022100	3.122400	-9.435300	28.181003	9.950232E-6	20.772654
2439.710445	-2.999400	3.122800	-9.365600	28.148658	1.001624E-5	20.743409
2440.712234	-3.050600	3.119700	-9.515400	28.173364	8.333113E-6	20.782507
2441.711139	-3.013700	3.119100	-9.399300	28.239073	8.201104E-6	20.787021
2442.715534	-2.995900	3.117400	-9.339100	28.270553	9.290184E-6	20.763239
2443.710262	-3.025000	3.116300	-9.425700	28.294791	8.762145E-6	20.768202
2444.711891	-3.001500	3.117400	-9.355500	28.340421	8.696140E-6	20.769575
2445.710841	-2.988800	3.116800	-9.314900	28.355282	9.059167E-6	20.775531
2446.712012	-3.017100	3.115800	-9.398800	28.367202	6.418973E-6	20.749600
2447.714601	-2.984100	3.115400	-9.296000	28.371238	7.541055E-6	20.766467
2448.716794	-2.985600	3.114200	-9.297000	28.382986	9.917230E-6	20.758856
2449.712706	-2.990000	3.111900	-9.303600	28.411832	8.663138E-6	20.749970
2450.713770	-2.980600	3.111600	-9.273500	28.468580	6.914009E-6	20.772502
2451.715121	-3.018900	3.109500	-9.386100	28.507807	8.201104E-6	20.784030
2452.713408	-2.989600	3.109100	-9.294000	28.468850	6.649990E-6	20.758074
2453.715557	-2.999600	3.108500	-9.323700	28.405705	8.234106E-6	20.790742
2454.713854	-2.996300	3.107800	-9.310900	28.428307	7.145026E-6	20.756128
2455.713911	-2.975800	3.107800	-9.246700	28.354972	6.187956E-6	20.763364
2456.714677	-2.990700	3.106700	-9.290600	28.341340	6.286963E-6	20.779036
2457.715158	-2.989000	3.106200	-9.283200	28.368053	5.824929E-6	20.760889
2458.718022	-3.006100	3.103800	-9.329200	28.392619	5.659917E-6	20.747218
2459.717060	-3.002600	3.102200	-9.313400	28.324161	6.947011E-6	20.769800
2460.716074	-3.010600	3.101900	-9.338100	28.356654	4.240812E-6	20.777386
2461.715974	-3.008200	3.100400	-9.326300	28.400618	4.933863E-6	20.761912
2462.716773	-2.994800	3.100600	-9.285000	28.495805	6.715994E-6	20.762934
2463.716424	-3.029300	3.098000	-9.383600	28.552078	5.725922E-6	20.766500
2464.717184	-3.007500	3.097800	-9.315700	28.566526	5.065873E-6	20.776783
2465.715984	-2.999200	3.096100	-9.285500	28.485838	5.956939E-6	20.759535
2466.716650	-3.013000	3.096100	-9.327300	28.512058	5.164880E-6	20.750378
2467.719231	-2.959800	3.096600	-9.164400	28.564466	5.692919E-6	20.756216
2468.718898	-2.998000	3.093600	-9.274100	28.546972	3.910788E-6	20.768470
2469.724374	-2.979200	3.093700	-9.215800	28.507973	4.042798E-6	20.753376
2470.724151	-2.973500	3.091800	-9.192600	28.459648	3.349747E-6	20.782947
2471.719761	-3.001600	3.090900	-9.275700	28.442947	4.702846E-6	20.764707
2472.724211	-2.981600	3.089900	-9.211600	28.433040	4.174807E-6	20.743350
2473.721066	-2.987100	3.087700	-9.222900	28.432123	3.382749E-6	20.751910
2474.722386	-2.984300	3.087700	-9.213300	28.494893	2.293669E-6	20.762964
2475.724446	-2.987800	3.086100	-9.220000	28.460943	4.438827E-6	20.757225
2476.722394	-3.014400	3.085900	-9.301300	28.438067	3.052725E-6	20.768802
2477.723138	-2.991300	3.085000	-9.226900	28.478934	4.075800E-6	20.755427
2478.724040	-3.003000	3.083100	-9.257900	28.424889	1.270594E-6	20.741306
2479.722230	-2.990800	3.082500	-9.217600	28.411086	4.702846E-6	20.747322
2480.724943	-2.999900	3.081700	-9.243900	28.438843	4.950364E-8	20.760574
2481.722336	-3.012800	3.078500	-9.273300	28.457775	2.986720E-6	20.762569
2482.723330	-2.987100	3.079100	-9.196600	28.511103	3.184734E-6	20.752261
2483.722603	-3.000500	3.077000	-9.231600	28.558087	1.699625E-6	20.742205
2484.722739	-3.007300	3.076600	-9.251500	28.615279	2.425679E-6	20.728681
2485.722308	-3.003100	3.075100	-9.234100	28.597414	2.524686E-6	20.732499
2486.723917	-2.990900	3.075600	-9.198500	28.570774	1.270594E-6	20.756405
2487.721869	-2.995600	3.073200	-9.205500	28.524567	2.425679E-6	20.738318
2488.724085	-3.009300	3.072900	-9.245700	28.456050	1.930642E-6	20.741391
2489.724662	-3.030100	3.070400	-9.301800	28.472377	3.465255E-7	20.747876
2490.726254	-2.994100	3.069200	-9.188700	28.505929	1.039577E-6	20.738990
2491.726488	-2.977200	3.070200	-9.139700	28.567062	1.171586E-6	20.736071
2492.726243	-3.011000	3.068600	-9.238900	28.599773	6.765498E-7	20.747204
2493.725515	-2.999400	3.067000	-9.198600	28.645415	8.085595E-7	20.751447
2494.731223	-3.014700	3.065300	-9.240400	28.647077	7.425547E-7	20.760234
2495.725931	-3.009800	3.064600	-9.222900	28.603589	-1.815134E-7	20.734451
2496.731391	-3.002700	3.062400	-9.193900	28.615981	4.785352E-7	20.743140
2497.726070	-3.007700	3.061300	-9.206400	28.618953	6.435474E-7	20.743762
2498.726479	-2.981900	3.060700	-9.126400	28.670493	-4.950365E-8	20.747309
2499.725971	-2.981700	3.059400	-9.121700	28.646032	1.650122E-8	20.748750
2500.728576	-3.004300	3.058100	-9.186100	28.629982	2.689698E-6	20.747758
2501.727566	-2.966400	3.058600	-9.071700	28.654419	1.831635E-6	20.737757
2502.732984	-3.001700	3.055700	-9.171400	28.569604	1.006574E-6	20.748115
2503.728963	-2.986400	3.054800	-9.121200	28.592918	1.171586E-6	20.733662
2504.726923	-3.001000	3.053400	-9.161900	28.611358	1.666623E-6	20.741328
2505.734206	-3.000300	3.051600	-9.155200	28.673421	1.831635E-6	20.745516
2506.729860	-3.003900	3.050700	-9.163100	28.713435	1.864637E-6	20.717065
2507.735242	-2.974500	3.050200	-9.070900	28.721418	3.795279E-7	20.725107
2508.730778	-2.998000	3.049900	-9.142000	28.752438	1.996647E-6	20.740706
2509.729738	-2.978400	3.047700	-9.076600	28.726278	1.963645E-6	20.736167
2510.730403	-2.970700	3.048100	-9.054000	28.633882	-1.006574E-6	20.726080
2511.740623	-2.989400	3.046900	-9.106900	28.613119	-1.567615E-6	20.728402
2512.733958	-2.990400	3.042600	-9.097800	28.684853	-5.115377E-7	20.728580
2513.731105	-3.001000	3.042000	-9.127400	28.788340	-1.171586E-6	20.732774
2514.731379	-2.983100	3.043000	-9.076000	28.851938	2.227664E-6	20.730458
2515.731579	-3.020400	3.039000	-9.177100	28.874756	4.785352E-7	20.749653
2516.729801	-3.001100	3.039500	-9.121300	28.780667	-1.765630E-6	20.729786
2517.731603	-3.021800	3.037000	-9.176600	28.762756	-1.006574E-6	20.720278
2518.733906	-2.998300	3.036900	-9.104100	28.687835	4.125304E-7	20.744387
2519.730206	-2.991800	3.034500	-9.078200	28.658972	8.250607E-8	20.712943
2520.731603	-2.997200	3.033200	-9.090600	28.698791	-1.039577E-6	20.731713
2521.736047	-2.965300	3.033700	-8.995100	28.680755	-1.732628E-6	20.723979
2522.733567	-2.997300	3.031500	-9.085300	28.588606	-2.887713E-6	20.721257
2523.735389	-2.975300	3.030500	-9.015300	28.633526	-2.475182E-7	20.715764
2524.734242	-3.004400	3.028800	-9.098700	28.714551	-3.465255E-7	20.729570
2525.733207	-2.983700	3.027800	-9.033300	28.742624	-1.963645E-6	20.712801
2526.735237	-2.989200	3.026100	-9.045300	28.656746	-1.798632E-6	20.737730
2527.732662	-2.968700	3.024600	-8.977700	28.682020	1.270594E-6	20.720511
2528.733840	-2.989600	3.022500	-9.034800	28.755205	2.458681E-6	20.714569
2529.737782	-2.997300	3.022500	-9.058700	28.813206	-6.435474E-7	20.734115
2530.733568	-3.001900	3.021300	-9.069000	28.795716	-2.557688E-6	20.732144
2531.735214	-3.017700	3.020100	-9.112900	28.797251	-2.524686E-6	20.718042
2532.739536	-3.003200	3.018700	-9.064300	28.794011	-1.155085E-7	20.730425
2533.734156	-3.002300	3.015700	-9.053400	28.761208	-1.485109E-7	20.733419
2534.737163	-2.988400	3.015700	-9.011300	28.718671	-2.260666E-6	20.722814
2535.734756	-2.997600	3.014600	-9.035100	28.675490	-2.821708E-6	20.736694
2536.734920	-2.993800	3.012600	-9.018400	28.664589	-1.963645E-6	20.709592
2537.735250	-2.987000	3.010700	-8.992300	28.612284	-3.184735E-6	20.714284
2538.734347	-2.981200	3.010700	-8.973800	28.607851	-1.534613E-6	20.725467
2539.736221	-3.004100	3.008000	-9.035400	28.650251	-1.468608E-6	20.707953
2540.734918	-3.013700	3.008000	-9.064200	28.691373	-1.468608E-6	20.729458
2541.736588	-3.019900	3.006000	-9.076500	28.690260	-2.755703E-6	20.728811
2542.736593	-3.021700	3.005300	-9.079900	28.748980	-1.039577E-6	20.733904
2543.737886	-2.985300	3.003200	-8.965400	28.788501	-1.171586E-6	20.722979
2544.736458	-3.007100	3.001700	-9.024900	28.761818	2.145158E-7	20.697995
2545.737463	-3.010700	3.000000	-9.030800	28.792194	-1.006574E-6	20.712473
2546.737878	-2.996100	2.998500	-8.983200	28.814316	-2.260666E-6	20.731914
2547.738094	-3.005800	2.997500	-9.009200	28.783372	-1.138584E-6	20.735831
2548.741647	-3.005200	2.996500	-9.003800	28.820441	-3.877786E-6	20.724807
2549.739966	-3.037400	2.992400	-9.088400	28.823589	-4.471829E-6	20.728453
2550.741762	-3.007200	2.992600	-8.998300	28.763119	-2.194662E-6	20.730127
2551.740116	-2.998700	2.992100	-8.971800	28.705335	-1.237591E-6	20.713649
2552.739955	-3.003400	2.991900	-8.984100	28.698378	-2.128657E-6	20.720392
2553.739694	-3.026000	2.988900	-9.043400	28.709994	-4.009795E-6	20.722609
2554.741270	-2.990800	2.988900	-8.938200	28.798990	-3.547761E-6	20.716001
2555.742048	-3.011100	2.986500	-8.992000	28.862607	-2.227664E-6	20.736464
2556.741599	-2.994800	2.985300	-8.939700	28.918194	-6.765498E-7	20.713279
2557.741140	-3.004500	2.983400	-8.962800	28.977622	-1.402603E-6	20.726211
2558.741634	-2.981900	2.981900	-8.891100	28.982303	-5.445401E-7	20.736144
2559.744909	-2.983600	2.980700	-8.892600	28.924709	-1.699625E-6	20.718421
2560.742464	-3.003600	2.978700	-8.946000	28.880620	1.650122E-8	20.719523
2561.745315	-3.004700	2.977300	-8.945100	28.915052	-2.689698E-6	20.705371
2562.742521	-3.003300	2.976400	-8.938300	28.884739	-1.105581E-6	20.727466
2563.743896	-2.986800	2.974300	-8.883300	28.820556	-1.105581E-6	20.730613
2564.743519	-2.988000	2.973100	-8.882800	28.806704	-1.369601E-6	20.726617
2565.741805	-3.028900	2.971300	-8.998700	28.858137	-1.996647E-6	20.736703
2566.744970	-2.998300	2.969800	-8.903500	28.884440	-2.788705E-6	20.728587
2567.743762	-2.996500	2.967700	-8.891600	28.909195	-2.524686E-6	20.739302
2568.743636	-3.011100	2.966900	-8.933200	28.892496	-1.303596E-6	20.744290
2569.744074	-2.985800	2.966000	-8.854800	28.982614	-7.095522E-7	20.739302
2570.745667	-2.996800	2.963300	-8.879700	29.021014	-3.184735E-6	20.732472
2571.744953	-2.976400	2.963000	-8.818400	29.006523	-1.270594E-6	20.752960
2572.747624	-3.002800	2.960100	-8.887700	29.023215	-2.953718E-6	20.724257
2573.745827	-2.986800	2.961900	-8.846000	29.012317	-4.306817E-6	20.727028
2574.745445	-2.998500	2.957600	-8.867600	28.988248	-1.204589E-6	20.723166
2575.747464	-2.996100	2.957800	-8.861000	28.934022	-3.382749E-6	20.723062
2576.745697	-3.000400	2.954900	-8.865100	28.902617	-3.976793E-6	20.753538
2577.751060	-2.986900	2.954800	-8.824700	28.839229	-1.303596E-6	20.713861
2578.748221	-2.994600	2.953600	-8.844300	28.897519	-3.316744E-6	20.732754
2579.748809	-3.002800	2.950400	-8.858300	28.896156	-4.042798E-6	20.735649
2580.750983	-3.014600	2.948700	-8.887200	28.900990	-2.359674E-6	20.731036
2581.750776	-3.021500	2.946700	-8.902300	28.832022	-5.445401E-7	20.732206
2582.753050	-2.999400	2.944900	-8.831000	28.889694	-3.382749E-6	20.720130
2583.754053	-2.958100	2.944000	-8.707000	28.953776	-3.052725E-6	20.727316
2584.752393	-2.991500	2.942500	-8.801900	29.008588	-1.633620E-6	20.724693
2585.751367	-2.969900	2.941500	-8.734600	28.984220	-3.052725E-6	20.732384
2586.755580	-3.019600	2.939000	-8.873900	28.964258	-3.547761E-6	20.735032
2587.753126	-3.007000	2.937600	-8.831800	28.911968	-2.557688E-6	20.723128
2588.754762	-2.970400	2.936600	-8.722100	28.891106	-1.930642E-6	20.754270
2589.751119	-3.001600	2.934800	-8.808100	28.923410	-2.590691E-6	20.724225
2590.751331	-3.006300	2.933300	-8.817700	28.908796	-1.039577E-6	20.728942
2591.753094	-2.990300	2.933300	-8.770200	28.843275	-2.788705E-6	20.738801
2592.754019	-2.978800	2.930900	-8.729500	28.887170	-1.039577E-6	20.733708
2593.758115	-2.967700	2.929500	-8.692800	28.858404	-4.669844E-6	20.739343
2594.754326	-2.971400	2.927500	-8.697800	28.859626	-2.194662E-6	20.729668
2595.754638	-3.009000	2.924900	-8.800200	28.886797	-3.118730E-6	20.719581
2596.756113	-2.973300	2.924500	-8.694600	28.898270	-4.174807E-6	20.751056
2597.755035	-2.996000	2.922200	-8.754200	28.987025	-4.966866E-6	20.736159
2598.756222	-3.005000	2.920900	-8.776300	28.978279	-3.349747E-6	20.746788
2599.760122	-3.009900	2.918400	-8.783300	28.893765	-3.778778E-6	20.713798
2600.757032	-3.005300	2.915100	-8.760100	28.838647	-9.735717E-7	20.751209
2601.755604	-3.036700	2.914400	-8.848300	28.832828	-2.953718E-6	20.735863
2602.761083	-2.985600	2.912900	-8.695100	28.907615	-3.184735E-6	20.729175
2603.756930	-2.943700	2.910900	-8.567700	28.867163	-2.095654E-6	20.742477
2604.759558	-3.013000	2.907700	-8.760200	28.947846	-4.471829E-6	20.743628
2605.756474	-2.989700	2.907700	-8.692600	29.031267	-3.943790E-6	20.748967
2606.755891	-2.976200	2.906700	-8.650500	29.078258	-3.349747E-6	20.737993
2607.756808	-2.982900	2.904900	-8.663900	29.124717	-1.831635E-6	20.741657
2608.756680	-2.992900	2.901400	-8.682000	29.167743	-3.349747E-6	20.738073
2609.758656	-3.005200	2.900400	-8.715600	29.131285	-3.514759E-6	20.749225
2610.757849	-2.994200	2.899200	-8.680500	29.126909	-2.425679E-6	20.737229
2611.758879	-2.985600	2.898200	-8.652200	29.163955	-4.636841E-6	20.754644
2612.763602	-2.996300	2.895200	-8.674100	29.205367	-3.943790E-6	20.753701
2613.758588	-3.036900	2.891000	-8.778300	29.229265	-2.194662E-6	20.766880
2614.761378	-2.979200	2.892600	-8.616300	29.201981	-3.844783E-6	20.746496
2615.758854	-2.990800	2.888900	-8.639300	29.157422	-2.293669E-6	20.736206
2616.758111	-3.023200	2.887500	-8.728400	29.204328	-2.062652E-6	20.748861
2617.759258	-3.015400	2.885900	-8.701500	29.205006	-3.283742E-6	20.761872
2618.758267	-3.016400	2.882900	-8.694400	29.162756	-3.415752E-6	20.749643
2619.760579	-3.005400	2.882300	-8.661200	29.150650	-3.184735E-6	20.757832
2620.757803	-3.029200	2.880100	-8.723100	29.149684	-4.900861E-6	20.741686
2621.759728	-3.009300	2.878300	-8.660600	29.165383	-3.415752E-6	20.751342
2622.759616	-2.998200	2.876800	-8.623200	29.195302	-3.580764E-6	20.745455
2623.759502	-2.968200	2.874700	-8.531400	29.212259	-3.778778E-6	20.761121
2624.760052	-2.997500	2.874100	-8.613800	29.142846	-1.831635E-6	20.749495
2625.763799	-2.986500	2.870700	-8.572500	29.198663	-4.306817E-6	20.749791
2626.760176	-2.993100	2.870400	-8.590400	29.206093	-3.283742E-6	20.759175
2627.760566	-3.026300	2.866300	-8.673000	29.139100	-3.778778E-6	20.731021
2628.763039	-3.018900	2.864200	-8.646200	29.132885	-4.405824E-6	20.756528
2629.761827	-2.974000	2.863600	-8.515400	29.184242	-3.250739E-6	20.752802
2630.765079	-2.993800	2.861700	-8.566100	29.219556	-4.372822E-6	20.737179
2631.761330	-2.975700	2.860300	-8.510100	29.185012	-3.151732E-6	20.740301
2632.761549	-2.993500	2.856700	-8.550700	29.109395	-4.174807E-6	20.744711
2633.761009	-2.990800	2.856000	-8.541100	29.075587	-3.217737E-6	20.774658
2634.762523	-2.998200	2.852500	-8.552000	29.090499	-2.821708E-6	20.751750
2635.765703	-3.018700	2.850200	-8.602900	29.132270	-4.042798E-6	20.766813
2636.762528	-2.997600	2.849100	-8.539800	29.094527	-2.821708E-6	20.768137
2637.762098	-3.003900	2.846800	-8.549600	29.147132	-2.788705E-6	20.768513
2638.761865	-2.997200	2.845000	-8.526500	29.200022	-3.085727E-6	20.784351
2639.763393	-2.997500	2.842700	-8.519800	29.273793	-3.283742E-6	20.752958
2640.762227	-3.022800	2.839700	-8.582300	29.307619	-3.118730E-6	20.768082
2641.762831	-2.990200	2.839000	-8.488200	29.298949	-8.415620E-7	20.758396
2642.763780	-2.988100	2.836300	-8.474300	29.336386	-3.778778E-6	20.757244
2643.763226	-2.974900	2.833200	-8.428100	29.281139	-3.976793E-6	20.777431
2644.766755	-3.004400	2.832100	-8.507400	29.275865	-2.953718E-6	20.771168
2645.764157	-3.025000	2.829800	-8.559200	29.263333	-3.547761E-6	20.772763
2646.768116	-3.004000	2.826000	-8.488300	29.291655	-4.174807E-6	20.763373
2647.766006	-2.992100	2.824200	-8.449500	29.347641	-1.996647E-6	20.753889
2648.768361	-3.010100	2.823200	-8.497200	29.310273	-3.811781E-6	20.775024
2649.769806	-3.008700	2.819500	-8.482500	29.248089	-2.623693E-6	20.764038
2650.770617	-3.022200	2.817000	-8.513000	29.245438	-2.986720E-6	20.765633
2651.770990	-2.980500	2.816500	-8.393700	29.216859	-2.920715E-6	20.760067
2652.773679	-2.994600	2.812600	-8.421900	29.286963	-2.689698E-6	20.773343
2653.771156	-2.970600	2.811100	-8.349500	29.331188	-3.283742E-6	20.781878
2654.771499	-3.000700	2.807500	-8.423700	29.351839	-3.349747E-6	20.786571
2655.774858	-2.996000	2.805800	-8.405300	29.358524	-2.953718E-6	20.784298
2656.771375	-2.995900	2.801600	-8.392100	29.402324	-3.580764E-6	20.770597
2657.777707	-3.027300	2.798900	-8.472100	29.441913	-3.283742E-6	20.773990
2658.774409	-3.025000	2.797000	-8.459300	29.468696	-1.897640E-6	20.783917
2659.774459	-3.025500	2.794800	-8.455000	29.375381	-3.910788E-6	20.799866
2660.773388	-2.976300	2.792800	-8.310200	29.334446	-4.372822E-6	20.786584
2661.773775	-2.993200	2.788800	-8.346300	29.296759	-8.745644E-7	20.771361
2662.774602	-3.003100	2.786200	-8.366500	29.369784	-4.174807E-6	20.790432
2663.774197	-2.990300	2.784200	-8.324700	29.437154	-3.943790E-6	20.786263
2664.773651	-3.025600	2.780700	-8.412700	29.419816	-4.900861E-6	20.773529
2665.773815	-3.022300	2.777900	-8.393900	29.325262	-2.425679E-6	20.771164
2666.773211	-2.980000	2.775600	-8.270700	29.301727	-3.349747E-6	20.773050
2667.772847	-2.986600	2.772300	-8.279100	29.337293	-4.504832E-6	20.785186
2668.775483	-3.023000	2.768100	-8.366700	29.402979	-3.547761E-6	20.779792
2669.773040	-2.979500	2.766000	-8.240200	29.432689	-3.811781E-6	20.791246
2670.772416	-2.981000	2.762000	-8.232600	29.406644	-5.923936E-6	20.786332
2671.773807	-2.986600	2.761600	-8.246400	29.420898	-2.755703E-6	20.778413
2672.774402	-2.994100	2.757400	-8.254700	29.481263	-4.471829E-6	20.781886
2673.776326	-3.035600	2.753000	-8.356200	29.496860	-5.395897E-6	20.796659
2674.774660	-3.019200	2.751700	-8.307200	29.412931	-3.052725E-6	20.806893
2675.775421	-3.024000	2.745700	-8.302100	29.389630	-4.438827E-6	20.777717
2676.776531	-2.989800	2.745600	-8.208000	29.315915	-5.197883E-6	20.793038
2677.774008	-2.990100	2.741200	-8.195600	29.411985	-2.722700E-6	20.784128
2678.778176	-3.022800	2.736800	-8.271700	29.504758	-2.359674E-6	20.794664
2679.773935	-2.985600	2.735200	-8.165000	29.577220	-2.062652E-6	20.805594
2680.774343	-2.994300	2.731700	-8.178600	29.545107	-4.174807E-6	20.803568
2681.774370	-2.951800	2.727600	-8.050500	29.571252	-3.118730E-6	20.808112
2682.774339	-3.001500	2.723000	-8.172800	29.575657	-1.336598E-6	20.803543
2683.778664	-3.025800	2.720000	-8.228700	29.557911	-2.854710E-6	20.804147
2684.779568	-3.008700	2.715300	-8.168500	29.568381	-1.963645E-6	20.820391
2685.777483	-3.015400	2.713600	-8.181100	29.592443	-2.887713E-6	20.822361
2686.776976	-2.957600	2.709400	-8.012600	29.593707	-5.461902E-6	20.822213
2687.779442	-3.005300	2.705000	-8.128700	29.519194	-3.382749E-6	20.796412
2688.778002	-3.043400	2.699100	-8.213800	29.454078	-3.910788E-6	20.806641
2689.780164	-2.977800	2.699100	-8.035900	29.466357	-1.402603E-6	20.808112
2690.778002	-2.981300	2.692600	-8.026600	29.481679	-4.537834E-6	20.797952
2691.779002	-3.002100	2.690000	-8.074900	29.520458	-4.273815E-6	20.781091
2692.778396	-3.003100	2.684500	-8.061000	29.505027	-4.504832E-6	20.804418
2693.778680	-3.004900	2.681500	-8.056100	29.507330	-2.590691E-6	20.824757
2694.782435	-3.009100	2.676700	-8.053500	29.576377	-2.920715E-6	20.797632
2695.778829	-3.033000	2.671500	-8.101300	29.646904	-3.481756E-6	20.808513
2696.778333	-2.993200	2.668300	-7.985800	29.692475	-2.491683E-6	20.807041
2697.778866	-3.000900	2.664000	-7.993800	29.706285	-3.514759E-6	20.824283
2698.778088	-3.006300	2.658600	-7.991700	29.677572	-2.689698E-6	20.829474
2699.778326	-2.974800	2.656500	-7.901500	29.671953	-4.042798E-6	20.817170
2700.791869	-3.027300	2.649900	-8.021000	29.630534	-2.590691E-6	20.811450
2701.778650	-3.002200	2.646500	-7.943900	29.692940	-1.831635E-6	20.816044
2702.778986	-3.003500	2.640500	-7.929900	29.719973	-1.633620E-6	20.819591
2703.780549	-3.001700	2.635300	-7.909400	29.640186	-3.514759E-6	20.812171
2704.779834	-3.001100	2.631500	-7.896300	29.618874	-9.405693E-7	20.831463
2705.781620	-2.964600	2.627000	-7.786700	29.644846	-2.293669E-6	20.834886
2706.778946	-2.990400	2.620700	-7.836200	29.679771	-4.768851E-6	20.818889
2707.780957	-3.009300	2.616500	-7.873100	29.687443	-3.877786E-6	20.830890
2708.779738	-3.005000	2.610700	-7.844500	29.791327	-2.491683E-6	20.847910
2709.778663	-2.975000	2.605900	-7.751500	29.861839	-2.145158E-7	20.815644
2710.782390	-3.039800	2.599300	-7.900200	29.930215	-3.135231E-7	20.826272
2711.780124	-3.028400	2.593300	-7.853100	29.921708	-3.019722E-6	20.821487
2712.782421	-2.979000	2.588800	-7.711400	29.975103	-1.237591E-6	20.814641
2713.781678	-2.991100	2.582800	-7.724200	30.002428	-4.075800E-6	20.830816
2714.782068	-2.974500	2.577700	-7.666000	29.906210	-3.514759E-6	20.840946
2715.783014	-3.034700	2.571000	-7.801900	29.847310	-4.455328E-7	20.814271
2716.785333	-2.999800	2.564100	-7.690700	29.868123	-1.039577E-6	20.849006
2717.784393	-2.983100	2.560000	-7.636300	29.898565	-7.755571E-7	20.834185
2718.784092	-3.007500	2.553600	-7.679500	29.948352	-3.135231E-7	20.825595
2719.787440	-2.987700	2.548000	-7.612200	30.002678	-2.953718E-6	20.839603
2720.784938	-2.994200	2.540800	-7.607000	30.042312	-1.864637E-6	20.834056
2721.788428	-3.016100	2.534600	-7.644300	29.941353	-1.336598E-6	20.830392
2722.783929	-2.990600	2.529300	-7.563100	29.869387	-2.656696E-6	20.836057
2723.784317	-3.042900	2.522200	-7.674000	29.788499	-1.666623E-6	20.826094
2724.784494	-3.017900	2.515400	-7.589800	29.834834	-4.950365E-8	20.817337
2725.784669	-3.018200	2.509700	-7.573900	29.883115	-1.699625E-6	20.844684
2726.785683	-2.990900	2.503700	-7.487300	29.832067	-1.171586E-6	20.847737
2727.790204	-3.010600	2.497200	-7.517400	29.890663	-1.270594E-6	20.843286
