LabVIEW Measurement	
Writer_Version	2
Reader_Version	2
Separator	Tab
Decimal_Separator	.
Multi_Headings	No
X_Columns	One
Time_Pref	Absolute
Operator	admin
Description	Clolumns are: time, Current, Voltage, Power, Battery Temp, and Chamber Temp
Date	2024/08/16
Time	13:07:17.8513970375061035156
***End_of_Header***	
	
Channels	6						
Samples	1	1	1	1	1	1	
Date	2024/09/18	2024/09/18	2024/09/18	2024/09/18	2024/09/18	2024/09/18	
Time	08:44:25.1337690353393554687	08:44:25.1461462974548339844	08:44:25.1569161415100097656	08:44:25.1138639450073242187	08:44:25.1138639450073242187	08:44:25.1138639450073242187	
X_Dimension	Time	Time	Time	Time	Time	Time	
X0	0.0000000000000000E+0	0.0000000000000000E+0	0.0000000000000000E+0	0.0000000000000000E+0	0.0000000000000000E+0	0.0000000000000000E+0	
Delta_X	1.000000	1.000000	1.000000	1.000000	1.000000	1.000000	
***End_of_Header***							
X_Value	Untitled	Untitled 1	Untitled 2	Untitled 3	Untitled 4	Untitled 5	Comment
0.000000	0.029884	4.085700	0.122130	20.886341	0.000469	20.777289
0.998006	-2.990900	3.914800	-11.708000	20.883749	0.000465	20.779913
2.002918	-3.001500	3.908400	-11.730000	20.881568	0.000464	20.772515
2.995939	-2.992400	3.904300	-11.682000	20.863404	0.000466	20.771419
3.998041	-3.006400	3.900500	-11.725000	20.871235	0.000464	20.777355
5.000785	-3.014100	3.897300	-11.746000	20.868472	0.000464	20.759418
5.999757	-2.997000	3.895800	-11.675000	20.893715	0.000463	20.761430
6.999757	-2.994700	3.892700	-11.657000	20.901751	0.000462	20.766147
8.002765	-3.001600	3.890500	-11.676000	20.900459	0.000462	20.797098
9.000677	-2.975100	3.888900	-11.568000	20.909435	0.000462	20.771935
9.999407	-3.000400	3.887300	-11.662000	20.923633	0.000460	20.780446
11.000172	-3.018100	3.885800	-11.727000	20.910432	0.000456	20.793796
11.999106	-3.019000	3.884600	-11.726000	20.935984	0.000460	20.737795
12.998937	-3.004000	3.882100	-11.661000	20.937382	0.000459	20.756737
13.997401	-3.035900	3.881600	-11.783000	20.949350	0.000459	20.744050
14.999604	-3.007500	3.879300	-11.666000	20.937072	0.000459	20.780136
16.003402	-3.006000	3.878800	-11.659000	20.953241	0.000458	20.766908
17.004234	-3.006800	3.879500	-11.663000	20.983761	0.000457	20.750018
18.008952	-3.009100	3.877500	-11.667000	20.972654	0.000455	20.759771
19.001861	-3.003100	3.877500	-11.644000	20.990995	0.000457	20.771478
20.000233	-2.999500	3.877500	-11.629000	20.995409	0.000458	20.774470
20.998069	-2.990200	3.877200	-11.593000	20.992132	0.000456	20.774986
21.999364	-3.019400	3.874800	-11.699000	21.009329	0.000455	20.768478
23.003565	-2.997400	3.873900	-11.611000	21.021900	0.000453	20.758766
24.004381	-2.998600	3.873000	-11.613000	21.027344	0.000453	20.770849
25.003491	-2.954900	3.874300	-11.447000	21.034953	0.000455	20.770874
26.004479	-3.006000	3.872000	-11.638000	21.038966	0.000453	20.773465
27.008824	-2.981500	3.872800	-11.546000	21.037667	0.000453	20.768847
28.005254	-3.001900	3.872700	-11.625000	21.055207	0.000452	20.758889
29.004911	-3.009800	3.870900	-11.650000	21.065236	0.000452	20.768446
30.003439	-3.022100	3.869900	-11.695000	21.072445	0.000453	20.761906
31.005965	-2.998900	3.870400	-11.606000	21.075542	0.000450	20.785867
32.004765	-3.005300	3.868600	-11.625000	21.077733	0.000452	20.752971
33.007136	-3.005300	3.869500	-11.628000	21.088260	0.000450	20.761604
34.017616	-2.994300	3.869500	-11.586000	21.115933	0.000451	20.751826
35.001328	-2.989100	3.868000	-11.561000	21.124981	0.000450	20.746177
36.007590	-2.997600	3.867600	-11.593000	21.135230	0.000452	20.758800
37.008582	-2.995600	3.868100	-11.586000	21.146532	0.000448	20.756830
38.005346	-3.011200	3.867500	-11.645000	21.145943	0.000449	20.744860
39.002341	-3.000800	3.866300	-11.601000	21.152955	0.000450	20.767522
40.007651	-2.998400	3.866500	-11.592000	21.161561	0.000450	20.753845
41.006069	-3.004700	3.866800	-11.617000	21.158292	0.000449	20.741566
42.010238	-3.010800	3.865200	-11.635000	21.178013	0.000449	20.766984
43.006926	-2.996600	3.865300	-11.581000	21.188424	0.000450	20.770760
44.006567	-3.003400	3.864400	-11.605000	21.195640	0.000448	20.750003
45.005994	-2.993900	3.864200	-11.568000	21.212629	0.000449	20.748507
46.006039	-3.018900	3.863500	-11.661000	21.198206	0.000447	20.741664
47.006363	-2.972900	3.864900	-11.488000	21.226343	0.000450	20.764122
48.004269	-2.996300	3.863400	-11.574000	21.221448	0.000448	20.762545
49.007902	-3.021100	3.862700	-11.669000	21.236043	0.000449	20.739212
50.004887	-3.004100	3.863700	-11.606000	21.234727	0.000449	20.743585
51.008588	-2.973600	3.862700	-11.485000	21.250540	0.000450	20.754663
52.005208	-3.004800	3.863500	-11.608000	21.264742	0.000450	20.756543
53.006760	-3.010100	3.862400	-11.625000	21.278307	0.000447	20.746880
54.009646	-3.011800	3.862400	-11.632000	21.266205	0.000448	20.762275
55.006104	-3.014800	3.862000	-11.642000	21.303247	0.000447	20.737217
56.009868	-2.986200	3.862100	-11.532000	21.304743	0.000448	20.756258
57.009882	-2.994600	3.862000	-11.565000	21.318536	0.000448	20.734969
58.011472	-2.990200	3.862200	-11.547000	21.302675	0.000450	20.754189
59.009711	-2.996900	3.860800	-11.570000	21.331905	0.000447	20.760673
60.013186	-3.006500	3.861000	-11.608000	21.328963	0.000447	20.718373
61.015165	-3.013400	3.862500	-11.638000	21.360765	0.000446	20.757778
62.014317	-2.973200	3.861200	-11.479000	21.350715	0.000447	20.730652
63.014567	-3.012900	3.859600	-11.628000	21.356434	0.000448	20.731633
64.011999	-3.002900	3.860500	-11.592000	21.366583	0.000448	20.733726
65.017796	-2.999600	3.859200	-11.576000	21.400893	0.000449	20.750985
66.020354	-2.982400	3.860000	-11.511000	21.404889	0.000447	20.736016
67.018406	-2.995500	3.859600	-11.561000	21.396547	0.000448	20.725298
68.013911	-2.978800	3.859300	-11.496000	21.409350	0.000448	20.749489
69.015904	-2.989000	3.860500	-11.538000	21.429981	0.000446	20.749742
70.015744	-2.985700	3.860300	-11.525000	21.411850	0.000447	20.736817
71.016276	-2.996400	3.859300	-11.564000	21.412022	0.000447	20.729402
72.022180	-2.985100	3.859500	-11.520000	21.437335	0.000446	20.734340
73.016238	-3.003600	3.858900	-11.589000	21.443471	0.000446	20.736212
74.013290	-2.996900	3.858500	-11.562000	21.453552	0.000450	20.752464
75.018140	-2.992200	3.857900	-11.542000	21.463423	0.000449	20.736261
76.018128	-3.001400	3.858000	-11.578000	21.486478	0.000448	20.746529
77.020163	-2.996000	3.858100	-11.558000	21.486225	0.000448	20.753388
78.021563	-3.007900	3.857700	-11.602000	21.506896	0.000449	20.730922
79.016145	-3.014300	3.855800	-11.622000	21.492459	0.000449	20.725485
80.020618	-3.003700	3.856400	-11.583000	21.518669	0.000448	20.724684
81.029233	-3.019400	3.856500	-11.643000	21.529118	0.000449	20.734667
82.020392	-3.017200	3.855600	-11.632000	21.524257	0.000447	20.740708
83.021535	-2.996800	3.855800	-11.554000	21.524952	0.000447	20.722910
84.021132	-2.982200	3.856200	-11.499000	21.541390	0.000449	20.736040
85.022480	-2.988600	3.855900	-11.523000	21.551512	0.000451	20.733841
86.021747	-3.002800	3.856300	-11.579000	21.580890	0.000450	20.712503
87.022048	-2.982900	3.856400	-11.502000	21.566928	0.000450	20.717024
88.024603	-2.992800	3.855100	-11.536000	21.568619	0.000451	20.708759
89.020037	-2.986900	3.856200	-11.517000	21.610046	0.000448	20.735517
90.020332	-2.990100	3.855400	-11.527000	21.602915	0.000450	20.729802
91.020250	-2.993800	3.854600	-11.538000	21.610383	0.000452	20.722576
92.019641	-2.987200	3.855100	-11.515000	21.632006	0.000452	20.709601
93.020586	-3.017700	3.854000	-11.629000	21.618592	0.000452	20.712773
94.029413	-2.993000	3.854500	-11.535000	21.624482	0.000450	20.697329
95.023061	-3.013900	3.853200	-11.612000	21.649316	0.000449	20.703216
96.029186	-3.009500	3.854900	-11.601000	21.659561	0.000450	20.718210
97.026615	-3.017500	3.854100	-11.629000	21.662747	0.000451	20.736573
98.022530	-2.989100	3.855000	-11.522000	21.683120	0.000452	20.717132
99.025459	-3.003700	3.853600	-11.573000	21.678333	0.000451	20.743637
100.024165	-3.012100	3.853200	-11.605000	21.679453	0.000452	20.724841
101.023032	-2.998600	3.852100	-11.549000	21.696133	0.000452	20.714033
102.023520	-2.997600	3.853600	-11.551000	21.721766	0.000451	20.714557
103.023630	-3.004400	3.851200	-11.569000	21.717453	0.000454	20.718301
104.026407	-2.995500	3.853400	-11.542000	21.736404	0.000454	20.733949
105.033087	-3.017500	3.851000	-11.620000	21.724904	0.000453	20.696358
106.029693	-2.987400	3.853100	-11.510000	21.752186	0.000453	20.710387
107.028248	-2.991800	3.853100	-11.526000	21.747939	0.000453	20.711353
108.030232	-3.005100	3.852200	-11.576000	21.760608	0.000453	20.716920
109.034621	-2.993500	3.851700	-11.530000	21.754694	0.000454	20.720485
110.033009	-2.995300	3.852300	-11.538000	21.756189	0.000455	20.715343
111.031392	-3.004700	3.852200	-11.574000	21.771823	0.000454	20.715817
112.032188	-3.029400	3.850700	-11.664000	21.802388	0.000453	20.714640
113.029027	-3.018600	3.851200	-11.624000	21.802388	0.000456	20.712743
114.030996	-3.023400	3.850800	-11.641000	21.806146	0.000457	20.697537
115.041810	-2.987300	3.851700	-11.505000	21.805574	0.000456	20.716881
116.035105	-3.004200	3.850700	-11.567000	21.815042	0.000455	20.715451
117.033553	-2.984100	3.851600	-11.493000	21.844837	0.000453	20.699279
118.032612	-3.002500	3.849000	-11.556000	21.854606	0.000456	20.713799
119.031961	-2.968300	3.851600	-11.432000	21.856533	0.000454	20.688699
120.032750	-2.998200	3.850200	-11.543000	21.865772	0.000457	20.709328
121.036473	-2.987000	3.850300	-11.500000	21.860740	0.000458	20.712826
122.036350	-2.996100	3.851500	-11.537000	21.853357	0.000456	20.709229
123.033630	-3.006400	3.850300	-11.575000	21.886689	0.000456	20.699918
124.037606	-2.983500	3.848700	-11.482000	21.891990	0.000455	20.706173
125.039504	-2.993600	3.849800	-11.524000	21.875631	0.000457	20.709713
126.051607	-2.998900	3.848800	-11.542000	21.913559	0.000457	20.716858
127.041608	-3.015600	3.848400	-11.604000	21.909289	0.000458	20.709738
128.036932	-2.987000	3.849800	-11.499000	21.949373	0.000459	20.705291
129.039615	-3.007900	3.847300	-11.571000	21.948973	0.000457	20.702045
130.048803	-2.980800	3.849700	-11.474000	21.938878	0.000457	20.705691
131.041430	-3.025000	3.846800	-11.636000	21.961534	0.000457	20.706084
132.042294	-3.000700	3.847500	-11.545000	21.961853	0.000460	20.712094
133.043620	-2.982400	3.846400	-11.471000	21.980996	0.000459	20.697116
134.045111	-3.009900	3.846700	-11.577000	21.988297	0.000460	20.699210
135.044315	-3.007000	3.847900	-11.570000	21.998661	0.000459	20.709585
136.043221	-2.970800	3.847600	-11.429000	22.012144	0.000458	20.693210
137.044221	-2.999900	3.847900	-11.542000	22.005913	0.000460	20.701197
138.047998	-2.975300	3.846800	-11.444000	21.982672	0.000461	20.677455
139.043643	-2.999000	3.848200	-11.540000	22.013477	0.000460	20.707347
140.044926	-3.007000	3.846100	-11.564000	22.021473	0.000461	20.709187
141.045748	-2.998000	3.846000	-11.529000	22.028577	0.000460	20.705394
142.048620	-2.997100	3.847100	-11.529000	22.022771	0.000461	20.711435
143.051908	-2.980800	3.847300	-11.467000	22.081511	0.000462	20.720929
144.046405	-2.988000	3.846000	-11.491000	22.090339	0.000461	20.715066
145.047536	-3.012200	3.845100	-11.581000	22.067327	0.000460	20.705305
146.046399	-3.014700	3.844400	-11.589000	22.089833	0.000461	20.707922
147.044625	-3.007100	3.845900	-11.564000	22.073224	0.000463	20.713580
148.047606	-2.985500	3.845900	-11.481000	22.118797	0.000461	20.701831
149.044399	-3.019800	3.843900	-11.605000	22.115246	0.000464	20.687369
150.044473	-3.004600	3.845000	-11.551000	22.104240	0.000461	20.711914
151.047279	-3.013300	3.844600	-11.584000	22.109506	0.000465	20.706754
152.047728	-3.007300	3.844800	-11.561000	22.147861	0.000464	20.711489
153.049276	-2.993200	3.845100	-11.508000	22.151502	0.000465	20.704229
154.048515	-2.980100	3.843500	-11.453000	22.144619	0.000465	20.719150
155.042840	-2.993800	3.843900	-11.507000	22.160641	0.000464	20.720017
156.047141	-3.015600	3.841900	-11.584000	22.177935	0.000467	20.707934
157.050349	-2.990400	3.843400	-11.492000	22.185562	0.000464	20.715570
158.053119	-2.988300	3.843800	-11.486000	22.182720	0.000465	20.714622
159.053689	-3.024600	3.843300	-11.624000	22.191318	0.000464	20.685295
160.051069	-2.962800	3.843500	-11.386000	22.203175	0.000469	20.711393
161.050878	-2.969700	3.843600	-11.413000	22.214663	0.000469	20.720051
162.050341	-3.024900	3.842500	-11.621000	22.225302	0.000464	20.733550
163.053720	-2.992300	3.841500	-11.494000	22.210075	0.000466	20.706447
164.053012	-3.006200	3.843200	-11.552000	22.230855	0.000468	20.736264
165.052718	-2.986500	3.841300	-11.471000	22.235289	0.000466	20.712727
166.050549	-3.000700	3.843200	-11.531000	22.243855	0.000466	20.720830
167.049472	-2.984500	3.842200	-11.467000	22.265810	0.000470	20.723847
168.054264	-3.006400	3.841400	-11.548000	22.276473	0.000467	20.712238
169.059412	-3.015100	3.841500	-11.582000	22.274922	0.000470	20.713056
170.048666	-2.965200	3.842500	-11.393000	22.267500	0.000468	20.706573
171.053367	-3.011600	3.841200	-11.567000	22.274449	0.000469	20.718747
172.054453	-2.999100	3.840200	-11.516000	22.266946	0.000470	20.727356
173.053026	-2.992600	3.842000	-11.497000	22.282590	0.000472	20.697499
174.056125	-3.012100	3.840200	-11.566000	22.323346	0.000471	20.733569
175.059363	-3.003500	3.838500	-11.528000	22.323110	0.000470	20.701563
176.052053	-3.012400	3.838400	-11.562000	22.319045	0.000472	20.734478
177.054384	-3.010200	3.839000	-11.555000	22.349897	0.000472	20.723646
178.062448	-3.003000	3.840000	-11.531000	22.345684	0.000473	20.713737
179.067046	-2.975600	3.840100	-11.425000	22.387475	0.000471	20.702954
180.060301	-2.994800	3.838300	-11.494000	22.369075	0.000473	20.716297
181.057868	-3.022400	3.838200	-11.600000	22.361303	0.000473	20.729852
182.054046	-2.999500	3.839900	-11.517000	22.357269	0.000472	20.715855
183.057367	-3.009200	3.839000	-11.550000	22.380864	0.000472	20.729999
184.055337	-2.998900	3.837300	-11.507000	22.390856	0.000473	20.728152
185.058085	-2.980400	3.839400	-11.442000	22.402620	0.000473	20.732820
186.061682	-3.006300	3.838300	-11.538000	22.402441	0.000475	20.714622
187.058838	-3.025600	3.836700	-11.608000	22.380881	0.000474	20.730491
188.061575	-2.999100	3.838500	-11.511000	22.362667	0.000477	20.733115
189.063226	-3.017700	3.837100	-11.578000	22.368693	0.000474	20.714017
190.061065	-3.005500	3.836100	-11.528000	22.371330	0.000477	20.719978
191.060546	-3.005700	3.838100	-11.535000	22.398491	0.000475	20.732478
192.058200	-3.005400	3.837200	-11.532000	22.429650	0.000477	20.737603
193.059795	-2.996800	3.836800	-11.497000	22.421545	0.000475	20.724270
194.068532	-3.004900	3.836800	-11.528000	22.440059	0.000478	20.718629
195.061711	-3.010800	3.836000	-11.548000	22.445292	0.000477	20.718653
196.067411	-3.001600	3.834600	-11.509000	22.474591	0.000479	20.748944
197.064591	-2.997400	3.835900	-11.497000	22.469586	0.000479	20.738717
198.063749	-2.992300	3.835700	-11.476000	22.484116	0.000478	20.726715
199.061347	-2.988700	3.836800	-11.466000	22.509177	0.000476	20.727157
200.063944	-3.005000	3.834900	-11.523000	22.512050	0.000480	20.729560
201.062766	-2.996700	3.834500	-11.489000	22.529388	0.000478	20.727958
202.063996	-3.001400	3.835200	-11.510000	22.535469	0.000479	20.739264
203.063309	-2.996900	3.834500	-11.490000	22.549370	0.000479	20.727582
204.060956	-2.992000	3.834300	-11.471000	22.539607	0.000479	20.735348
205.064970	-3.007400	3.833600	-11.528000	22.573915	0.000478	20.727508
206.063851	-2.986100	3.833400	-11.446000	22.580135	0.000478	20.725204
207.065762	-3.006100	3.833300	-11.523000	22.574805	0.000477	20.728400
208.065739	-2.996500	3.834800	-11.489000	22.571621	0.000480	20.739911
209.064624	-2.992400	3.834400	-11.472000	22.566357	0.000481	20.732267
210.067278	-3.008600	3.832800	-11.530000	22.555150	0.000481	20.760872
211.065820	-3.010500	3.833000	-11.539000	22.546645	0.000482	20.755200
212.068341	-3.002900	3.833200	-11.511000	22.576601	0.000481	20.744424
213.067858	-3.024500	3.832800	-11.591000	22.596729	0.000482	20.733763
214.064872	-2.999900	3.831400	-11.492000	22.618629	0.000483	20.758796
215.088392	-3.021800	3.831100	-11.576000	22.624709	0.000484	20.732864
216.071899	-3.011000	3.831700	-11.537000	22.653260	0.000484	20.759091
217.064690	-2.969300	3.833300	-11.382000	22.659235	0.000485	20.728565
218.070867	-2.997700	3.833100	-11.489000	22.653733	0.000483	20.741399
219.070639	-3.001600	3.831600	-11.500000	22.657545	0.000482	20.752477
220.069284	-3.012900	3.831000	-11.542000	22.656377	0.000484	20.719538
221.073973	-2.996500	3.832100	-11.482000	22.665119	0.000484	20.757219
222.070468	-3.017900	3.829500	-11.555000	22.666490	0.000484	20.733935
223.070450	-3.008000	3.830300	-11.520000	22.687539	0.000484	20.724673
224.068998	-3.021600	3.830100	-11.571000	22.684569	0.000485	20.722172
225.071958	-3.029700	3.829400	-11.601000	22.700418	0.000486	20.737100
226.072870	-3.002200	3.829900	-11.497000	22.706589	0.000485	20.748972
227.074614	-3.015900	3.829200	-11.548000	22.706295	0.000489	20.731132
228.075838	-2.985000	3.830100	-11.432000	22.746905	0.000486	20.748104
229.075552	-2.995600	3.829000	-11.470000	22.741674	0.000487	20.739545
230.071295	-2.997300	3.829300	-11.477000	22.729040	0.000487	20.734476
231.068719	-3.011000	3.829000	-11.527000	22.735618	0.000488	20.742488
232.070846	-3.024500	3.828600	-11.578000	22.732729	0.000489	20.753345
233.073140	-2.992000	3.829900	-11.457000	22.743332	0.000487	20.754008
234.083493	-2.988500	3.828300	-11.439000	22.770190	0.000488	20.741557
235.073369	-3.013500	3.828700	-11.537000	22.777518	0.000489	20.750795
236.077096	-2.982800	3.828000	-11.416000	22.808007	0.000491	20.758104
237.078768	-3.007200	3.827500	-11.509000	22.821765	0.000490	20.769041
238.078677	-3.001000	3.827600	-11.486000	22.849749	0.000491	20.746815
239.078809	-2.992300	3.827000	-11.450000	22.837377	0.000490	20.751016
240.078525	-3.012400	3.827700	-11.529000	22.831241	0.000490	20.745817
241.081102	-2.990300	3.827800	-11.445000	22.828555	0.000490	20.744075
242.079097	-3.018800	3.826600	-11.551000	22.852736	0.000489	20.758342
243.083709	-3.011400	3.825300	-11.519000	22.868345	0.000491	20.749797
244.078347	-3.008900	3.827400	-11.515000	22.857297	0.000492	20.744893
245.079849	-3.008400	3.826100	-11.509000	22.877681	0.000493	20.740658
246.078752	-3.000600	3.825900	-11.479000	22.865147	0.000492	20.752758
247.080557	-3.014500	3.824600	-11.527000	22.871994	0.000493	20.755824
248.077356	-2.982700	3.826100	-11.411000	22.882789	0.000493	20.764742
249.081437	-2.992200	3.825400	-11.446000	22.899925	0.000493	20.752038
250.087390	-2.971400	3.825800	-11.367000	22.898701	0.000496	20.754131
251.080760	-3.000300	3.824400	-11.474000	22.896286	0.000493	20.746495
252.082458	-3.011100	3.824400	-11.515000	22.894197	0.000494	20.744402
253.079281	-2.988000	3.825400	-11.429000	22.925482	0.000494	20.774324
254.083781	-2.999100	3.824200	-11.468000	22.904055	0.000498	20.746692
255.081324	-3.012100	3.824100	-11.517000	22.905548	0.000496	20.752930
256.084645	-2.995000	3.823500	-11.450000	22.896784	0.000496	20.762642
257.081288	-2.993400	3.822500	-11.441000	22.922544	0.000495	20.773751
258.079097	-2.961900	3.824100	-11.326000	22.916661	0.000496	20.778289
259.089708	-2.996600	3.823400	-11.456000	22.913299	0.000494	20.773498
260.079860	-2.980200	3.823100	-11.391000	22.950859	0.000496	20.745220
261.085618	-3.016700	3.823700	-11.535000	22.958505	0.000497	20.756200
262.084573	-3.003800	3.824100	-11.486000	22.937313	0.000497	20.767211
263.081798	-3.009500	3.822300	-11.503000	23.003887	0.000498	20.749512
264.082739	-3.012900	3.821300	-11.511000	23.013597	0.000497	20.779156
265.082277	-2.988700	3.821400	-11.419000	23.004532	0.000497	20.770073
266.085603	-2.987600	3.821500	-11.416000	22.972629	0.000500	20.777463
267.083704	-2.999600	3.821800	-11.463000	23.015792	0.000500	20.747215
268.084367	-3.014800	3.819600	-11.514000	23.020352	0.000499	20.758423
269.082165	-2.986900	3.821000	-11.412000	23.057404	0.000499	20.764253
270.121481	-3.012600	3.820600	-11.509000	23.066843	0.000499	20.776557
271.088711	-3.016300	3.819500	-11.519000	23.069266	0.000499	20.760492
272.100771	-3.006700	3.821600	-11.489000	23.067716	0.000498	20.773638
273.094075	-2.979500	3.820400	-11.382000	23.049082	0.000500	20.769666
274.086431	-2.984000	3.821000	-11.401000	23.059917	0.000501	20.778151
275.084362	-3.034800	3.818400	-11.586000	23.074358	0.000502	20.794044
276.088845	-3.035200	3.819000	-11.589000	23.087934	0.000500	20.764499
277.088957	-2.989600	3.818900	-11.416000	23.111194	0.000500	20.787807
278.094288	-3.008200	3.818600	-11.485000	23.085610	0.000499	20.785404
279.091345	-3.014100	3.818100	-11.506000	23.092592	0.000502	20.781021
280.090468	-3.010600	3.817700	-11.493000	23.085463	0.000501	20.766290
281.095094	-2.972500	3.819500	-11.352000	23.118089	0.000504	20.797560
282.090762	-3.006400	3.818000	-11.477000	23.158032	0.000504	20.764565
283.094638	-3.005600	3.817400	-11.472000	23.110265	0.000503	20.777392
284.091746	-3.004700	3.817900	-11.471000	23.127055	0.000504	20.789475
285.093263	-3.019500	3.816500	-11.523000	23.127797	0.000503	20.790219
286.094588	-3.025400	3.816300	-11.545000	23.135891	0.000504	20.782682
287.095927	-3.019600	3.815600	-11.520000	23.150461	0.000506	20.782109
288.099784	-3.019200	3.815800	-11.520000	23.157166	0.000505	20.770336
289.096041	-2.998600	3.817400	-11.446000	23.173051	0.000506	20.790996
290.095554	-2.991200	3.815500	-11.412000	23.141397	0.000506	20.775872
291.100092	-2.973200	3.816600	-11.346000	23.133721	0.000504	20.787620
292.093018	-2.980300	3.816700	-11.374000	23.165701	0.000505	20.786949
293.097208	-2.984200	3.816000	-11.387000	23.133598	0.000507	20.787023
294.095706	-2.993200	3.815500	-11.420000	23.144562	0.000507	20.791371
295.096354	-2.984100	3.815800	-11.386000	23.134618	0.000508	20.794209
296.096024	-3.001900	3.815100	-11.452000	23.168115	0.000508	20.794111
297.096023	-2.986000	3.815700	-11.392000	23.198839	0.000508	20.789337
298.095322	-3.010900	3.814700	-11.485000	23.200234	0.000507	20.806382
299.095413	-2.978800	3.814100	-11.360000	23.201237	0.000507	20.792688
300.092255	-2.994000	3.814400	-11.419000	23.206907	0.000510	20.788414
301.094844	-2.990400	3.814300	-11.405000	23.228076	0.000508	20.790662
302.093597	-3.005700	3.814300	-11.464000	23.213997	0.000510	20.805002
303.095922	-3.011000	3.813500	-11.482000	23.247811	0.000508	20.789576
304.096950	-3.015100	3.812200	-11.494000	23.281533	0.000509	20.798241
305.096957	-3.001000	3.813200	-11.442000	23.262159	0.000510	20.806326
306.093610	-3.008200	3.812300	-11.468000	23.260585	0.000510	20.794792
307.096836	-2.999900	3.811900	-11.434000	23.287578	0.000510	20.800506
308.094307	-2.983900	3.811800	-11.373000	23.260610	0.000511	20.806670
309.096879	-2.989000	3.812000	-11.392000	23.296486	0.000510	20.794261
310.095675	-2.991700	3.811600	-11.402000	23.313641	0.000513	20.797229
311.096004	-3.011300	3.811400	-11.477000	23.331920	0.000512	20.801798
312.096149	-3.011800	3.809700	-11.472000	23.337345	0.000513	20.814347
313.096128	-3.012000	3.810000	-11.475000	23.313167	0.000510	20.808134
314.100072	-2.979500	3.810000	-11.351000	23.298852	0.000511	20.785252
315.106159	-2.986300	3.809800	-11.375000	23.315428	0.000513	20.792382
316.100423	-2.997200	3.810200	-11.419000	23.328559	0.000511	20.813603
317.098877	-3.019100	3.809500	-11.500000	23.349473	0.000513	20.802322
318.104321	-3.006500	3.810100	-11.453000	23.377150	0.000514	20.798767
319.100029	-3.013600	3.808800	-11.477000	23.377630	0.000513	20.796403
320.109037	-2.972200	3.810100	-11.324000	23.372696	0.000514	20.814217
321.103909	-2.990000	3.809000	-11.388000	23.331864	0.000515	20.816915
322.103777	-3.001100	3.808800	-11.430000	23.335151	0.000513	20.816416
323.106164	-3.004700	3.809000	-11.445000	23.346652	0.000514	20.796649
324.109212	-2.997100	3.808400	-11.413000	23.375608	0.000515	20.806230
325.103682	-3.006000	3.807500	-11.445000	23.399164	0.000516	20.810874
326.105185	-2.988300	3.809200	-11.382000	23.390323	0.000515	20.824771
327.108529	-2.993300	3.807500	-11.397000	23.396522	0.000515	20.801113
328.104991	-2.997800	3.806700	-11.410000	23.415567	0.000515	20.820676
329.111037	-3.043800	3.806000	-11.584000	23.438224	0.000517	20.813515
330.107056	-2.985200	3.808000	-11.367000	23.467325	0.000515	20.802381
331.114333	-2.982700	3.806600	-11.352000	23.465931	0.000516	20.802405
332.107862	-2.987600	3.805900	-11.370000	23.462497	0.000517	20.828360
333.110244	-2.994300	3.806300	-11.396000	23.447132	0.000516	20.815804
334.108748	-3.002100	3.805400	-11.423000	23.467448	0.000515	20.829056
335.105717	-3.021900	3.804800	-11.497000	23.492347	0.000517	20.822246
336.114861	-2.986000	3.805300	-11.361000	23.479176	0.000516	20.799086
337.110038	-2.991700	3.805400	-11.384000	23.455026	0.000518	20.808071
338.114313	-2.999100	3.804900	-11.410000	23.486565	0.000517	20.821192
339.109926	-3.010400	3.804000	-11.451000	23.498612	0.000519	20.851758
340.113156	-3.007100	3.804500	-11.439000	23.499761	0.000520	20.828255
341.109754	-3.001300	3.804300	-11.417000	23.489298	0.000522	20.823931
342.112945	-2.998700	3.804400	-11.407000	23.476379	0.000519	20.830896
343.113542	-2.995100	3.804400	-11.394000	23.467220	0.000518	20.806068
344.114184	-3.005800	3.803000	-11.429000	23.486607	0.000520	20.826449
345.116926	-2.950500	3.805500	-11.227000	23.518283	0.000521	20.806992
346.113756	-3.014000	3.802800	-11.460000	23.533191	0.000521	20.825729
347.115190	-3.008800	3.803200	-11.442000	23.536453	0.000522	20.813353
348.111553	-3.017200	3.802700	-11.472000	23.531152	0.000522	20.836487
349.113248	-2.988200	3.803100	-11.363000	23.544838	0.000521	20.824128
350.111895	-2.972100	3.804200	-11.305000	23.552455	0.000519	20.811375
351.116007	-2.989600	3.801300	-11.363000	23.577898	0.000521	20.839725
352.117694	-2.990500	3.801900	-11.369000	23.591640	0.000521	20.838802
353.111265	-3.005800	3.801000	-11.425000	23.618176	0.000520	20.817514
354.113628	-2.996800	3.801600	-11.391000	23.593174	0.000522	20.830383
355.115333	-3.000100	3.800700	-11.402000	23.580509	0.000521	20.839023
356.119757	-2.995000	3.801300	-11.384000	23.584219	0.000524	20.848906
357.112214	-3.015500	3.799900	-11.458000	23.586251	0.000524	20.864692
358.117689	-3.016400	3.799200	-11.459000	23.596786	0.000524	20.845857
359.115505	-2.976000	3.800800	-11.310000	23.614206	0.000521	20.828233
360.116035	-2.999800	3.798900	-11.395000	23.621122	0.000524	20.849390
361.113215	-2.993500	3.799100	-11.371000	23.643652	0.000523	20.856330
362.117430	-2.988700	3.799700	-11.355000	23.629309	0.000525	20.827727
363.120356	-3.022800	3.798300	-11.481000	23.610986	0.000524	20.830695
364.116442	-2.992200	3.799600	-11.368000	23.627743	0.000523	20.862666
365.117022	-2.997900	3.799400	-11.389000	23.611557	0.000524	20.841698
366.116081	-3.000500	3.797400	-11.393000	23.602465	0.000523	20.846808
367.118520	-3.003900	3.798800	-11.410000	23.611826	0.000524	20.846710
368.119109	-3.009900	3.798000	-11.430000	23.644332	0.000525	20.863649
369.121805	-2.994300	3.797500	-11.369000	23.618872	0.000526	20.841919
370.115132	-3.022400	3.797400	-11.476000	23.622778	0.000524	20.854844
371.118396	-2.986900	3.796100	-11.338000	23.664375	0.000524	20.851975
372.118424	-3.014400	3.795700	-11.441000	23.672057	0.000526	20.844504
373.114794	-2.987900	3.797100	-11.345000	23.668445	0.000526	20.837564
374.120306	-2.996700	3.796700	-11.376000	23.679632	0.000527	20.854468
375.116054	-2.991700	3.796400	-11.357000	23.689262	0.000527	20.838520
376.115746	-2.998700	3.796300	-11.383000	23.716938	0.000528	20.861524
377.115852	-3.007300	3.795800	-11.415000	23.702073	0.000526	20.850889
378.120142	-3.015100	3.793700	-11.437000	23.717460	0.000525	20.856357
379.120342	-3.008800	3.795400	-11.417000	23.688204	0.000527	20.850734
380.120493	-3.013400	3.794700	-11.435000	23.718994	0.000526	20.848413
381.118604	-3.004700	3.793600	-11.398000	23.740896	0.000528	20.867051
382.119655	-3.014200	3.794300	-11.436000	23.752929	0.000525	20.845452
383.124037	-3.008500	3.794100	-11.414000	23.750575	0.000527	20.836454
384.122299	-2.976800	3.794900	-11.296000	23.794937	0.000527	20.867181
385.127631	-2.998900	3.793700	-11.375000	23.814897	0.000527	20.857797
386.119890	-3.017900	3.792500	-11.444000	23.821370	0.000528	20.835365
387.122941	-3.019400	3.791500	-11.447000	23.795680	0.000528	20.817667
388.123487	-3.013600	3.791500	-11.425000	23.791284	0.000527	20.840286
389.123175	-3.014700	3.791600	-11.429000	23.823752	0.000529	20.855296
390.126302	-2.995200	3.792400	-11.357000	23.807779	0.000528	20.836437
391.125914	-3.002900	3.792700	-11.389000	23.833094	0.000528	20.843802
392.125971	-2.992700	3.791700	-11.346000	23.870753	0.000529	20.832250
393.125894	-3.028400	3.790900	-11.480000	23.877838	0.000530	20.834614
394.125275	-3.004300	3.791600	-11.390000	23.872791	0.000529	20.846148
395.122351	-3.020200	3.790100	-11.446000	23.871838	0.000528	20.824330
396.130845	-3.002700	3.790200	-11.380000	23.844370	0.000529	20.833297
397.124677	-3.005900	3.789800	-11.390000	23.846090	0.000528	20.822220
398.127734	-2.990400	3.790700	-11.334000	23.834716	0.000529	20.844005
399.125364	-3.009100	3.789200	-11.401000	23.826148	0.000530	20.828777
400.127311	-3.009800	3.789100	-11.404000	23.814431	0.000528	20.845477
401.134697	-2.976100	3.790700	-11.281000	23.820554	0.000529	20.808469
402.129002	-2.988500	3.789500	-11.324000	23.824541	0.000528	20.824794
403.129629	-2.990700	3.789300	-11.332000	23.836485	0.000531	20.830607
404.128040	-3.003700	3.788300	-11.378000	23.850573	0.000529	20.824345
405.127022	-3.011900	3.788800	-11.411000	23.850997	0.000528	20.834252
406.133152	-2.997000	3.789400	-11.356000	23.832457	0.000528	20.831309
407.132446	-2.994500	3.788200	-11.343000	23.856973	0.000530	20.813692
408.130959	-3.006600	3.787700	-11.387000	23.846545	0.000530	20.809400
409.130559	-2.989000	3.787800	-11.320000	23.849880	0.000529	20.833132
410.136850	-2.969100	3.787100	-11.242000	23.874347	0.000533	20.836328
411.128795	-3.009500	3.786900	-11.396000	23.906477	0.000532	20.834407
412.133056	-2.999300	3.787100	-11.358000	23.898690	0.000532	20.816643
413.127313	-2.991800	3.786600	-11.328000	23.933012	0.000532	20.806963
414.127008	-2.999800	3.787300	-11.360000	23.931366	0.000533	20.791562
415.131527	-3.012600	3.784500	-11.400000	23.917734	0.000534	20.822937
416.130352	-2.989300	3.786200	-11.317000	23.919023	0.000536	20.800522
417.133921	-2.983100	3.786100	-11.294000	23.953890	0.000534	20.804192
418.133172	-3.007300	3.785200	-11.383000	23.927387	0.000534	20.808435
419.135416	-3.012400	3.785500	-11.403000	23.934683	0.000534	20.819070
420.133095	-3.012000	3.783300	-11.395000	23.981657	0.000531	20.817812
421.129688	-3.017200	3.783900	-11.415000	24.019815	0.000533	20.811508
422.135423	-2.991600	3.785200	-11.323000	24.001579	0.000533	20.823565
423.136828	-2.989900	3.783300	-11.310000	23.986613	0.000533	20.808558
424.131658	-2.984600	3.783800	-11.293000	24.006030	0.000532	20.792942
425.130532	-2.995900	3.783400	-11.333000	24.015094	0.000532	20.812938
426.134353	-2.990500	3.784300	-11.316000	23.985871	0.000534	20.801175
427.132754	-3.005300	3.782400	-11.366000	23.942150	0.000534	20.800954
428.136275	-3.018200	3.783300	-11.418000	23.971017	0.000533	20.811410
429.133820	-2.991400	3.782900	-11.315000	23.963011	0.000535	20.790105
430.131206	-2.995300	3.782500	-11.328000	23.960101	0.000532	20.790979
431.134997	-2.999000	3.782700	-11.343000	23.996133	0.000533	20.782543
432.133976	-2.966400	3.782100	-11.219000	24.023335	0.000534	20.797020
433.136612	-2.959100	3.781300	-11.188000	24.005173	0.000534	20.792082
434.133302	-2.992500	3.781300	-11.315000	24.000339	0.000535	20.780597
435.138024	-3.000500	3.781600	-11.346000	24.001562	0.000534	20.792254
436.139176	-2.981900	3.780000	-11.270000	23.981696	0.000535	20.796514
437.138510	-2.997200	3.781400	-11.332000	24.011939	0.000537	20.778005
438.137545	-3.017500	3.779400	-11.403000	24.010170	0.000535	20.786189
439.137335	-2.999000	3.778800	-11.332000	24.014426	0.000537	20.793301
440.136852	-2.989800	3.778700	-11.296000	24.006444	0.000535	20.809953
441.133413	-3.002000	3.778900	-11.344000	24.022887	0.000537	20.787562
442.136134	-2.998100	3.778800	-11.329000	24.058298	0.000534	20.775185
443.132984	-3.013400	3.779200	-11.387000	24.045557	0.000537	20.798443
444.136386	-3.002900	3.779000	-11.347000	24.057758	0.000535	20.789817
445.140090	-2.970900	3.777700	-11.222000	24.059275	0.000535	20.777113
446.134969	-2.983300	3.778600	-11.271000	24.078064	0.000537	20.776042
447.138670	-3.006000	3.777300	-11.354000	24.070019	0.000536	20.781725
448.138929	-2.979200	3.778400	-11.255000	24.109634	0.000535	20.779255
449.135656	-2.991600	3.777800	-11.300000	24.109186	0.000537	20.773116
450.139292	-2.999200	3.776600	-11.325000	24.097749	0.000538	20.792465
451.138511	-3.015100	3.776600	-11.386000	24.056284	0.000537	20.796873
452.136557	-2.997900	3.775900	-11.319000	24.057506	0.000537	20.793357
453.138434	-2.989800	3.776900	-11.291000	24.064500	0.000536	20.777612
454.141962	-3.001700	3.776800	-11.336000	24.076768	0.000537	20.784225
455.135865	-3.008300	3.775100	-11.355000	24.073630	0.000538	20.776811
456.133017	-3.008400	3.775500	-11.357000	24.058501	0.000536	20.777285
457.138204	-3.013800	3.774200	-11.374000	24.075798	0.000537	20.781356
458.139325	-3.009200	3.774000	-11.356000	24.075839	0.000537	20.810795
459.137768	-2.989900	3.775900	-11.288000	24.122896	0.000538	20.776909
460.141609	-2.985600	3.774400	-11.268000	24.151839	0.000539	20.785550
461.141240	-3.011100	3.774300	-11.365000	24.143077	0.000536	20.775339
462.141019	-2.993900	3.773000	-11.295000	24.153029	0.000537	20.776786
463.138264	-3.009000	3.774100	-11.355000	24.156037	0.000539	20.781226
464.144158	-2.994200	3.773700	-11.298000	24.167163	0.000537	20.778160
465.138560	-3.007300	3.772900	-11.345000	24.156069	0.000537	20.768455
466.147358	-3.010400	3.772200	-11.355000	24.155263	0.000537	20.761009
467.137640	-3.008700	3.773800	-11.354000	24.147405	0.000539	20.786793
468.141112	-3.006500	3.773300	-11.344000	24.136802	0.000540	20.779477
469.141685	-3.020700	3.771600	-11.392000	24.151979	0.000539	20.755343
470.139172	-3.024700	3.771100	-11.406000	24.172429	0.000540	20.759734
471.144061	-2.987200	3.772000	-11.267000	24.129206	0.000539	20.778496
472.140526	-3.004700	3.771600	-11.331000	24.153838	0.000538	20.759105
473.143217	-3.000000	3.771800	-11.315000	24.165852	0.000538	20.793915
474.141785	-3.005000	3.770300	-11.329000	24.159927	0.000538	20.771377
475.137936	-3.000400	3.771100	-11.314000	24.182717	0.000538	20.762466
476.143535	-3.012500	3.770400	-11.357000	24.185480	0.000539	20.772350
477.147805	-3.007200	3.768600	-11.332000	24.230854	0.000539	20.758592
478.143984	-2.995300	3.769100	-11.288000	24.258369	0.000539	20.764380
479.147156	-2.981700	3.769300	-11.238000	24.204928	0.000538	20.770045
480.148683	-3.002100	3.769100	-11.315000	24.204854	0.000538	20.759066
481.146473	-3.018600	3.769000	-11.375000	24.177656	0.000536	20.761184
482.147217	-2.989500	3.769700	-11.269000	24.176060	0.000538	20.785661
483.141460	-3.009700	3.768200	-11.340000	24.174218	0.000540	20.763424
484.145558	-3.013300	3.769100	-11.356000	24.152072	0.000542	20.755437
485.142615	-3.036100	3.767700	-11.439000	24.177257	0.000540	20.766947
486.144073	-2.999400	3.766200	-11.295000	24.180331	0.000540	20.758651
487.146328	-3.001400	3.767700	-11.308000	24.212330	0.000540	20.769883
488.145146	-2.995800	3.767100	-11.285000	24.233283	0.000540	20.749649
489.145368	-2.990000	3.766600	-11.261000	24.215663	0.000541	20.758054
490.146405	-3.008800	3.765200	-11.328000	24.211850	0.000541	20.770824
491.145203	-3.018900	3.765900	-11.368000	24.237303	0.000540	20.767906
492.145504	-3.012600	3.767000	-11.347000	24.249495	0.000540	20.765911
493.150288	-3.015800	3.764500	-11.352000	24.244043	0.000539	20.768977
494.146413	-2.981200	3.766700	-11.228000	24.256155	0.000542	20.765479
495.148399	-2.987600	3.765600	-11.250000	24.284517	0.000541	20.733235
496.148887	-3.014500	3.765000	-11.349000	24.283491	0.000539	20.755440
497.150442	-2.991900	3.765800	-11.266000	24.324589	0.000540	20.754467
498.148226	-3.020600	3.764100	-11.368000	24.299261	0.000540	20.754190
499.151293	-3.000500	3.765000	-11.297000	24.287216	0.000537	20.745900
500.151253	-3.010500	3.764400	-11.332000	24.313759	0.000541	20.768260
501.150513	-2.993900	3.762700	-11.264000	24.301634	0.000540	20.746139
502.150329	-3.013000	3.763000	-11.336000	24.332334	0.000538	20.751804
503.154287	-2.990100	3.762900	-11.250000	24.307086	0.000541	20.768678
504.157997	-2.993800	3.763900	-11.268000	24.312555	0.000543	20.731963
505.150592	-2.985100	3.763500	-11.233000	24.283346	0.000540	20.747235
506.154455	-3.004000	3.763200	-11.303000	24.336409	0.000542	20.746409
507.155282	-3.001300	3.762000	-11.289000	24.323598	0.000540	20.760585
508.157665	-2.998600	3.761900	-11.280000	24.332358	0.000539	20.754674
509.163304	-2.990900	3.762100	-11.251000	24.346034	0.000541	20.743262
510.156734	-3.003200	3.760300	-11.292000	24.340785	0.000541	20.738945
511.158777	-3.004400	3.761400	-11.300000	24.341552	0.000541	20.746827
512.158397	-3.000300	3.761900	-11.286000	24.375321	0.000540	20.760789
513.161044	-3.021200	3.759400	-11.357000	24.393691	0.000541	20.765467
514.159025	-3.005100	3.760600	-11.301000	24.418317	0.000541	20.753662
515.152946	-3.035900	3.760300	-11.415000	24.410576	0.000538	20.758699
516.156313	-3.001500	3.759300	-11.282000	24.400609	0.000540	20.750122
517.158018	-2.989800	3.759500	-11.239000	24.417168	0.000541	20.736862
518.156767	-2.990500	3.758600	-11.238000	24.410681	0.000542	20.739363
519.157994	-2.991700	3.757700	-11.241000	24.391817	0.000542	20.753156
520.160495	-2.986000	3.759000	-11.223000	24.370100	0.000541	20.758396
521.160834	-2.988700	3.759000	-11.233000	24.371812	0.000540	20.774813
522.158528	-3.007100	3.758900	-11.302000	24.397073	0.000539	20.740410
523.158524	-2.992300	3.759000	-11.248000	24.410593	0.000541	20.751129
524.157825	-3.019900	3.757800	-11.347000	24.417739	0.000540	20.762566
525.161366	-3.008400	3.757200	-11.302000	24.431372	0.000541	20.748741
526.160931	-2.987100	3.756200	-11.220000	24.402608	0.000541	20.762559
527.157776	-3.001400	3.757600	-11.277000	24.418261	0.000542	20.746967
528.155660	-2.993300	3.756500	-11.244000	24.397311	0.000541	20.745390
529.160218	-3.013500	3.756800	-11.320000	24.377663	0.000539	20.743697
530.161545	-3.026900	3.755300	-11.366000	24.347731	0.000541	20.742120
531.160053	-3.000400	3.755400	-11.266000	24.366410	0.000542	20.748530
532.163508	-3.003100	3.754400	-11.274000	24.392829	0.000539	20.742317
533.160985	-2.986300	3.755800	-11.215000	24.450882	0.000540	20.746977
534.159805	-2.998900	3.754300	-11.258000	24.424096	0.000542	20.747606
535.160576	-2.985900	3.754900	-11.211000	24.472384	0.000543	20.758119
536.160313	-3.001000	3.754300	-11.265000	24.470266	0.000544	20.728966
537.162497	-3.013100	3.753900	-11.311000	24.492496	0.000542	20.747950
538.163481	-3.016600	3.753900	-11.323000	24.494061	0.000541	20.721070
539.160170	-3.012000	3.753400	-11.305000	24.518660	0.000541	20.740536
540.158826	-3.013400	3.753100	-11.309000	24.495055	0.000541	20.732025
541.165702	-2.964900	3.754600	-11.132000	24.464899	0.000541	20.741600
542.162346	-2.971100	3.753500	-11.151000	24.468834	0.000540	20.737487
543.158083	-2.977000	3.753000	-11.172000	24.488375	0.000542	20.742393
544.162659	-3.004800	3.752500	-11.274000	24.503067	0.000543	20.724417
545.159165	-3.008000	3.751600	-11.284000	24.476878	0.000540	20.744135
546.163058	-3.012400	3.752600	-11.304000	24.462179	0.000541	20.728438
547.166035	-2.996800	3.752100	-11.243000	24.470034	0.000542	20.732053
548.161492	-2.990100	3.751400	-11.216000	24.445385	0.000541	20.747153
549.162826	-2.998500	3.751500	-11.248000	24.462791	0.000540	20.731898
550.164678	-3.023900	3.749200	-11.335000	24.476619	0.000540	20.736288
551.164020	-3.017200	3.750700	-11.315000	24.512960	0.000540	20.725333
552.164387	-3.001700	3.749400	-11.254000	24.554873	0.000543	20.718073
553.163134	-3.008800	3.749700	-11.281000	24.486593	0.000542	20.740131
554.163431	-3.001000	3.750100	-11.252000	24.490237	0.000540	20.730984
555.163960	-2.999000	3.750300	-11.247000	24.482983	0.000541	20.736510
556.163279	-2.972300	3.748700	-11.142000	24.516181	0.000541	20.748954
557.167182	-3.014700	3.748400	-11.300000	24.519667	0.000541	20.739176
558.166758	-3.005900	3.748500	-11.267000	24.516905	0.000541	20.739249
559.168662	-2.968600	3.749900	-11.131000	24.571374	0.000542	20.725621
560.169074	-2.981900	3.748100	-11.176000	24.588761	0.000541	20.738325
561.168859	-3.006100	3.748400	-11.267000	24.599255	0.000543	20.727518
562.170212	-2.970900	3.747800	-11.133000	24.563960	0.000541	20.725768
563.168342	-3.003200	3.748000	-11.255000	24.561426	0.000542	20.738873
564.170018	-3.013500	3.748100	-11.294000	24.566729	0.000539	20.727599
565.171933	-3.004000	3.746700	-11.254000	24.549489	0.000541	20.721680
566.174609	-3.008400	3.745800	-11.267000	24.582943	0.000539	20.723953
567.171148	-3.005900	3.745700	-11.258000	24.521964	0.000541	20.731522
568.176686	-3.018700	3.746300	-11.308000	24.554498	0.000541	20.713904
569.170449	-2.996800	3.745600	-11.224000	24.566589	0.000539	20.720346
570.167780	-2.978500	3.746600	-11.159000	24.563159	0.000540	20.732551
571.171953	-3.002600	3.744000	-11.241000	24.576439	0.000541	20.751568
572.170012	-3.003800	3.745700	-11.250000	24.596980	0.000541	20.722390
573.172889	-2.995800	3.744700	-11.218000	24.560705	0.000540	20.737202
574.176841	-2.994300	3.743600	-11.209000	24.573881	0.000539	20.724343
575.172183	-2.981900	3.744100	-11.164000	24.535382	0.000539	20.731708
576.177608	-3.018300	3.744000	-11.300000	24.546391	0.000539	20.721891
577.179164	-3.004900	3.745200	-11.253000	24.534461	0.000540	20.722249
578.175765	-2.996300	3.744000	-11.217000	24.547179	0.000541	20.722682
579.179988	-2.999800	3.743300	-11.227000	24.530607	0.000540	20.726918
580.175663	-3.004700	3.743000	-11.244000	24.522248	0.000539	20.707149
581.171561	-2.980800	3.744100	-11.160000	24.552678	0.000540	20.716819
582.178626	-3.034300	3.741000	-11.350000	24.552972	0.000540	20.710001
583.175101	-2.977600	3.743500	-11.145000	24.562749	0.000539	20.717441
584.178783	-3.017100	3.742300	-11.290000	24.607366	0.000539	20.716689
585.172674	-3.001300	3.742300	-11.231000	24.581750	0.000539	20.708056
586.179695	-3.007400	3.740900	-11.250000	24.592097	0.000539	20.698997
587.176980	-2.997000	3.740400	-11.209000	24.607194	0.000538	20.715095
588.178864	-2.968600	3.743100	-11.111000	24.626992	0.000540	20.722632
589.178921	-3.005400	3.741800	-11.244000	24.648215	0.000538	20.709787
590.178715	-3.001000	3.741400	-11.227000	24.597645	0.000538	20.708832
591.181584	-3.020900	3.739500	-11.296000	24.656363	0.000537	20.725077
592.177616	-3.009400	3.739800	-11.253000	24.652509	0.000539	20.700820
593.181500	-3.022000	3.738800	-11.298000	24.685789	0.000538	20.710982
594.179131	-3.016500	3.739400	-11.279000	24.658358	0.000539	20.712854
595.182332	-2.995200	3.739900	-11.201000	24.637119	0.000540	20.727578
596.183183	-2.992400	3.739000	-11.188000	24.652835	0.000540	20.696879
597.178484	-2.986600	3.739100	-11.166000	24.654333	0.000539	20.710237
598.179072	-2.999600	3.737700	-11.210000	24.648712	0.000538	20.701751
599.182174	-3.007200	3.738000	-11.240000	24.617703	0.000539	20.722794
600.182288	-3.012700	3.737700	-11.260000	24.656101	0.000537	20.703001
601.181455	-2.999500	3.739000	-11.213000	24.630363	0.000538	20.727438
602.182775	-2.979300	3.739000	-11.139000	24.663930	0.000538	20.717972
603.179333	-2.993300	3.737600	-11.187000	24.653819	0.000538	20.717308
604.184232	-2.995100	3.737400	-11.192000	24.661575	0.000538	20.704227
605.176877	-2.986200	3.737800	-11.161000	24.680556	0.000538	20.706205
606.182895	-2.997200	3.737400	-11.201000	24.698358	0.000537	20.707947
607.179082	-2.994700	3.736900	-11.190000	24.725347	0.000539	20.695674
608.181617	-3.006200	3.736100	-11.230000	24.719554	0.000536	20.713097
609.187533	-3.006500	3.735900	-11.231000	24.747855	0.000539	20.693131
610.179921	-3.007300	3.736700	-11.236000	24.701722	0.000538	20.710374
611.182612	-2.979900	3.737200	-11.136000	24.681428	0.000537	20.710399
612.180065	-3.018500	3.735400	-11.275000	24.677501	0.000537	20.713097
613.180729	-2.987700	3.735700	-11.161000	24.666062	0.000536	20.686918
614.179131	-2.996900	3.734400	-11.191000	24.680686	0.000538	20.721983
615.181793	-3.001200	3.734100	-11.206000	24.681533	0.000536	20.709556
616.180579	-2.983600	3.734000	-11.140000	24.633661	0.000538	20.718892
617.182009	-3.020600	3.733900	-11.277000	24.666493	0.000536	20.711534
618.180225	-2.992900	3.733300	-11.173000	24.676115	0.000538	20.695583
619.179883	-2.998300	3.733700	-11.194000	24.713793	0.000536	20.703522
620.184398	-3.026600	3.733400	-11.298000	24.712782	0.000539	20.699662
621.181248	-3.012600	3.732100	-11.243000	24.747813	0.000537	20.711109
622.184645	-3.027500	3.732000	-11.298000	24.765824	0.000539	20.712588
623.181102	-3.004400	3.731400	-11.209000	24.754428	0.000536	20.716799
624.186995	-3.007800	3.731000	-11.221000	24.754036	0.000536	20.702180
625.184062	-2.998700	3.733000	-11.193000	24.779420	0.000538	20.730501
626.185192	-3.005600	3.730600	-11.212000	24.755835	0.000536	20.720582
627.182492	-2.989500	3.730600	-11.152000	24.762296	0.000534	20.727066
628.188297	-3.001700	3.731200	-11.199000	24.771501	0.000536	20.710698
629.182114	-3.018600	3.730000	-11.259000	24.775785	0.000535	20.713575
630.185331	-3.017100	3.730000	-11.253000	24.788737	0.000535	20.707607
631.184721	-2.983400	3.731000	-11.129000	24.783792	0.000536	20.720663
632.185032	-3.014200	3.730300	-11.243000	24.769324	0.000534	20.714678
633.186893	-3.014600	3.728800	-11.240000	24.770367	0.000537	20.721889
634.184620	-3.007000	3.729800	-11.214000	24.796157	0.000536	20.733073
635.182249	-3.014100	3.729000	-11.240000	24.819959	0.000533	20.732778
636.185516	-3.001700	3.728600	-11.192000	24.837807	0.000535	20.714179
637.186886	-3.020400	3.728900	-11.262000	24.798233	0.000536	20.709550
638.183782	-3.018100	3.728200	-11.250000	24.777265	0.000534	20.703681
639.186999	-3.004800	3.728600	-11.203000	24.738571	0.000534	20.717007
640.187873	-3.023900	3.728800	-11.274000	24.722457	0.000535	20.721700
641.190089	-2.988400	3.728100	-11.140000	24.773045	0.000536	20.698496
642.190097	-2.988500	3.727600	-11.139000	24.796864	0.000538	20.718135
643.189379	-2.986300	3.727900	-11.132000	24.785102	0.000535	20.710597
644.190895	-3.009600	3.726400	-11.214000	24.772695	0.000536	20.707155
645.186250	-2.991300	3.726500	-11.147000	24.786152	0.000534	20.717815
646.191888	-3.005000	3.726600	-11.197000	24.799706	0.000534	20.729048
647.190506	-3.007500	3.727200	-11.209000	24.775064	0.000534	20.701472
648.186277	-2.996200	3.726500	-11.165000	24.769020	0.000533	20.708209
649.192883	-3.006900	3.726600	-11.204000	24.762503	0.000532	20.724903
650.190816	-3.003000	3.724900	-11.185000	24.723808	0.000532	20.715469
651.191461	-2.977500	3.725900	-11.092000	24.751815	0.000534	20.725083
652.191150	-3.001700	3.726000	-11.184000	24.787307	0.000533	20.726562
653.190581	-3.002700	3.725300	-11.185000	24.797229	0.000533	20.732726
654.188423	-2.989700	3.724600	-11.134000	24.838259	0.000533	20.733126
655.219967	-3.022800	3.723500	-11.255000	24.839123	0.000533	20.724510
656.194458	-3.011900	3.724400	-11.216000	24.822815	0.000533	20.737067
657.188604	-2.997100	3.724100	-11.161000	24.806409	0.000532	20.706375
658.190140	-2.991700	3.724900	-11.142000	24.812600	0.000532	20.725866
659.190888	-3.022300	3.723800	-11.253000	24.846070	0.000532	20.728638
660.192278	-3.016200	3.722500	-11.227000	24.866091	0.000532	20.721230
661.197675	-2.984500	3.723700	-11.113000	24.868796	0.000534	20.725842
662.194217	-2.987100	3.722800	-11.119000	24.864055	0.000533	20.717289
663.194074	-3.015300	3.722300	-11.223000	24.893965	0.000531	20.712695
664.197556	-3.010300	3.722800	-11.205000	24.875393	0.000530	20.729618
665.194693	-3.016500	3.720900	-11.224000	24.869031	0.000531	20.714697
666.193403	-2.993700	3.723000	-11.144000	24.837598	0.000531	20.746688
667.196141	-3.005100	3.722000	-11.184000	24.820026	0.000531	20.735217
668.193471	-3.002600	3.721700	-11.174000	24.856699	0.000532	20.725080
669.193698	-2.997700	3.721400	-11.155000	24.830070	0.000531	20.731546
670.194827	-3.015500	3.720600	-11.218000	24.826021	0.000530	20.724637
671.192952	-2.985400	3.721900	-11.111000	24.812166	0.000532	20.728276
672.194728	-3.007700	3.720000	-11.188000	24.837906	0.000530	20.720918
673.197027	-2.997500	3.720600	-11.151000	24.876223	0.000531	20.718596
674.197622	-3.010200	3.720000	-11.197000	24.864216	0.000529	20.731676
675.193380	-3.022300	3.718500	-11.237000	24.877567	0.000531	20.733696
676.193388	-3.000500	3.719700	-11.160000	24.867075	0.000530	20.730753
677.197529	-2.992900	3.719200	-11.130000	24.864990	0.000531	20.722969
678.196103	-2.988700	3.719500	-11.115000	24.902857	0.000530	20.730156
679.197737	-3.021800	3.717700	-11.233000	24.897034	0.000532	20.736639
680.199054	-3.007100	3.717100	-11.177000	24.876328	0.000531	20.715382
681.195862	-2.978800	3.718700	-11.076000	24.850466	0.000533	20.743482
682.195660	-2.989200	3.718900	-11.116000	24.895348	0.000530	20.731627
683.195506	-3.010800	3.716400	-11.188000	24.889605	0.000530	20.744831
684.195799	-3.001300	3.718300	-11.159000	24.901465	0.000529	20.732551
685.196813	-3.006200	3.718700	-11.179000	24.930754	0.000531	20.747725
686.195983	-3.003100	3.716700	-11.160000	24.959791	0.000529	20.746998
687.199968	-3.008900	3.717200	-11.183000	24.953577	0.000529	20.739811
688.199274	-2.987300	3.717300	-11.104000	24.900544	0.000529	20.713608
689.199681	-2.997200	3.717100	-11.139000	24.838158	0.000528	20.749147
690.202929	-3.001800	3.715600	-11.153000	24.836342	0.000529	20.743531
691.205483	-2.982300	3.716100	-11.082000	24.874837	0.000527	20.763200
692.198518	-3.005800	3.716000	-11.169000	24.900023	0.000529	20.710240
693.202547	-2.993100	3.716400	-11.123000	24.907109	0.000527	20.725888
694.199970	-3.016400	3.714500	-11.203000	24.934778	0.000528	20.742280
695.197495	-3.001700	3.716000	-11.153000	24.892195	0.000529	20.751697
696.199358	-2.987200	3.715200	-11.097000	24.867457	0.000527	20.743464
697.197509	-2.995200	3.715400	-11.127000	24.807921	0.000525	20.744880
698.202058	-2.988600	3.714600	-11.101000	24.851842	0.000528	20.753397
699.201465	-2.982100	3.714700	-11.076000	24.852958	0.000527	20.736973
700.202096	-3.005900	3.714200	-11.164000	24.840724	0.000526	20.749825
701.199206	-3.002800	3.713000	-11.148000	24.828773	0.000527	20.756323
702.198701	-2.995200	3.713100	-11.121000	24.863881	0.000526	20.742720
703.200466	-3.000400	3.712800	-11.139000	24.888423	0.000527	20.768775
704.203996	-3.022700	3.711800	-11.218000	24.876619	0.000525	20.738909
705.200628	-2.993600	3.712500	-11.112000	24.900583	0.000526	20.758694
706.200388	-3.000300	3.713000	-11.139000	24.917517	0.000525	20.747715
707.211549	-2.997800	3.712700	-11.129000	24.921565	0.000527	20.756994
708.199767	-3.003300	3.712100	-11.147000	24.914014	0.000526	20.766011
709.207068	-3.007700	3.711100	-11.161000	24.925425	0.000525	20.764662
710.208885	-3.018500	3.710100	-11.198000	24.924806	0.000524	20.770204
711.199073	-2.989200	3.712000	-11.095000	24.952954	0.000525	20.742032
712.202863	-2.993200	3.710700	-11.106000	24.931427	0.000525	20.755038
713.199758	-2.998600	3.711500	-11.127000	24.967036	0.000525	20.757114
714.205993	-2.973700	3.711400	-11.035000	24.989458	0.000525	20.753068
715.206006	-3.015900	3.709600	-11.187000	24.995876	0.000526	20.757139
716.203231	-2.981700	3.709900	-11.061000	25.003084	0.000522	20.751572
717.200051	-2.967800	3.711200	-11.014000	24.967011	0.000524	20.739071
718.202200	-2.995200	3.710400	-11.112000	24.988748	0.000521	20.764210
719.200193	-2.989100	3.709700	-11.088000	24.984920	0.000523	20.740926
720.207520	-3.017500	3.709700	-11.193000	25.007350	0.000523	20.772450
721.203210	-3.016000	3.708800	-11.185000	25.025895	0.000523	20.763089
722.200578	-2.995400	3.707700	-11.105000	25.035888	0.000525	20.759844
723.203457	-3.023900	3.707300	-11.209000	25.013092	0.000523	20.736961
724.208436	-2.995700	3.708900	-11.110000	25.024957	0.000521	20.762622
725.205416	-3.021100	3.707500	-11.199000	25.061801	0.000524	20.761674
726.203469	-3.007400	3.708900	-11.153000	25.054562	0.000521	20.758200
727.203151	-3.007400	3.708200	-11.151000	25.021756	0.000521	20.762254
728.202772	-3.011900	3.707700	-11.166000	25.055685	0.000522	20.769285
729.205648	-2.991200	3.709200	-11.094000	25.033589	0.000522	20.776503
730.206413	-2.993000	3.706800	-11.093000	25.050545	0.000522	20.752272
731.210331	-2.995600	3.706500	-11.102000	25.032123	0.000520	20.769342
732.205464	-3.001500	3.707000	-11.125000	25.043509	0.000520	20.788357
733.202356	-2.968100	3.707100	-11.002000	25.050846	0.000521	20.782920
734.209887	-2.992600	3.706800	-11.091000	25.040430	0.000520	20.783370
735.206024	-2.995600	3.705500	-11.100000	25.025412	0.000520	20.782046
736.209206	-2.991900	3.706600	-11.089000	24.999008	0.000520	20.766922
737.209564	-3.004800	3.704200	-11.129000	24.976358	0.000521	20.787809
738.207116	-3.003800	3.705500	-11.129000	24.959905	0.000519	20.764656
739.202511	-3.011000	3.704900	-11.154000	24.972506	0.000520	20.770666
740.205755	-2.974300	3.705400	-11.020000	25.000132	0.000520	20.786067
741.208969	-2.991600	3.705100	-11.084000	25.013432	0.000519	20.760536
742.207791	-2.997500	3.704900	-11.105000	25.040178	0.000518	20.777427
743.207716	-3.012900	3.703600	-11.158000	25.073299	0.000519	20.773690
744.204324	-2.997800	3.704300	-11.104000	25.033141	0.000516	20.765148
745.205844	-3.012000	3.702700	-11.151000	25.025111	0.000519	20.766096
746.204022	-2.996000	3.702900	-11.092000	25.032889	0.000518	20.781491
747.211438	-3.007000	3.702800	-11.133000	25.046262	0.000521	20.784009
748.209739	-3.009600	3.702700	-11.142000	25.108416	0.000518	20.790450
749.207591	-3.001200	3.701500	-11.108000	25.049373	0.000517	20.770536
750.204168	-3.010700	3.701100	-11.142000	24.999522	0.000515	20.787352
751.205962	-3.014800	3.701300	-11.157000	24.977271	0.000518	20.787777
752.206928	-3.017800	3.701700	-11.170000	24.967743	0.000516	20.775368
753.204412	-2.978600	3.702400	-11.027000	24.940319	0.000516	20.786724
754.204368	-3.007100	3.701100	-11.128000	24.953872	0.000517	20.786576
755.203682	-2.995400	3.701100	-11.086000	24.976295	0.000516	20.783478
756.203992	-2.986400	3.702500	-11.056000	24.982208	0.000516	20.780879
757.205234	-3.006300	3.700100	-11.123000	24.968712	0.000516	20.785824
758.208045	-3.010400	3.699400	-11.135000	25.010625	0.000515	20.786168
759.205404	-2.995500	3.701000	-11.085000	25.053008	0.000516	20.778926
760.210881	-3.022800	3.700000	-11.183000	25.083294	0.000517	20.794630
761.204483	-3.005900	3.698800	-11.117000	25.021034	0.000515	20.799936
762.207001	-2.999800	3.699600	-11.097000	25.039229	0.000515	20.783587
763.209534	-2.979900	3.700300	-11.025000	25.075502	0.000514	20.801032
764.209342	-3.011400	3.699800	-11.141000	25.066576	0.000515	20.808668
765.207341	-3.013900	3.699000	-11.147000	25.073116	0.000513	20.794369
766.208709	-2.996900	3.698000	-11.082000	25.111099	0.000514	20.807368
767.206481	-3.000600	3.699200	-11.100000	25.137377	0.000513	20.806248
768.206809	-3.008600	3.697700	-11.124000	25.138168	0.000511	20.817947
769.212276	-2.994700	3.698000	-11.074000	25.144235	0.000514	20.804597
770.205849	-3.006200	3.696500	-11.111000	25.151214	0.000511	20.795956
771.209409	-2.996100	3.698100	-11.079000	25.133641	0.000514	20.796806
772.207143	-3.022600	3.697100	-11.174000	25.129383	0.000516	20.789213
773.210618	-2.993500	3.696400	-11.064000	25.137542	0.000513	20.795507
774.211326	-2.986600	3.696100	-11.038000	25.164537	0.000513	20.793684
775.214313	-3.013300	3.696200	-11.136000	25.141589	0.000511	20.791036
776.212760	-3.014100	3.693400	-11.132000	25.155538	0.000511	20.800298
777.210891	-2.977600	3.696500	-11.005000	25.137762	0.000513	20.815642
778.216419	-2.984700	3.695100	-11.028000	25.123592	0.000513	20.806159
779.210621	-2.992800	3.693800	-11.053000	25.122028	0.000511	20.787046
780.212328	-3.016000	3.694000	-11.141000	25.150441	0.000512	20.801344
781.207709	-2.982700	3.695000	-11.020000	25.183356	0.000509	20.822059
782.211467	-2.983100	3.695300	-11.022000	25.154961	0.000512	20.808253
783.229434	-2.979300	3.695000	-11.008000	25.193071	0.000509	20.804786
784.213203	-2.973900	3.696400	-10.992000	25.224014	0.000512	20.804558
785.216599	-3.013500	3.693100	-11.128000	25.206865	0.000510	20.830962
786.214960	-2.987100	3.693700	-11.033000	25.191972	0.000511	20.817433
787.215292	-2.993500	3.694300	-11.059000	25.151777	0.000510	20.817384
788.211286	-2.984800	3.694400	-11.026000	25.109643	0.000509	20.792156
789.215105	-2.995000	3.691600	-11.056000	25.118739	0.000511	20.820254
790.216535	-2.987000	3.692600	-11.029000	25.112354	0.000510	20.804361
791.215454	-2.988200	3.692600	-11.034000	25.126451	0.000508	20.814719
792.212074	-2.986700	3.691200	-11.024000	25.133504	0.000507	20.831282
793.222612	-3.010000	3.691100	-11.109000	25.113886	0.000509	20.827710
794.216062	-2.990300	3.691400	-11.037000	25.123561	0.000508	20.817033
795.216476	-3.017700	3.690800	-11.137000	25.128462	0.000508	20.812471
796.223644	-3.006600	3.691500	-11.098000	25.114586	0.000509	20.821774
797.217129	-2.992900	3.691300	-11.046000	25.115360	0.000508	20.832508
798.217315	-2.995900	3.691000	-11.055000	25.135914	0.000509	20.837495
799.215624	-3.001000	3.689900	-11.072000	25.129228	0.000509	20.825093
800.218691	-2.997700	3.690400	-11.061000	25.127780	0.000507	20.846872
801.224992	-3.020800	3.688800	-11.143000	25.110605	0.000506	20.841959
802.217158	-2.993400	3.689800	-11.044000	25.108047	0.000508	20.821848
803.213753	-3.003900	3.688700	-11.079000	25.130540	0.000505	20.835893
804.217976	-3.001400	3.688700	-11.070000	25.184335	0.000507	20.829206
805.217362	-3.004900	3.689500	-11.085000	25.182813	0.000507	20.831471
806.216919	-2.992300	3.688600	-11.037000	25.210629	0.000507	20.847543
807.218313	-2.992900	3.688500	-11.038000	25.196884	0.000506	20.838011
808.214687	-2.974100	3.690600	-10.975000	25.211028	0.000507	20.824236
809.218804	-2.997400	3.687700	-11.053000	25.188977	0.000507	20.843349
810.219527	-3.004300	3.687600	-11.078000	25.193969	0.000504	20.833663
811.218034	-3.016700	3.686200	-11.119000	25.166306	0.000505	20.829599
812.215016	-3.003000	3.687700	-11.073000	25.156780	0.000502	20.843742
813.214720	-3.004500	3.686500	-11.075000	25.154719	0.000505	20.853527
814.218012	-2.997600	3.686700	-11.050000	25.194662	0.000505	20.830565
815.217632	-3.001400	3.685800	-11.062000	25.194711	0.000505	20.851950
816.217664	-2.991000	3.687700	-11.029000	25.190264	0.000505	20.832314
817.218961	-3.017100	3.684500	-11.116000	25.233487	0.000504	20.847258
818.218052	-2.991300	3.685100	-11.022000	25.226941	0.000503	20.834049
819.218658	-3.012900	3.685200	-11.102000	25.214995	0.000502	20.840072
820.222271	-2.986000	3.686400	-11.006000	25.202488	0.000502	20.836051
821.221823	-3.012400	3.685200	-11.101000	25.198237	0.000502	20.837473
822.221985	-2.997000	3.685200	-11.043000	25.158711	0.000501	20.853267
823.222090	-2.996300	3.684600	-11.039000	25.175990	0.000504	20.832682
824.222077	-3.000200	3.684200	-11.052000	25.145217	0.000500	20.840195
825.218801	-3.014700	3.683000	-11.102000	25.146284	0.000503	20.841740
826.222697	-2.984500	3.684900	-10.997000	25.153841	0.000499	20.846482
827.218476	-2.994500	3.684100	-11.031000	25.180013	0.000501	20.852842
828.229377	-3.007300	3.683400	-11.077000	25.164053	0.000500	20.848673
829.222281	-3.008400	3.683900	-11.081000	25.190355	0.000499	20.847103
830.222098	-3.002700	3.683200	-11.059000	25.201406	0.000500	20.867680
831.225274	-3.006800	3.683800	-11.074000	25.231209	0.000501	20.861091
832.225183	-3.009300	3.682600	-11.080000	25.212545	0.000500	20.851363
833.228439	-2.992600	3.681400	-11.016000	25.197359	0.000499	20.850815
834.222334	-3.007700	3.682300	-11.074000	25.205583	0.000501	20.862391
835.225810	-3.005400	3.681400	-11.063000	25.213059	0.000498	20.869422
836.225694	-2.995400	3.682400	-11.030000	25.224100	0.000498	20.847791
837.222878	-3.023900	3.680500	-11.128000	25.248390	0.000498	20.853210
838.226444	-2.976200	3.681500	-10.956000	25.246696	0.000501	20.851036
839.224162	-3.013600	3.679600	-11.088000	25.242845	0.000497	20.857126
840.220776	-3.015800	3.679300	-11.095000	25.247315	0.000499	20.844546
841.223825	-2.987300	3.680500	-10.994000	25.245150	0.000499	20.871768
842.227028	-2.988500	3.679500	-10.995000	25.205185	0.000497	20.854404
843.228305	-2.976000	3.680600	-10.953000	25.213507	0.000496	20.865130
844.226054	-2.986400	3.680100	-10.990000	25.212521	0.000498	20.867933
845.223250	-2.991500	3.679200	-11.005000	25.205975	0.000497	20.846664
846.227695	-3.000600	3.680000	-11.042000	25.229743	0.000496	20.852508
847.226867	-3.003200	3.679700	-11.050000	25.250230	0.000498	20.853635
848.230505	-3.003500	3.678200	-11.046000	25.288679	0.000496	20.845772
849.230586	-3.007200	3.678100	-11.060000	25.284477	0.000495	20.859097
850.232281	-3.013000	3.678200	-11.082000	25.277271	0.000496	20.865612
851.231401	-2.991100	3.677400	-10.998000	25.310126	0.000495	20.865408
852.229415	-3.006500	3.677000	-11.053000	25.266353	0.000494	20.848961
853.232072	-2.997500	3.677800	-11.023000	25.287759	0.000495	20.844848
854.229741	-3.001300	3.676800	-11.035000	25.311273	0.000491	20.829103
855.228993	-3.019200	3.676600	-11.099000	25.320116	0.000497	20.836085
856.230998	-3.023900	3.677300	-11.119000	25.265783	0.000494	20.847440
857.230289	-2.988600	3.677000	-10.988000	25.264390	0.000492	20.856947
858.229856	-3.021100	3.676800	-11.107000	25.261354	0.000493	20.827821
859.228980	-3.033100	3.674600	-11.144000	25.277834	0.000493	20.836306
860.234828	-2.996800	3.674000	-11.009000	25.273762	0.000491	20.844546
861.229053	-3.000100	3.676800	-11.030000	25.236876	0.000490	20.839281
862.231317	-2.991000	3.676100	-10.994000	25.238139	0.000490	20.841023
863.232386	-2.985100	3.675100	-10.970000	25.255963	0.000492	20.833314
864.231720	-2.998400	3.674600	-11.017000	25.302944	0.000491	20.820267
865.229703	-2.985200	3.675900	-10.972000	25.335528	0.000493	20.826905
866.237681	-2.995300	3.673600	-11.002000	25.341513	0.000491	20.811577
867.230882	-2.988900	3.673900	-10.980000	25.341790	0.000492	20.825131
868.233988	-2.988300	3.674700	-10.981000	25.368234	0.000492	20.843622
869.234621	-2.981900	3.673700	-10.954000	25.359059	0.000490	20.821134
870.230122	-2.994000	3.673100	-10.996000	25.365181	0.000489	20.829651
871.236897	-2.971700	3.673400	-10.915000	25.373436	0.000490	20.822293
872.233305	-2.991200	3.673800	-10.989000	25.342245	0.000488	20.816105
873.236591	-3.018600	3.672300	-11.084000	25.322852	0.000488	20.833142
874.235709	-3.001300	3.672600	-11.022000	25.326311	0.000489	20.812909
875.232385	-2.999200	3.672600	-11.015000	25.324244	0.000487	20.815574
876.235285	-2.995100	3.670500	-10.993000	25.333689	0.000487	20.818419
877.236174	-2.991100	3.672700	-10.985000	25.321760	0.000488	20.815451
878.238263	-3.005400	3.670900	-11.032000	25.313659	0.000486	20.822016
879.236483	-2.993600	3.670600	-10.987000	25.311892	0.000488	20.817871
880.240378	-2.977900	3.669900	-10.928000	25.367615	0.000486	20.816449
881.235938	-2.996400	3.669800	-10.995000	25.367867	0.000487	20.832823
882.237982	-3.007100	3.670400	-11.036000	25.343630	0.000486	20.824608
883.237567	-2.969800	3.670500	-10.900000	25.364863	0.000487	20.826487
884.238052	-3.005900	3.669800	-11.030000	25.324919	0.000484	20.829054
885.240722	-3.014700	3.668300	-11.058000	25.307551	0.000485	20.804030
886.237064	-2.991200	3.668300	-10.972000	25.348929	0.000486	20.793893
887.238472	-2.993300	3.668700	-10.981000	25.360263	0.000484	20.825661
888.238033	-2.995200	3.668500	-10.986000	25.345477	0.000486	20.815083
889.240424	-3.007500	3.667300	-11.028000	25.339908	0.000484	20.809965
890.242429	-3.002400	3.667800	-11.011000	25.375619	0.000484	20.809312
891.247178	-3.002100	3.667000	-11.008000	25.357405	0.000483	20.806197
892.238537	-3.011400	3.667000	-11.042000	25.359570	0.000485	20.801733
893.242299	-2.986500	3.667400	-10.952000	25.353953	0.000483	20.810317
894.242427	-2.998500	3.668300	-10.998000	25.334640	0.000483	20.809418
895.241813	-3.007300	3.666500	-11.025000	25.320025	0.000483	20.812287
896.240989	-3.000900	3.666800	-11.003000	25.323226	0.000481	20.823561
897.242840	-3.013900	3.667100	-11.051000	25.304466	0.000481	20.807096
898.244596	-3.002100	3.665800	-11.004000	25.318812	0.000484	20.795421
899.241317	-2.987700	3.666600	-10.954000	25.364244	0.000481	20.785563
900.241090	-2.996600	3.666600	-10.985000	25.366996	0.000478	20.805870
901.243613	-2.996800	3.666000	-10.985000	25.373118	0.000479	20.797318
902.239805	-3.008500	3.664200	-11.023000	25.364765	0.000482	20.808845
903.247786	-2.989800	3.663900	-10.954000	25.371970	0.000481	20.803278
904.243586	-2.979900	3.665200	-10.920000	25.379827	0.000477	20.803580
905.241984	-2.997500	3.665000	-10.984000	25.398960	0.000480	20.802878
906.240872	-2.992500	3.664200	-10.964000	25.400579	0.000479	20.788383
907.240361	-2.992400	3.664200	-10.963000	25.352316	0.000479	20.802035
908.243341	-2.995000	3.662600	-10.968000	25.365758	0.000477	20.818851
909.246465	-3.008600	3.662600	-11.018000	25.386836	0.000479	20.787385
910.243663	-2.986500	3.663600	-10.941000	25.430719	0.000478	20.809639
911.239364	-3.010200	3.662300	-11.023000	25.422423	0.000478	20.789928
912.240580	-3.001300	3.661700	-10.989000	25.478392	0.000476	20.788285
913.241989	-2.986700	3.662100	-10.937000	25.491158	0.000477	20.790673
914.242914	-2.993100	3.661400	-10.958000	25.435620	0.000477	20.788955
915.243963	-3.006500	3.661200	-11.007000	25.395955	0.000477	20.802706
916.245442	-3.012200	3.661800	-11.029000	25.336326	0.000474	20.790248
917.243432	-3.006000	3.661000	-11.004000	25.329771	0.000477	20.787933
918.246208	-2.983500	3.662300	-10.926000	25.362778	0.000477	20.786936
919.247154	-2.994800	3.659900	-10.960000	25.368518	0.000476	20.814036
920.249940	-2.988800	3.662000	-10.945000	25.389043	0.000475	20.797188
921.247028	-2.997800	3.660300	-10.972000	25.381317	0.000475	20.812663
922.249049	-3.003000	3.660200	-10.990000	25.389222	0.000474	20.776504
923.249211	-2.996200	3.659700	-10.965000	25.437239	0.000474	20.794375
924.249064	-3.023900	3.659600	-11.066000	25.433455	0.000474	20.805273
925.247758	-3.004200	3.659000	-10.991000	25.458015	0.000474	20.787263
926.250394	-2.985800	3.660100	-10.927000	25.435571	0.000473	20.790329
927.251459	-2.979900	3.659300	-10.903000	25.391461	0.000472	20.804831
928.254574	-2.979800	3.659000	-10.903000	25.409013	0.000472	20.802067
929.249066	-2.987600	3.658100	-10.928000	25.397183	0.000472	20.774541
930.252148	-2.992900	3.657600	-10.945000	25.376976	0.000470	20.777010
931.257331	-3.005800	3.656400	-10.988000	25.414011	0.000472	20.791913
932.253074	-3.003400	3.656400	-10.981000	25.392339	0.000471	20.763987
933.253121	-3.018700	3.656600	-11.037000	25.395889	0.000472	20.777035
934.254313	-2.985200	3.657300	-10.916000	25.388432	0.000471	20.786142
935.253884	-2.995700	3.656300	-10.953000	25.409436	0.000469	20.801069
936.256846	-3.014300	3.654800	-11.016000	25.447520	0.000471	20.785732
937.255649	-2.992400	3.655900	-10.938000	25.445721	0.000469	20.785823
938.259250	-2.989900	3.654900	-10.927000	25.404071	0.000471	20.774345
939.256186	-2.976500	3.654900	-10.877000	25.356335	0.000467	20.772406
940.256989	-2.994200	3.656500	-10.947000	25.387299	0.000468	20.773625
941.260290	-3.007900	3.654100	-10.991000	25.372090	0.000468	20.763569
942.259112	-2.981300	3.654900	-10.895000	25.344222	0.000468	20.800546
943.257366	-2.994700	3.653400	-10.940000	25.358843	0.000469	20.758803
944.260170	-3.009700	3.654600	-10.998000	25.405764	0.000467	20.789321
945.261497	-2.996100	3.652900	-10.943000	25.453259	0.000468	20.768261
946.258767	-3.020100	3.652500	-11.030000	25.477788	0.000468	20.786255
947.261960	-3.004600	3.654000	-10.978000	25.463353	0.000466	20.764173
948.259429	-3.020100	3.652000	-11.029000	25.433288	0.000468	20.775708
949.256792	-2.998700	3.653800	-10.955000	25.438597	0.000464	20.789100
950.259779	-3.005400	3.652900	-10.977000	25.447527	0.000467	20.772937
951.259621	-3.006600	3.653300	-10.982000	25.391140	0.000465	20.784120
952.260637	-3.014500	3.651900	-11.008000	25.382567	0.000466	20.767450
953.258633	-3.008700	3.651600	-10.986000	25.384504	0.000465	20.784569
954.259057	-3.019100	3.651000	-11.022000	25.405949	0.000465	20.791404
955.259048	-3.013200	3.650600	-11.000000	25.401137	0.000463	20.757648
956.262366	-3.014900	3.648900	-11.000000	25.424421	0.000463	20.788616
957.259423	-3.000900	3.651100	-10.956000	25.428468	0.000464	20.776558
958.267604	-2.992700	3.650200	-10.923000	25.409587	0.000463	20.778462
959.262138	-2.992000	3.650100	-10.920000	25.432204	0.000463	20.760869
960.263841	-3.021600	3.650000	-11.028000	25.403424	0.000463	20.771799
961.262940	-3.012900	3.648900	-10.993000	25.418420	0.000463	20.775002
962.257015	-3.002700	3.648800	-10.955000	25.438024	0.000462	20.767187
963.261161	-3.006300	3.648400	-10.967000	25.399857	0.000463	20.787657
964.260219	-2.978100	3.649700	-10.867000	25.371524	0.000464	20.770588
965.262139	-3.004400	3.647300	-10.957000	25.357473	0.000461	20.771177
966.262181	-3.005200	3.647700	-10.961000	25.385568	0.000462	20.769991
967.259604	-3.003000	3.647600	-10.952000	25.446051	0.000462	20.777619
968.261102	-3.006400	3.647400	-10.964000	25.418623	0.000462	20.767146
969.260400	-3.000600	3.647000	-10.941000	25.442110	0.000461	20.768445
970.262282	-2.995200	3.645800	-10.919000	25.408185	0.000462	20.770416
971.262608	-2.998900	3.646600	-10.935000	25.429116	0.000459	20.773889
972.264525	-2.993400	3.647500	-10.918000	25.464694	0.000459	20.771209
973.261513	-3.011700	3.646500	-10.982000	25.471987	0.000459	20.751505
974.265327	-3.005500	3.646400	-10.958000	25.474543	0.000458	20.755969
975.264448	-3.000600	3.645800	-10.939000	25.471140	0.000458	20.748759
976.263483	-2.988400	3.645300	-10.893000	25.421113	0.000459	20.753999
977.268166	-3.008100	3.644400	-10.960000	25.399588	0.000458	20.763205
978.261252	-2.968500	3.645500	-10.819000	25.392414	0.000458	20.776865
979.270212	-2.995600	3.645800	-10.921000	25.386999	0.000458	20.764315
980.265628	-3.007800	3.645000	-10.963000	25.402152	0.000458	20.770521
981.265802	-3.021000	3.642900	-11.004000	25.397381	0.000457	20.765730
982.261713	-2.974800	3.645200	-10.843000	25.403691	0.000455	20.764480
983.265367	-3.027000	3.644200	-11.030000	25.456576	0.000455	20.774911
984.270496	-2.994200	3.645100	-10.912000	25.473379	0.000455	20.742946
985.269396	-2.988300	3.641400	-10.880000	25.451235	0.000456	20.756272
986.269516	-2.998600	3.642700	-10.921000	25.445870	0.000455	20.757048
987.270176	-2.991700	3.642500	-10.896000	25.411278	0.000454	20.763089
988.270386	-2.982100	3.642300	-10.861000	25.434041	0.000453	20.739005
989.267524	-2.995000	3.641400	-10.906000	25.460312	0.000454	20.761119
990.271869	-3.010300	3.642000	-10.963000	25.458766	0.000454	20.741073
991.266807	-3.006000	3.640900	-10.944000	25.502457	0.000453	20.757448
992.270041	-3.019700	3.640800	-10.993000	25.508938	0.000452	20.749257
993.267826	-3.009400	3.640300	-10.955000	25.514635	0.000452	20.764463
994.270079	-2.990300	3.639200	-10.882000	25.498306	0.000452	20.745218
995.274798	-3.005600	3.640300	-10.940000	25.502328	0.000453	20.757792
996.272405	-3.007400	3.640900	-10.949000	25.441620	0.000450	20.766057
997.272849	-3.026300	3.637900	-11.008000	25.431851	0.000452	20.760989
998.272484	-3.009200	3.639500	-10.951000	25.432218	0.000450	20.757090
999.274796	-3.030700	3.637600	-11.023000	25.412418	0.000452	20.738629
1000.271086	-3.037500	3.636700	-11.045000	25.430410	0.000452	20.738678
1001.272937	-3.002400	3.638800	-10.925000	25.478401	0.000449	20.743248
1002.270991	-3.004200	3.637100	-10.926000	25.471539	0.000449	20.747736
1003.273609	-3.016700	3.637800	-10.974000	25.469007	0.000449	20.740926
1004.276717	-2.989900	3.637800	-10.875000	25.465320	0.000451	20.750026
1005.273662	-2.982900	3.637000	-10.847000	25.460525	0.000448	20.749953
1006.279738	-3.008600	3.636400	-10.939000	25.449958	0.000447	20.763524
1007.276319	-2.997700	3.636500	-10.901000	25.429728	0.000449	20.743683
1008.275010	-3.015900	3.636100	-10.965000	25.396803	0.000446	20.752348
1009.273257	-3.013100	3.635600	-10.953000	25.394159	0.000447	20.749218
1010.271820	-2.998400	3.636400	-10.902000	25.431609	0.000447	20.740356
1011.274394	-2.982300	3.635100	-10.839000	25.458401	0.000447	20.745449
1012.280208	-3.017100	3.635200	-10.967000	25.471769	0.000449	20.753658
1013.274919	-3.018500	3.634100	-10.968000	25.469058	0.000446	20.736710
1014.275474	-3.002800	3.635200	-10.915000	25.461178	0.000447	20.737332
1015.278158	-3.000400	3.633800	-10.902000	25.466495	0.000445	20.751206
1016.272874	-3.019400	3.633600	-10.971000	25.438961	0.000445	20.745843
1017.274637	-3.000800	3.634600	-10.906000	25.463507	0.000444	20.732084
1018.274252	-3.015300	3.632600	-10.952000	25.449814	0.000443	20.717384
1019.275661	-2.998800	3.632900	-10.894000	25.462458	0.000444	20.723918
1020.274980	-2.987700	3.633100	-10.854000	25.434673	0.000443	20.726836
1021.276896	-3.001400	3.631900	-10.900000	25.401937	0.000443	20.737114
1022.279196	-2.993100	3.632400	-10.871000	25.438467	0.000443	20.741553
1023.273688	-2.989400	3.631500	-10.855000	25.451524	0.000442	20.737595
1024.277703	-2.997300	3.631600	-10.883000	25.468939	0.000443	20.729952
1025.279888	-2.998700	3.632100	-10.890000	25.520324	0.000443	20.732242
1026.282308	-2.991500	3.631600	-10.863000	25.520184	0.000442	20.738740
1027.279903	-2.991300	3.629800	-10.858000	25.504921	0.000441	20.716773
1028.279973	-2.964000	3.631900	-10.764000	25.528693	0.000441	20.739698
1029.282852	-3.016700	3.629700	-10.949000	25.521936	0.000441	20.723429
1030.279319	-2.983500	3.629300	-10.827000	25.541693	0.000440	20.721458
1031.280808	-2.985900	3.628700	-10.834000	25.570762	0.000441	20.724574
1032.280012	-3.016900	3.628000	-10.944000	25.583209	0.000440	20.715262
1033.284029	-3.025800	3.628000	-10.976000	25.574116	0.000440	20.719407
1034.282701	-3.018600	3.628700	-10.953000	25.531005	0.000437	20.709776
1035.282252	-2.989900	3.628300	-10.847000	25.494624	0.000437	20.711174
1036.281673	-2.990700	3.627900	-10.849000	25.467232	0.000437	20.722073
1037.284092	-2.980100	3.628500	-10.812000	25.424294	0.000437	20.727321
1038.286540	-2.998600	3.627300	-10.876000	25.410625	0.000437	20.726397
1039.288163	-2.986600	3.628300	-10.834000	25.417407	0.000438	20.722301
1040.288079	-2.995900	3.627800	-10.868000	25.466661	0.000438	20.731932
1041.285170	-3.029300	3.625800	-10.983000	25.396826	0.000435	20.716333
1042.291376	-3.030500	3.625300	-10.986000	25.405260	0.000437	20.737131
1043.285348	-3.010000	3.625100	-10.911000	25.427177	0.000434	20.723576
1044.290581	-2.997700	3.624900	-10.865000	25.474290	0.000436	20.722048
1045.284585	-2.990400	3.624500	-10.837000	25.497653	0.000435	20.709474
1046.286150	-2.988500	3.624400	-10.831000	25.534156	0.000434	20.723847
1047.285459	-2.974300	3.624800	-10.780000	25.536712	0.000436	20.717405
1048.287305	-3.000900	3.624900	-10.877000	25.570510	0.000433	20.720527
1049.283597	-3.005300	3.624100	-10.890000	25.596135	0.000435	20.722080
1050.285596	-3.005800	3.623600	-10.891000	25.586049	0.000433	20.708631
1051.287387	-2.985500	3.622600	-10.814000	25.554213	0.000432	20.716962
1052.286445	-3.007700	3.623900	-10.898000	25.555255	0.000432	20.712319
1053.285029	-3.014000	3.621800	-10.916000	25.488088	0.000432	20.718834
1054.285760	-2.997000	3.621800	-10.853000	25.511451	0.000432	20.713373
1055.284389	-2.999400	3.620900	-10.860000	25.566692	0.000432	20.710053
1056.286658	-2.988400	3.622700	-10.825000	25.592040	0.000432	20.715596
1057.288299	-2.984400	3.623300	-10.813000	25.592659	0.000430	20.722856
1058.285588	-2.987900	3.621100	-10.819000	25.597485	0.000430	20.717746
1059.287889	-2.987600	3.621700	-10.819000	25.608116	0.000430	20.689540
1060.291930	-3.014900	3.620400	-10.913000	25.625682	0.000430	20.701493
1061.287962	-3.004000	3.621900	-10.879000	25.592316	0.000429	20.707813
1062.289737	-2.998500	3.619300	-10.852000	25.565412	0.000430	20.704500
1063.284740	-3.007600	3.620000	-10.887000	25.526567	0.000431	20.714328
1064.289526	-2.989200	3.620400	-10.820000	25.489071	0.000428	20.707493
1065.289387	-2.992500	3.619300	-10.830000	25.486759	0.000428	20.691420
1066.289603	-3.001200	3.617900	-10.857000	25.470111	0.000427	20.716903
1067.288183	-3.002900	3.620000	-10.869000	25.501200	0.000427	20.687429
1068.287275	-2.996300	3.617000	-10.837000	25.530481	0.000427	20.734856
1069.288610	-3.007900	3.617100	-10.879000	25.575635	0.000428	20.701965
1070.286733	-3.001000	3.617500	-10.855000	25.533607	0.000426	20.683938
1071.289722	-3.018700	3.617700	-10.920000	25.531100	0.000430	20.707500
1072.286048	-3.004900	3.618000	-10.871000	25.567332	0.000427	20.708326
1073.286780	-3.010300	3.617100	-10.888000	25.572827	0.000429	20.698670
1074.293130	-3.005600	3.616200	-10.868000	25.582010	0.000428	20.696987
1075.291350	-2.982800	3.617100	-10.787000	25.591012	0.000428	20.690854
1076.292419	-3.011500	3.616200	-10.889000	25.631344	0.000428	20.692007
1077.291138	-2.994800	3.615800	-10.828000	25.588977	0.000427	20.694500
1078.291976	-3.001700	3.614600	-10.849000	25.579534	0.000425	20.686439
1079.294622	-3.007300	3.614500	-10.868000	25.597971	0.000425	20.702586
1080.296143	-2.995800	3.615700	-10.831000	25.647763	0.000425	20.710395
1081.296159	-2.996800	3.616100	-10.835000	25.626120	0.000424	20.695294
1082.292992	-3.013900	3.614400	-10.893000	25.613348	0.000424	20.682466
1083.294828	-2.998100	3.613400	-10.832000	25.615065	0.000423	20.703159
1084.300257	-2.974000	3.614200	-10.746000	25.596181	0.000424	20.710746
1085.297759	-2.980400	3.613200	-10.767000	25.615709	0.000423	20.700960
1086.297874	-2.996700	3.612800	-10.826000	25.612582	0.000424	20.694026
1087.298674	-2.989900	3.612300	-10.799000	25.588627	0.000420	20.687985
1088.294657	-2.977500	3.613100	-10.757000	25.605599	0.000421	20.695547
1089.294228	-3.003800	3.612800	-10.851000	25.603385	0.000422	20.690004
1090.296679	-3.006100	3.611400	-10.855000	25.618094	0.000421	20.705252
1091.296630	-3.001300	3.611800	-10.839000	25.646745	0.000421	20.688034
1092.300593	-3.008600	3.610100	-10.860000	25.661202	0.000421	20.699235
1093.298052	-2.985900	3.611000	-10.781000	25.605697	0.000419	20.719355
1094.300995	-3.009400	3.611100	-10.867000	25.569221	0.000420	20.702161
1095.299356	-3.002200	3.610800	-10.839000	25.580251	0.000418	20.694272
1096.301910	-2.994900	3.610700	-10.813000	25.608903	0.000419	20.704557
1097.297308	-3.004000	3.609600	-10.842000	25.561366	0.000417	20.696643
1098.299456	-3.002100	3.608600	-10.832000	25.552965	0.000418	20.684886
1099.298610	-2.988000	3.609300	-10.784000	25.574162	0.000417	20.689105
1100.302359	-2.995400	3.608300	-10.808000	25.537416	0.000416	20.695351
1101.306148	-2.978600	3.608400	-10.747000	25.569319	0.000414	20.686611
1102.303623	-2.984600	3.607700	-10.767000	25.564898	0.000416	20.685017
1103.301744	-3.003200	3.607000	-10.831000	25.595261	0.000414	20.694174
1104.300388	-2.997900	3.606900	-10.812000	25.594943	0.000417	20.706183
1105.301526	-3.003100	3.606800	-10.831000	25.635845	0.000416	20.703166
1106.298676	-2.977900	3.607600	-10.743000	25.665066	0.000415	20.714497
1107.304661	-3.000100	3.606600	-10.819000	25.610799	0.000413	20.709780
1108.297723	-3.000300	3.604800	-10.815000	25.579272	0.000412	20.687599
1109.301600	-2.991900	3.605500	-10.787000	25.563717	0.000412	20.691891
1110.302215	-2.999600	3.605900	-10.815000	25.626232	0.000415	20.684500
1111.301724	-3.017100	3.605200	-10.876000	25.594600	0.000412	20.692562
1112.301897	-2.982200	3.605700	-10.752000	25.618605	0.000413	20.706714
1113.302408	-2.991600	3.605000	-10.783000	25.557393	0.000414	20.697869
1114.304744	-3.002200	3.604100	-10.819000	25.540459	0.000412	20.703623
1115.304145	-2.990400	3.603800	-10.776000	25.570994	0.000411	20.697778
1116.302032	-2.998100	3.603900	-10.804000	25.566322	0.000410	20.697827
1117.304706	-2.993200	3.602200	-10.781000	25.553983	0.000411	20.692547
1118.304456	-2.973600	3.604400	-10.717000	25.565615	0.000412	20.678149
1119.303735	-2.988100	3.604200	-10.768000	25.577369	0.000411	20.700862
1120.305356	-2.998700	3.602700	-10.802000	25.578355	0.000410	20.680513
1121.301913	-3.011200	3.602400	-10.847000	25.613691	0.000407	20.700356
1122.305685	-3.000400	3.601800	-10.805000	25.633439	0.000408	20.698378
1123.307336	-3.003100	3.601000	-10.814000	25.684767	0.000409	20.711525
1124.301266	-2.971000	3.600800	-10.697000	25.684337	0.000408	20.726267
1125.307417	-2.977000	3.600100	-10.717000	25.694575	0.000408	20.701936
1126.305223	-2.992500	3.600800	-10.774000	25.690677	0.000410	20.704658
1127.310587	-2.989800	3.599100	-10.760000	25.696432	0.000409	20.719923
1128.306021	-3.012400	3.599400	-10.841000	25.721753	0.000406	20.706948
1129.314124	-2.996000	3.600700	-10.787000	25.726109	0.000407	20.692831
1130.309039	-3.000200	3.599200	-10.797000	25.678087	0.000405	20.695332
1131.305224	-3.001700	3.598600	-10.801000	25.640687	0.000404	20.707081
1132.305882	-3.002400	3.598200	-10.803000	25.632717	0.000405	20.706663
1133.307352	-2.997200	3.597600	-10.782000	25.632035	0.000405	20.715936
1134.305741	-2.980800	3.598200	-10.725000	25.626541	0.000403	20.690976
1135.309373	-2.979000	3.599200	-10.721000	25.631930	0.000404	20.705398
1136.316934	-2.982100	3.598500	-10.730000	25.656504	0.000404	20.702103
1137.315492	-3.011200	3.597300	-10.831000	25.684283	0.000404	20.697288
1138.310338	-3.020500	3.597100	-10.863000	25.719755	0.000405	20.713003
1139.309491	-2.989400	3.597500	-10.753000	25.729668	0.000402	20.725806
1140.310130	-2.977100	3.596800	-10.708000	25.730417	0.000403	20.707116
1141.313871	-2.999500	3.595600	-10.784000	25.706537	0.000404	20.716796
1142.310577	-2.988600	3.596200	-10.747000	25.719104	0.000402	20.708081
1143.311802	-3.012800	3.595000	-10.830000	25.725566	0.000402	20.700347
1144.309143	-3.007500	3.594000	-10.808000	25.728196	0.000400	20.725275
1145.308463	-3.000100	3.594900	-10.784000	25.715678	0.000401	20.702742
1146.311960	-3.015000	3.594200	-10.836000	25.683283	0.000399	20.711457
1147.311023	-2.984300	3.595400	-10.730000	25.657930	0.000402	20.715865
1148.312460	-2.993400	3.593400	-10.755000	25.641015	0.000400	20.701720
1149.311559	-3.014500	3.593700	-10.832000	25.636864	0.000400	20.697077
1150.308990	-3.018900	3.593900	-10.848000	25.652842	0.000399	20.702693
1151.312539	-3.004900	3.592400	-10.793000	25.653737	0.000398	20.712602
1152.314395	-2.990100	3.593500	-10.743000	25.675705	0.000399	20.727081
1153.313590	-2.988300	3.591500	-10.732000	25.656203	0.000399	20.705121
1154.310287	-3.002500	3.591400	-10.782000	25.673020	0.000397	20.703993
1155.313633	-2.984100	3.592300	-10.719000	25.669096	0.000397	20.706216
1156.310263	-3.009600	3.591200	-10.807000	25.663032	0.000395	20.715774
1157.314087	-2.969700	3.592900	-10.669000	25.635130	0.000397	20.716199
1158.311097	-2.996600	3.590000	-10.757000	25.625835	0.000396	20.733417
1159.315085	-3.003600	3.590800	-10.785000	25.590671	0.000395	20.723705
1160.315379	-2.993500	3.590600	-10.748000	25.628863	0.000396	20.714646
1161.313220	-2.972300	3.590500	-10.671000	25.695858	0.000394	20.704646
1162.316076	-3.010500	3.589400	-10.804000	25.694945	0.000393	20.711317
1163.323876	-2.965500	3.589900	-10.644000	25.737693	0.000395	20.726754
1164.316098	-2.989500	3.588400	-10.727000	25.699170	0.000393	20.705128
1165.314260	-3.018200	3.586900	-10.825000	25.726801	0.000395	20.721977
1166.319717	-2.990700	3.587700	-10.728000	25.746848	0.000393	20.741640
1167.312572	-2.988100	3.588400	-10.721000	25.724735	0.000393	20.719427
1168.320294	-3.005000	3.586800	-10.777000	25.682045	0.000392	20.727759
1169.318184	-3.001900	3.586100	-10.764000	25.648982	0.000390	20.714938
1170.313592	-3.002700	3.587900	-10.773000	25.662151	0.000393	20.710621
1171.317967	-3.026900	3.585700	-10.852000	25.698778	0.000391	20.727021
1172.313262	-2.987800	3.586800	-10.716000	25.678804	0.000390	20.715019
1173.318498	-3.013800	3.586000	-10.807000	25.694211	0.000391	20.725753
1174.319662	-3.002200	3.585600	-10.764000	25.716570	0.000391	20.724977
1175.315644	-2.981300	3.586600	-10.692000	25.725099	0.000391	20.721690
1176.315084	-2.969400	3.586700	-10.649000	25.670209	0.000392	20.713973
1177.323532	-3.005500	3.583400	-10.769000	25.695065	0.000390	20.717127
1178.316671	-3.000500	3.584200	-10.753000	25.633571	0.000390	20.727436
1179.320436	-3.001700	3.584000	-10.757000	25.648629	0.000388	20.718852
1180.318657	-2.992400	3.583500	-10.723000	25.620499	0.000389	20.725213
1181.316282	-3.006700	3.584000	-10.775000	25.597943	0.000386	20.716783
1182.320982	-3.002100	3.583400	-10.758000	25.582663	0.000387	20.729888
1183.321265	-2.990200	3.583900	-10.716000	25.593686	0.000387	20.733846
1184.325319	-2.998400	3.583000	-10.743000	25.613253	0.000386	20.719358
1185.318788	-2.991500	3.583200	-10.718000	25.653805	0.000387	20.727370
1186.321086	-3.002700	3.580900	-10.751000	25.716592	0.000387	20.727844
1187.320075	-3.020200	3.581100	-10.814000	25.739551	0.000384	20.726249
1188.321370	-3.006300	3.580500	-10.763000	25.750604	0.000386	20.742568
1189.338239	-2.997100	3.581900	-10.735000	25.759003	0.000384	20.736305
1190.324058	-3.012900	3.581000	-10.789000	25.725145	0.000384	20.742126
1191.320134	-3.003200	3.581600	-10.755000	25.696716	0.000385	20.718785
1192.321056	-3.003300	3.580000	-10.751000	25.700370	0.000386	20.742371
1193.321593	-2.985600	3.579400	-10.686000	25.690610	0.000386	20.724507
1194.321857	-2.981300	3.579300	-10.670000	25.685809	0.000383	20.743868
1195.324700	-2.978300	3.579700	-10.661000	25.666901	0.000385	20.746688
1196.324451	-2.998900	3.578200	-10.730000	25.674706	0.000383	20.724655
1197.324308	-2.995600	3.578600	-10.719000	25.699149	0.000382	20.731188
1198.323311	-2.998300	3.578700	-10.730000	25.743751	0.000382	20.729045
1199.331812	-2.996500	3.578300	-10.721000	25.717885	0.000382	20.751430
1200.328769	-2.983800	3.577300	-10.673000	25.723078	0.000382	20.714918
1201.327717	-2.985900	3.577900	-10.682000	25.760622	0.000381	20.753580
1202.326035	-2.984500	3.576800	-10.674000	25.776616	0.000380	20.742617
1203.324613	-2.978200	3.577300	-10.653000	25.739030	0.000382	20.732839
1204.329050	-3.004800	3.575300	-10.742000	25.713710	0.000380	20.725898
1205.328923	-3.025800	3.574600	-10.815000	25.741016	0.000377	20.739101
1206.332152	-2.997400	3.575400	-10.716000	25.717413	0.000381	20.736256
1207.328905	-2.990500	3.574900	-10.690000	25.735254	0.000377	20.761763
1208.324830	-2.996000	3.574000	-10.707000	25.766955	0.000379	20.733861
1209.329777	-2.993900	3.574300	-10.700000	25.733292	0.000378	20.748887
1210.329809	-2.992800	3.574800	-10.698000	25.689935	0.000378	20.745167
1211.329339	-2.988100	3.573500	-10.677000	25.643751	0.000376	20.727704
1212.324800	-2.999900	3.574900	-10.723000	25.680826	0.000376	20.757830
1213.328076	-2.961800	3.574700	-10.586000	25.656319	0.000377	20.734637
1214.330256	-2.986600	3.573200	-10.670000	25.649050	0.000377	20.729706
1215.329304	-2.999000	3.573500	-10.716000	25.648252	0.000374	20.725586
1216.328304	-3.016100	3.570600	-10.768000	25.583248	0.000377	20.750865
1217.329115	-2.991300	3.571700	-10.683000	25.590061	0.000374	20.741585
1218.326696	-3.007200	3.571900	-10.740000	25.638209	0.000375	20.725456
1219.328166	-2.998900	3.572200	-10.712000	25.689152	0.000373	20.746752
1220.327689	-3.012800	3.570600	-10.757000	25.717127	0.000374	20.753513
1221.330057	-2.991500	3.572000	-10.685000	25.734740	0.000375	20.745600
1222.331428	-2.993400	3.569800	-10.685000	25.766602	0.000373	20.742990
1223.326198	-2.950200	3.571000	-10.534000	25.702353	0.000370	20.742467
1224.330625	-2.992700	3.569200	-10.681000	25.693677	0.000372	20.749874
1225.330515	-2.991700	3.570000	-10.680000	25.717159	0.000373	20.738371
1226.332063	-3.000200	3.569500	-10.708000	25.762077	0.000371	20.748877
1227.336686	-3.009200	3.569400	-10.740000	25.777092	0.000373	20.747363
1228.335801	-3.006200	3.569600	-10.730000	25.753385	0.000373	20.735403
1229.328166	-2.994000	3.568100	-10.682000	25.750080	0.000373	20.740145
1230.331521	-3.003300	3.568700	-10.717000	25.733859	0.000369	20.743292
1231.334238	-2.997300	3.567500	-10.692000	25.707756	0.000368	20.770654
1232.332233	-2.994300	3.567000	-10.680000	25.712949	0.000369	20.756429
1233.333617	-2.993300	3.567100	-10.677000	25.673889	0.000369	20.747543
1234.330039	-2.994700	3.565800	-10.677000	25.673001	0.000368	20.749022
1235.332739	-3.014100	3.565600	-10.746000	25.755735	0.000369	20.755783
1236.333789	-2.991100	3.567200	-10.669000	25.800985	0.000370	20.758561
1237.334147	-3.027200	3.564700	-10.789000	25.769952	0.000367	20.760107
1238.339605	-3.006300	3.565200	-10.718000	25.746277	0.000367	20.752921
1239.334789	-3.001200	3.565600	-10.700000	25.712687	0.000367	20.768494
1240.330703	-2.980700	3.566400	-10.629000	25.698655	0.000367	20.773366
1241.332286	-3.011600	3.565700	-10.738000	25.708072	0.000366	20.779031
1242.335805	-3.012100	3.564400	-10.736000	25.745917	0.000367	20.733118
1243.331103	-2.997200	3.563600	-10.680000	25.739934	0.000366	20.775000
1244.337576	-3.023200	3.563300	-10.772000	25.698099	0.000365	20.782291
1245.334466	-2.997500	3.564200	-10.683000	25.655563	0.000364	20.758534
1246.333994	-3.032500	3.562600	-10.803000	25.658119	0.000362	20.754463
1247.336992	-2.998600	3.564500	-10.687000	25.718772	0.000366	20.760856
1248.335017	-3.003000	3.563900	-10.702000	25.753166	0.000366	20.769324
1249.336701	-2.983400	3.563900	-10.632000	25.716639	0.000366	20.761084
1250.334540	-3.018000	3.561300	-10.747000	25.685507	0.000363	20.769170
1251.332832	-3.018700	3.561100	-10.749000	25.652241	0.000366	20.777483
1252.335096	-3.008000	3.560200	-10.708000	25.638582	0.000362	20.742427
1253.337058	-3.011100	3.560600	-10.721000	25.651052	0.000362	20.767280
1254.334465	-2.959400	3.561200	-10.538000	25.641813	0.000362	20.767484
1255.334247	-3.011700	3.560000	-10.721000	25.674583	0.000363	20.763887
1256.332541	-3.013700	3.558700	-10.724000	25.684326	0.000361	20.763241
1257.331966	-2.989900	3.560000	-10.643000	25.693767	0.000363	20.774621
1258.334598	-3.025800	3.559500	-10.769000	25.735211	0.000360	20.794438
1259.334870	-3.027500	3.558700	-10.773000	25.697446	0.000359	20.777368
1260.334091	-2.994700	3.558300	-10.655000	25.661519	0.000359	20.772103
1261.335442	-3.021000	3.558900	-10.750000	25.680972	0.000360	20.781684
1262.333657	-3.003100	3.558100	-10.684000	25.632794	0.000359	20.775022
1263.334785	-3.012300	3.558700	-10.719000	25.664677	0.000357	20.772430
1264.342930	-3.001400	3.558100	-10.678000	25.724337	0.000359	20.770238
1265.338051	-3.006700	3.557300	-10.695000	25.731589	0.000359	20.787480
1266.339591	-3.001100	3.557200	-10.675000	25.748069	0.000360	20.750453
1267.339119	-3.019800	3.556000	-10.737000	25.776538	0.000359	20.781421
1268.338894	-2.985800	3.556500	-10.618000	25.819452	0.000358	20.754352
1269.339154	-3.012600	3.555400	-10.710000	25.798934	0.000360	20.792064
1270.340767	-2.974700	3.556900	-10.580000	25.746562	0.000356	20.778338
1271.342725	-3.029700	3.555700	-10.771000	25.697541	0.000358	20.790740
1272.342886	-3.004700	3.555100	-10.681000	25.686813	0.000356	20.761472
1273.342906	-2.995400	3.555100	-10.648000	25.704930	0.000353	20.795317
1274.344770	-2.988400	3.555200	-10.623000	25.743062	0.000354	20.772926
1275.344374	-2.996800	3.553900	-10.649000	25.708910	0.000356	20.754743
1276.351398	-3.005300	3.555000	-10.683000	25.771221	0.000355	20.780822
1277.343618	-2.993100	3.553500	-10.635000	25.786749	0.000354	20.788833
1278.347276	-3.004200	3.554200	-10.677000	25.825162	0.000354	20.774788
1279.345810	-2.980500	3.552200	-10.587000	25.834896	0.000355	20.798316
1280.343649	-2.996100	3.552700	-10.644000	25.852571	0.000352	20.791890
1281.348653	-2.983300	3.553200	-10.599000	25.896344	0.000355	20.795560
1282.347193	-2.997500	3.553200	-10.649000	25.797768	0.000354	20.771451
1283.347225	-2.998300	3.551300	-10.647000	25.770194	0.000353	20.791170
1284.346092	-3.005500	3.551200	-10.673000	25.771260	0.000352	20.774223
1285.346904	-3.010100	3.550500	-10.686000	25.814817	0.000351	20.798535
1286.347605	-3.002200	3.550000	-10.657000	25.817169	0.000352	20.787148
1287.347997	-2.962700	3.551700	-10.522000	25.772953	0.000351	20.771181
1288.346024	-2.994200	3.551700	-10.634000	25.782719	0.000349	20.798535
1289.349140	-2.991600	3.550200	-10.620000	25.800680	0.000349	20.775800
1290.357409	-2.990800	3.549900	-10.616000	25.744483	0.000351	20.790474
1291.348223	-3.001800	3.549500	-10.654000	25.733269	0.000349	20.793435
1292.355719	-2.954500	3.550300	-10.488000	25.725048	0.000348	20.808885
1293.355109	-3.012900	3.547700	-10.688000	25.764082	0.000350	20.791194
1294.350187	-2.988400	3.549100	-10.605000	25.809967	0.000349	20.793189
1295.350547	-3.035100	3.547900	-10.766000	25.834081	0.000349	20.799869
1296.348096	-2.993000	3.547300	-10.616000	25.825886	0.000349	20.809654
1297.348326	-3.005600	3.546900	-10.660000	25.748577	0.000346	20.786526
1298.354587	-3.032200	3.545800	-10.750000	25.680169	0.000347	20.806483
1299.354371	-2.987100	3.547300	-10.595000	25.712190	0.000347	20.798341
1300.352645	-2.999600	3.547200	-10.638000	25.764392	0.000347	20.791980
1301.358559	-3.017600	3.544500	-10.695000	25.790347	0.000346	20.796241
1302.355396	-3.005700	3.545000	-10.654000	25.803767	0.000346	20.815410
1303.357172	-3.047500	3.544100	-10.799000	25.797281	0.000348	20.807473
1304.364149	-3.019500	3.544600	-10.702000	25.831315	0.000345	20.795194
1305.351805	-3.011300	3.544400	-10.672000	25.792438	0.000345	20.802134
1306.355755	-3.002400	3.542800	-10.635000	25.790802	0.000345	20.806655
1307.353644	-3.007400	3.543500	-10.656000	25.757263	0.000342	20.809949
1308.359634	-3.021600	3.542700	-10.703000	25.799666	0.000345	20.813661
1309.357164	-2.986400	3.542800	-10.579000	25.757906	0.000343	20.811544
1310.357451	-3.001900	3.544100	-10.638000	25.704262	0.000344	20.815509
1311.355789	-2.984700	3.542100	-10.571000	25.707249	0.000344	20.803810
1312.355174	-2.995200	3.543000	-10.610000	25.780141	0.000342	20.815860
1313.355364	-3.001700	3.541300	-10.629000	25.809463	0.000342	20.824451
1314.357295	-3.010600	3.541800	-10.662000	25.840438	0.000342	20.803409
1315.353903	-2.990800	3.539600	-10.586000	25.834333	0.000340	20.811028
1316.354559	-2.995200	3.541300	-10.606000	25.824071	0.000342	20.822530
1317.357353	-3.013200	3.540600	-10.668000	25.858640	0.000339	20.797987
1318.355383	-2.999700	3.540800	-10.620000	25.843497	0.000339	20.821181
1319.360015	-3.011300	3.540000	-10.658000	25.839305	0.000339	20.826927
1320.357303	-3.013500	3.538800	-10.662000	25.820302	0.000341	20.822537
1321.358654	-3.013700	3.540200	-10.668000	25.812058	0.000338	20.826109
1322.356339	-2.986200	3.539300	-10.567000	25.842316	0.000337	20.814305
1323.359542	-3.010300	3.538200	-10.650000	25.876503	0.000338	20.812612
1324.360149	-3.015000	3.537600	-10.665000	25.907256	0.000339	20.817427
1325.360528	-2.999100	3.537000	-10.607000	25.907857	0.000335	20.798117
1326.357249	-3.000500	3.537600	-10.613000	25.918485	0.000339	20.812588
1327.355587	-3.004900	3.537700	-10.630000	25.876584	0.000337	20.829288
1328.361380	-3.022600	3.537100	-10.690000	25.844568	0.000339	20.816093
1329.358818	-3.005300	3.536700	-10.628000	25.849362	0.000338	20.814270
1330.360095	-3.023400	3.536600	-10.692000	25.866354	0.000336	20.828020
1331.359273	-2.995600	3.537300	-10.595000	25.824052	0.000335	20.842424
1332.359413	-3.015200	3.536000	-10.661000	25.806790	0.000335	20.818447
1333.359572	-3.023100	3.535000	-10.686000	25.794444	0.000335	20.811735
1334.359884	-3.026700	3.533100	-10.692000	25.779656	0.000336	20.817270
1335.359294	-2.995200	3.533000	-10.581000	25.794810	0.000335	20.833440
1336.359763	-2.990900	3.534800	-10.571000	25.770125	0.000334	20.837093
1337.357606	-2.998200	3.535800	-10.600000	25.756460	0.000333	20.836169
1338.359930	-2.997900	3.533400	-10.591000	25.778964	0.000336	20.799031
1339.360918	-3.004700	3.533400	-10.616000	25.828429	0.000333	20.823114
1340.361969	-3.001700	3.534000	-10.606000	25.840352	0.000333	20.818970
1341.363866	-2.991800	3.532800	-10.569000	25.888919	0.000335	20.842154
1342.364305	-3.007000	3.532900	-10.623000	25.861974	0.000330	20.835000
1343.363883	-3.009400	3.530400	-10.623000	25.865082	0.000333	20.822950
1344.363101	-2.992400	3.531800	-10.568000	25.836314	0.000331	20.847155
1345.369177	-2.982100	3.531800	-10.531000	25.812990	0.000330	20.844114
1346.364835	-2.999600	3.529500	-10.586000	25.777563	0.000329	20.839348
1347.362106	-3.010600	3.530900	-10.629000	25.789640	0.000329	20.829669
1348.365614	-3.003300	3.530100	-10.601000	25.761545	0.000328	20.862612
1349.372974	-3.018600	3.530400	-10.657000	25.774486	0.000328	20.840051
1350.362397	-2.989600	3.530700	-10.554000	25.797396	0.000329	20.856424
1351.365530	-2.996800	3.530100	-10.579000	25.836710	0.000328	20.867467
1352.370202	-3.007500	3.528700	-10.612000	25.880942	0.000328	20.836985
1353.366628	-3.000800	3.528000	-10.586000	25.868132	0.000330	20.838815
1354.366409	-3.005900	3.527900	-10.603000	25.827857	0.000328	20.851936
1355.371065	-2.997100	3.528600	-10.575000	25.817927	0.000326	20.839117
1356.365354	-2.981600	3.528700	-10.520000	25.817658	0.000328	20.822252
1357.369479	-3.011800	3.527000	-10.621000	25.819913	0.000328	20.854862
1358.366441	-3.011200	3.526700	-10.619000	25.783770	0.000328	20.836100
1359.370013	-3.015700	3.526900	-10.635000	25.735321	0.000326	20.831057
1360.369656	-2.979700	3.528100	-10.511000	25.777910	0.000327	20.850128
1361.372119	-3.018200	3.525500	-10.640000	25.854028	0.000325	20.837923
1362.370265	-3.004000	3.526400	-10.592000	25.878271	0.000325	20.832880
1363.369385	-3.017200	3.525900	-10.638000	25.896906	0.000326	20.820780
1364.371284	-2.998700	3.526100	-10.572000	25.869912	0.000324	20.839181
1365.371592	-3.014000	3.525400	-10.625000	25.832242	0.000323	20.837375
1366.374337	-2.969000	3.526500	-10.468000	25.786431	0.000327	20.823127
1367.368191	-3.010700	3.523900	-10.609000	25.781141	0.000325	20.847684
1368.378624	-2.999000	3.524500	-10.569000	25.783176	0.000323	20.842141
1369.374798	-2.979800	3.523700	-10.499000	25.836343	0.000325	20.827271
1370.374763	-2.987300	3.524300	-10.527000	25.862255	0.000324	20.828644
1371.377528	-2.999400	3.522900	-10.565000	25.854727	0.000323	20.843367
1372.376410	-2.991900	3.523800	-10.541000	25.864241	0.000322	20.813570
1373.380185	-2.988200	3.521700	-10.523000	25.890127	0.000321	20.833410
1374.376778	-2.991200	3.523000	-10.537000	25.893830	0.000321	20.828121
1375.383013	-3.000700	3.521500	-10.566000	25.948799	0.000322	20.799419
1376.374774	-3.029500	3.520000	-10.663000	25.919016	0.000321	20.829241
1377.374053	-3.003700	3.520500	-10.573000	25.952941	0.000321	20.803581
1378.376504	-3.010500	3.520000	-10.596000	25.943152	0.000321	20.826463
1379.378839	-2.983500	3.520600	-10.502000	25.921466	0.000321	20.826487
1380.375563	-2.972900	3.520800	-10.466000	25.956661	0.000320	20.832447
1381.376265	-3.006500	3.520300	-10.583000	25.959419	0.000319	20.820046
1382.376862	-3.002700	3.519100	-10.566000	25.928172	0.000318	20.819948
1383.376668	-2.979600	3.519600	-10.485000	25.918610	0.000319	20.827411
1384.383232	-3.019500	3.518600	-10.623000	25.917145	0.000317	20.825940
1385.380073	-2.967200	3.519500	-10.442000	25.957996	0.000318	20.830944
1386.379441	-2.982700	3.518300	-10.492000	25.943593	0.000318	20.817422
1387.377264	-3.004300	3.517700	-10.567000	25.875009	0.000317	20.814904
1388.374930	-2.980100	3.517100	-10.480000	25.869174	0.000319	20.785335
1389.378825	-2.966200	3.518600	-10.435000	25.895647	0.000317	20.814774
1390.377844	-2.983200	3.517800	-10.493000	25.894475	0.000316	20.817390
1391.379230	-2.986500	3.516500	-10.502000	25.925479	0.000314	20.811553
1392.382551	-2.981000	3.515900	-10.480000	25.939883	0.000316	20.826023
1393.381421	-3.004100	3.515600	-10.560000	25.929580	0.000315	20.828001
1394.382626	-2.980500	3.515300	-10.476000	25.907862	0.000314	20.810450
1395.387426	-3.023000	3.514800	-10.624000	25.950591	0.000315	20.818764
1396.384017	-3.009000	3.514800	-10.575000	25.943837	0.000315	20.804392
1397.384487	-3.012500	3.515000	-10.588000	25.964946	0.000313	20.807581
1398.382548	-2.997600	3.514100	-10.532000	25.996371	0.000313	20.814022
1399.378725	-2.973100	3.514700	-10.449000	25.987110	0.000313	20.799977
1400.389019	-2.992000	3.513900	-10.512000	25.976647	0.000312	20.815543
1401.381603	-3.000900	3.513100	-10.542000	25.972651	0.000311	20.822908
1402.384735	-2.970900	3.513800	-10.438000	25.939939	0.000313	20.820390
1403.385423	-3.009200	3.512000	-10.568000	25.949207	0.000312	20.805519
1404.383415	-2.999300	3.512600	-10.534000	25.975515	0.000312	20.797810
1405.389725	-2.987600	3.512100	-10.492000	25.977053	0.000310	20.811209
1406.386721	-2.984300	3.512300	-10.480000	25.919400	0.000310	20.798333
1407.386680	-2.988000	3.511300	-10.491000	25.926951	0.000311	20.796911
1408.387699	-2.980700	3.511500	-10.466000	25.894140	0.000310	20.802355
1409.388714	-2.978700	3.511200	-10.458000	25.914631	0.000309	20.790698
1410.384689	-2.993800	3.510000	-10.507000	25.857699	0.000309	20.790877
1411.391178	-2.995100	3.511600	-10.516000	25.877816	0.000310	20.795439
1412.388859	-3.012400	3.508700	-10.568000	25.846248	0.000310	20.786961
1413.391358	-2.964100	3.510200	-10.404000	25.832633	0.000309	20.776603
1414.388228	-3.006000	3.507700	-10.543000	25.884309	0.000308	20.814764
1415.389788	-2.976600	3.508900	-10.443000	25.913995	0.000308	20.780576
1416.390567	-2.981700	3.507900	-10.458000	25.922858	0.000307	20.791376
1417.389376	-2.992300	3.507300	-10.494000	25.980860	0.000306	20.783266
1418.385785	-3.010100	3.507500	-10.557000	26.001675	0.000307	20.782367
1419.391638	-2.999000	3.505900	-10.513000	26.015539	0.000305	20.779227
1420.387488	-3.012700	3.506900	-10.564000	25.973008	0.000307	20.779171
1421.384778	-3.010900	3.506700	-10.557000	25.958500	0.000306	20.792570
1422.392348	-3.022200	3.504700	-10.590000	25.933933	0.000307	20.790649
1423.388608	-3.005400	3.505400	-10.535000	25.887354	0.000304	20.797908
1424.388786	-2.998200	3.505800	-10.510000	25.903223	0.000305	20.792987
1425.388254	-3.003300	3.505400	-10.527000	25.857016	0.000303	20.791614
1426.386639	-3.017000	3.504500	-10.572000	25.859425	0.000303	20.779335
1427.393767	-3.001600	3.503900	-10.516000	25.896909	0.000303	20.778583
1428.389519	-3.006700	3.503800	-10.534000	25.887591	0.000303	20.779180
1429.386337	-3.009800	3.502900	-10.542000	25.914837	0.000302	20.798016
1430.390812	-3.005700	3.503500	-10.529000	25.925968	0.000304	20.791656
1431.388433	-2.991600	3.503100	-10.479000	25.945116	0.000304	20.770115
1432.389957	-2.993200	3.502000	-10.482000	25.885451	0.000304	20.782721
1433.391119	-3.003900	3.502500	-10.520000	25.867092	0.000301	20.782296
1434.392276	-3.017200	3.501200	-10.564000	25.859386	0.000301	20.790202
1435.392540	-2.975600	3.503600	-10.425000	25.842761	0.000301	20.794363
1436.395417	-2.990100	3.500500	-10.466000	25.885119	0.000300	20.789973
1437.393301	-3.016000	3.500000	-10.554000	25.911144	0.000298	20.776289
1438.397722	-3.028700	3.500300	-10.601000	25.918972	0.000300	20.782256
1439.395887	-2.975400	3.502400	-10.420000	25.946941	0.000301	20.783328
1440.392254	-2.987300	3.499400	-10.453000	25.955006	0.000299	20.782421
1441.393353	-2.991200	3.499400	-10.466000	25.906613	0.000299	20.784065
1442.397215	-2.995000	3.499900	-10.481000	25.886195	0.000301	20.795796
1443.394559	-2.995600	3.498100	-10.478000	25.870066	0.000296	20.788602
1444.394095	-2.983900	3.499000	-10.440000	25.875192	0.000297	20.777630
1445.393328	-2.972700	3.499200	-10.401000	25.924548	0.000297	20.774581
1446.394017	-2.984600	3.498500	-10.440000	25.948237	0.000297	20.793165
1447.399034	-3.035300	3.496400	-10.611000	25.982592	0.000298	20.774574
1448.393113	-3.005800	3.496200	-10.508000	25.988580	0.000295	20.794815
1449.397742	-2.994100	3.497900	-10.472000	25.962004	0.000298	20.795142
1450.395998	-3.020500	3.497100	-10.562000	25.988304	0.000296	20.795960
1451.394329	-2.975800	3.496800	-10.405000	25.988182	0.000295	20.783984
1452.394608	-2.994700	3.494900	-10.465000	25.984910	0.000295	20.773584
1453.398210	-2.980200	3.496500	-10.419000	25.919503	0.000298	20.788479
1454.401481	-3.020600	3.495300	-10.558000	25.919601	0.000294	20.776724
1455.398945	-3.011700	3.495000	-10.525000	25.907931	0.000292	20.765000
1456.400129	-3.013300	3.495100	-10.531000	25.882037	0.000295	20.783559
1457.395059	-2.998200	3.494800	-10.477000	25.833250	0.000293	20.768688
1458.404306	-3.003400	3.493900	-10.493000	25.820708	0.000294	20.773633
1459.403054	-2.988200	3.494500	-10.441000	25.803789	0.000293	20.767068
1460.403855	-3.003700	3.493200	-10.492000	25.815069	0.000294	20.768916
1461.401291	-2.987800	3.493200	-10.436000	25.870969	0.000293	20.776232
1462.397846	-2.991700	3.492500	-10.447000	25.894390	0.000291	20.750922
1463.398654	-3.007100	3.492000	-10.499000	25.869993	0.000290	20.753915
1464.402568	-2.996700	3.491300	-10.462000	25.842942	0.000290	20.771311
1465.409141	-2.992700	3.492200	-10.450000	25.865354	0.000291	20.771540
1466.398973	-2.973900	3.491300	-10.382000	25.908256	0.000292	20.769594
1467.400645	-3.005000	3.489500	-10.485000	25.921300	0.000291	20.755197
1468.402070	-2.999700	3.489500	-10.466000	25.879570	0.000291	20.774915
1469.403093	-3.030200	3.488500	-10.569000	25.865158	0.000288	20.777982
1470.409594	-3.004300	3.488100	-10.478000	25.824149	0.000289	20.763339
1471.405073	-2.982500	3.490100	-10.408000	25.831394	0.000290	20.762081
1472.404100	-2.998500	3.488700	-10.460000	25.811681	0.000288	20.760297
1473.402278	-3.007000	3.488600	-10.490000	25.799660	0.000289	20.770034
1474.402238	-2.984800	3.487900	-10.410000	25.781520	0.000287	20.742802
1475.404332	-2.994900	3.488500	-10.447000	25.805821	0.000289	20.748721
1476.407467	-2.992900	3.486900	-10.435000	25.847708	0.000286	20.742908
1477.407841	-3.027600	3.485700	-10.552000	25.906960	0.000288	20.777775
1478.408066	-3.018800	3.485900	-10.522000	25.955052	0.000288	20.741689
1479.407958	-2.978600	3.488100	-10.389000	25.991214	0.000287	20.764744
1480.403722	-2.996900	3.486300	-10.447000	26.018520	0.000287	20.780799
1481.405714	-2.999800	3.485300	-10.455000	26.035639	0.000287	20.776662
1482.404458	-2.967100	3.485700	-10.341000	26.026012	0.000286	20.750868
1483.402648	-2.995500	3.485600	-10.440000	26.004663	0.000284	20.751703
1484.402950	-3.001700	3.484500	-10.459000	25.914250	0.000285	20.741950
1485.409374	-2.998000	3.484100	-10.445000	25.918246	0.000286	20.745964
1486.407692	-3.008200	3.484500	-10.482000	25.962821	0.000284	20.740485
1487.406923	-2.995000	3.484600	-10.435000	26.010886	0.000284	20.755585
1488.406560	-3.001700	3.483500	-10.455000	26.023482	0.000284	20.770611
1489.407372	-2.993200	3.482400	-10.423000	25.987785	0.000284	20.742333
1490.410830	-3.012200	3.482500	-10.489000	26.001650	0.000284	20.762902
1491.406639	-3.010800	3.483700	-10.488000	25.972235	0.000281	20.750893
1492.409738	-3.033300	3.482300	-10.562000	25.971893	0.000281	20.738220
1493.407995	-3.012600	3.482000	-10.489000	25.957507	0.000282	20.758855
1494.410987	-3.005400	3.481800	-10.463000	25.913768	0.000280	20.756639
1495.404915	-2.995100	3.482500	-10.429000	25.925438	0.000281	20.755561
1496.410934	-3.019900	3.480200	-10.509000	25.929710	0.000281	20.748947
1497.410897	-3.003700	3.480900	-10.455000	25.945275	0.000280	20.746566
1498.409225	-3.020700	3.480800	-10.514000	25.922987	0.000281	20.746935
1499.408287	-2.997400	3.481100	-10.433000	25.935259	0.000281	20.723700
1500.408467	-2.999900	3.480900	-10.442000	25.905930	0.000280	20.739756
1501.409981	-2.987400	3.480100	-10.395000	25.880240	0.000280	20.732913
1502.409445	-2.993900	3.479900	-10.417000	25.891250	0.000281	20.755828
1503.414488	-2.976100	3.479600	-10.355000	25.885065	0.000279	20.747718
1504.407733	-2.992600	3.478700	-10.409000	25.903392	0.000280	20.760914
1505.424819	-2.986200	3.479100	-10.388000	25.922904	0.000277	20.742583
1506.411690	-2.981500	3.478300	-10.370000	25.915157	0.000281	20.753293
1507.411466	-2.992500	3.477200	-10.404000	25.895627	0.000277	20.752165
1508.414613	-2.994900	3.477200	-10.412000	25.884649	0.000278	20.758207
1509.411781	-2.984000	3.477400	-10.376000	25.895082	0.000277	20.749246
1510.407190	-2.990200	3.476200	-10.393000	25.949163	0.000275	20.732454
1511.417942	-2.988200	3.476100	-10.386000	25.907647	0.000276	20.751438
1512.410904	-2.990700	3.476000	-10.395000	25.884527	0.000275	20.728685
1513.412722	-3.015200	3.475900	-10.481000	25.882142	0.000278	20.734350
1514.411232	-2.988500	3.475600	-10.386000	25.857599	0.000276	20.746205
1515.409474	-2.998200	3.475800	-10.420000	25.829131	0.000273	20.743687
1516.409971	-3.011700	3.473200	-10.459000	25.791142	0.000276	20.738242
1517.412397	-3.012600	3.474000	-10.465000	25.779341	0.000273	20.745355
1518.412684	-3.017000	3.473200	-10.478000	25.791183	0.000274	20.731171
1519.413449	-3.014700	3.473600	-10.470000	25.847305	0.000274	20.750563
1520.414199	-2.979100	3.474600	-10.349000	25.871922	0.000274	20.750637
1521.414732	-3.008200	3.472700	-10.445000	25.899623	0.000272	20.739109
1522.417093	-3.006900	3.472000	-10.439000	25.906833	0.000273	20.736869
1523.416328	-3.000700	3.472100	-10.418000	25.915199	0.000273	20.732471
1524.416586	-3.011700	3.472500	-10.457000	25.914531	0.000273	20.730852
1525.416781	-3.012300	3.470900	-10.454000	25.891201	0.000271	20.742028
1526.414296	-2.998700	3.471100	-10.409000	25.908762	0.000269	20.730746
1527.413524	-2.994500	3.471100	-10.393000	25.948090	0.000270	20.745126
1528.417852	-2.994500	3.472300	-10.397000	25.930400	0.000271	20.716447
1529.417262	-2.982500	3.470300	-10.349000	25.939521	0.000269	20.730353
1530.421570	-3.018300	3.468400	-10.467000	25.956487	0.000271	20.741235
1531.420465	-3.017600	3.468400	-10.465000	25.947195	0.000269	20.716725
1532.419657	-3.000600	3.469000	-10.409000	25.973226	0.000270	20.739559
1533.421273	-3.002600	3.469600	-10.417000	25.983763	0.000270	20.726911
1534.419779	-2.977800	3.469400	-10.330000	26.016222	0.000269	20.736763
1535.423276	-3.027100	3.467600	-10.496000	25.982046	0.000268	20.720919
1536.418810	-2.992200	3.468000	-10.376000	25.945625	0.000270	20.723683
1537.419231	-3.004400	3.467700	-10.416000	25.924914	0.000268	20.724687
1538.417890	-3.023400	3.466200	-10.478000	25.970996	0.000266	20.727835
1539.420923	-2.982500	3.467500	-10.341000	26.007133	0.000267	20.729053
1540.424694	-2.996000	3.466100	-10.384000	25.984805	0.000268	20.727009
1541.423202	-3.018700	3.464300	-10.457000	25.955299	0.000266	20.721548
1542.424815	-3.009400	3.466700	-10.432000	26.000459	0.000268	20.719029
1543.424526	-2.988600	3.466600	-10.359000	25.939130	0.000264	20.719054
1544.426225	-3.004500	3.464900	-10.410000	25.932490	0.000264	20.708116
1545.424765	-3.011200	3.465900	-10.436000	25.924523	0.000265	20.713388
1546.421490	-3.005800	3.464800	-10.414000	25.909696	0.000265	20.735004
1547.424378	-2.995900	3.464900	-10.380000	25.913448	0.000263	20.707477
1548.421836	-2.969100	3.464600	-10.285000	25.939927	0.000263	20.722226
1549.426732	-2.989800	3.464100	-10.356000	25.911731	0.000263	20.721874
1550.425346	-3.001500	3.463600	-10.395000	25.906833	0.000264	20.725488
1551.427371	-3.004300	3.463800	-10.406000	25.931155	0.000262	20.695868
1552.426179	-2.992400	3.462800	-10.361000	25.932173	0.000262	20.706848
1553.421710	-2.999100	3.461400	-10.380000	25.935574	0.000264	20.705049
1554.425970	-3.001900	3.463400	-10.396000	26.004528	0.000261	20.714108
1555.424202	-3.006000	3.462300	-10.406000	26.003812	0.000261	20.715285
1556.436844	-2.998100	3.462400	-10.380000	26.019833	0.000261	20.710518
1557.425572	-3.001600	3.461400	-10.389000	26.031030	0.000261	20.710862
1558.424026	-2.969100	3.461000	-10.275000	26.051477	0.000260	20.703430
1559.430544	-3.002200	3.461500	-10.391000	26.025496	0.000262	20.707199
1560.428854	-2.992600	3.460300	-10.354000	26.060996	0.000260	20.718685
1561.429411	-2.999200	3.459300	-10.374000	26.035830	0.000260	20.712840
1562.428480	-2.985800	3.459900	-10.330000	26.041566	0.000259	20.708172
1563.428916	-2.988900	3.458800	-10.337000	26.009101	0.000259	20.715383
1564.428905	-2.990000	3.459800	-10.344000	26.036277	0.000261	20.705229
1565.431001	-2.999800	3.458200	-10.372000	26.041566	0.000259	20.704379
1566.426509	-2.991000	3.458700	-10.344000	26.022266	0.000258	20.719128
1567.431361	-3.022800	3.457300	-10.450000	25.984193	0.000258	20.718808
1568.430051	-3.005500	3.456300	-10.387000	26.012136	0.000256	20.719855
1569.425917	-2.993200	3.457700	-10.349000	26.048222	0.000257	20.717705
1570.430517	-3.025900	3.456500	-10.458000	26.081476	0.000256	20.722194
1571.427862	-3.002700	3.457000	-10.379000	26.066285	0.000255	20.708826
1572.431043	-3.009100	3.456200	-10.400000	26.059304	0.000257	20.713666
1573.429348	-3.012500	3.455600	-10.408000	26.046489	0.000256	20.703634
1574.433613	-3.015600	3.455500	-10.419000	26.053844	0.000255	20.717189
1575.436128	-2.991700	3.456500	-10.340000	26.054462	0.000255	20.710698
1576.433191	-2.989300	3.456400	-10.331000	26.072476	0.000255	20.694182
1577.431754	-2.978800	3.454700	-10.290000	26.058489	0.000253	20.687241
1578.436703	-2.997700	3.455000	-10.357000	26.066285	0.000253	20.710722
1579.448175	-3.017600	3.453900	-10.422000	26.091198	0.000254	20.702089
1580.432484	-3.011700	3.454300	-10.402000	26.085039	0.000254	20.687364
1581.439356	-3.010600	3.453000	-10.395000	26.088318	0.000252	20.714368
1582.438061	-3.022500	3.452600	-10.435000	26.056154	0.000254	20.703388
1583.438352	-3.013700	3.452500	-10.404000	26.097161	0.000253	20.681052
1584.439412	-2.985800	3.452800	-10.309000	26.064852	0.000252	20.709757
1585.435108	-3.012500	3.450700	-10.395000	26.056406	0.000251	20.696529
1586.440143	-2.997200	3.451300	-10.343000	26.042329	0.000252	20.700403
1587.441309	-2.989000	3.450600	-10.313000	26.005137	0.000251	20.711401
1588.440920	-2.989600	3.451400	-10.317000	26.009148	0.000251	20.688401
1589.438552	-3.003500	3.450800	-10.363000	26.016674	0.000251	20.694067
1590.437495	-3.012600	3.449200	-10.390000	25.964931	0.000250	20.701826
1591.433780	-2.983000	3.450600	-10.292000	25.937687	0.000250	20.709069
1592.440466	-2.989400	3.450300	-10.314000	25.993899	0.000249	20.699160
1593.437297	-2.996100	3.449500	-10.334000	26.041410	0.000251	20.689047
1594.440433	-3.013900	3.449900	-10.397000	26.012906	0.000249	20.713990
1595.439335	-3.002900	3.448700	-10.355000	26.005176	0.000248	20.704801
1596.438401	-3.034400	3.446600	-10.457000	25.985159	0.000249	20.710769
1597.442129	-2.996100	3.447600	-10.329000	25.987103	0.000251	20.704187
1598.439736	-2.989900	3.447900	-10.307000	26.011784	0.000248	20.704801
1599.447659	-3.008000	3.446800	-10.367000	26.017234	0.000248	20.691310
1600.438169	-2.965600	3.448800	-10.227000	26.035167	0.000247	20.713123
1601.442018	-2.999200	3.446200	-10.334000	26.018926	0.000247	20.714823
1602.450102	-3.006100	3.446400	-10.359000	26.027868	0.000246	20.716695
1603.444867	-3.006800	3.444700	-10.357000	26.027665	0.000247	20.707008
1604.443609	-2.989900	3.445900	-10.302000	26.005785	0.000247	20.720113
1605.445139	-3.008900	3.444400	-10.363000	26.002880	0.000247	20.703443
1606.443006	-3.019700	3.444300	-10.400000	26.022328	0.000247	20.710654
1607.444109	-2.993300	3.444600	-10.310000	26.071033	0.000244	20.706958
1608.442799	-3.003800	3.444000	-10.344000	26.087354	0.000247	20.701546
1609.444797	-2.981300	3.444600	-10.268000	26.064930	0.000245	20.714577
1610.444765	-3.006800	3.444100	-10.355000	26.054352	0.000244	20.708216
1611.444098	-3.003100	3.443200	-10.339000	26.065605	0.000244	20.699607
1612.446467	-2.995400	3.443200	-10.313000	26.031725	0.000243	20.710612
1613.445630	-3.012600	3.443000	-10.371000	25.992155	0.000246	20.707841
1614.447289	-2.994700	3.444000	-10.313000	25.974067	0.000243	20.698202
1615.449234	-2.997900	3.442100	-10.319000	25.952519	0.000243	20.702632
1616.453563	-2.996900	3.441900	-10.314000	25.980682	0.000244	20.708641
1617.445356	-2.989500	3.440600	-10.285000	26.023800	0.000242	20.706443
1618.447076	-2.996700	3.441600	-10.312000	26.019454	0.000244	20.710138
1619.445039	-3.001800	3.439600	-10.324000	26.013742	0.000243	20.710563
1620.445034	-3.001300	3.439600	-10.322000	26.000203	0.000241	20.725410
1621.449254	-2.986600	3.440200	-10.274000	26.051269	0.000242	20.713179
1622.449007	-3.012200	3.439800	-10.359000	26.024883	0.000240	20.721757
1623.445306	-3.014900	3.438900	-10.366000	26.052059	0.000241	20.705912
1624.449271	-2.987800	3.439300	-10.275000	26.012637	0.000240	20.699020
1625.450107	-3.010100	3.439000	-10.350000	25.987047	0.000240	20.711717
1626.454589	-2.979300	3.439900	-10.247000	25.989756	0.000238	20.721078
1627.449000	-2.975100	3.438800	-10.229000	25.980855	0.000238	20.698858
1628.449973	-3.005800	3.438400	-10.334000	26.008602	0.000239	20.736694
1629.449786	-3.024300	3.436300	-10.391000	26.003907	0.000238	20.721545
1630.446712	-2.996100	3.436300	-10.294000	26.057952	0.000237	20.720368
1631.450636	-3.022800	3.437600	-10.390000	26.014510	0.000238	20.705644
1632.452044	-2.997900	3.437800	-10.306000	26.025567	0.000237	20.723393
1633.447661	-2.967400	3.437200	-10.198000	26.059343	0.000237	20.723663
1634.454415	-3.001600	3.436600	-10.314000	26.088992	0.000235	20.721685
1635.456252	-3.021500	3.434600	-10.377000	26.093988	0.000238	20.734292
1636.451972	-2.986200	3.435400	-10.257000	26.131487	0.000234	20.723132
1637.452190	-2.988000	3.435100	-10.263000	26.142592	0.000238	20.712479
1638.453476	-2.995800	3.434900	-10.289000	26.120707	0.000234	20.716093
1639.450204	-3.033100	3.433500	-10.413000	26.119414	0.000235	20.709103
1640.449820	-3.008300	3.434700	-10.331000	26.102303	0.000237	20.713248
1641.449903	-3.008100	3.434400	-10.329000	26.056333	0.000233	20.725380
1642.451633	-2.995400	3.434700	-10.287000	26.074461	0.000234	20.708980
1643.453516	-2.988600	3.433700	-10.260000	26.057343	0.000233	20.739672
1644.450356	-2.989300	3.433300	-10.262000	26.016359	0.000233	20.753023
1645.454194	-3.021600	3.430900	-10.365000	26.046146	0.000232	20.734586
1646.455556	-2.994400	3.432300	-10.277000	26.031062	0.000231	20.728913
1647.455192	-2.982600	3.430900	-10.232000	26.030947	0.000232	20.729746
1648.455497	-2.973600	3.431800	-10.204000	26.059402	0.000234	20.736051
1649.454260	-2.994600	3.431400	-10.275000	26.032209	0.000230	20.716789
1650.454172	-2.983200	3.431100	-10.235000	26.037326	0.000231	20.730940
1651.459042	-2.997100	3.430800	-10.282000	25.994803	0.000231	20.727572
1652.452565	-2.979800	3.430300	-10.221000	26.016415	0.000230	20.733638
1653.456021	-2.987700	3.428900	-10.244000	26.055780	0.000230	20.706806
1654.463034	-3.019400	3.429100	-10.353000	26.016415	0.000230	20.729370
1655.468588	-3.024900	3.426900	-10.365000	25.980278	0.000228	20.738584
1656.456199	-2.989300	3.428400	-10.248000	26.010360	0.000228	20.710958
1657.456135	-2.985100	3.429900	-10.237000	26.014552	0.000229	20.731292
1658.460298	-2.971100	3.428700	-10.186000	26.005340	0.000231	20.738633
1659.459157	-2.992600	3.427300	-10.255000	25.966291	0.000228	20.722159
1660.452165	-2.990300	3.426600	-10.246000	25.989945	0.000229	20.728854
1661.457259	-2.988400	3.428800	-10.246000	26.030922	0.000227	20.752956
1662.459490	-2.994300	3.427300	-10.261000	26.083728	0.000227	20.717344
1663.452702	-2.989300	3.426200	-10.241000	26.118274	0.000226	20.736409
1664.455268	-3.007200	3.425900	-10.301000	26.066942	0.000226	20.742679
1665.456209	-3.012800	3.426100	-10.322000	26.065754	0.000226	20.745279
1666.459576	-3.010200	3.425500	-10.311000	26.064209	0.000226	20.735665
1667.456275	-3.013600	3.423400	-10.316000	26.123937	0.000226	20.724081
1668.457825	-3.024700	3.423300	-10.353000	26.106673	0.000225	20.713845
1669.466847	-3.014900	3.423400	-10.320000	26.092425	0.000226	20.739360
1670.459528	-3.009500	3.424200	-10.304000	26.137947	0.000224	20.745745
1671.457990	-2.990700	3.425400	-10.243000	26.168203	0.000224	20.741534
1672.454204	-3.017400	3.423500	-10.330000	26.214697	0.000224	20.731830
1673.458680	-3.017900	3.423600	-10.331000	26.205553	0.000223	20.754885
1674.459713	-3.006900	3.422800	-10.291000	26.182132	0.000222	20.744151
1675.459230	-3.015500	3.422100	-10.318000	26.180594	0.000222	20.729329
1676.463740	-2.980600	3.423400	-10.203000	26.189290	0.000225	20.730955
1677.458529	-2.994800	3.422700	-10.249000	26.119184	0.000220	20.755816
1678.462873	-3.008400	3.420600	-10.289000	26.076706	0.000222	20.745851
1679.459509	-3.016500	3.420700	-10.317000	26.060067	0.000221	20.743357
1680.461878	-3.013000	3.420900	-10.307000	26.071693	0.000220	20.737021
1681.460521	-3.007300	3.420500	-10.285000	26.123375	0.000222	20.748647
1682.459936	-2.992100	3.421800	-10.238000	26.142404	0.000220	20.755440
1683.457044	-2.998600	3.421600	-10.259000	26.148661	0.000220	20.738493
1684.459522	-3.011300	3.419900	-10.297000	26.142184	0.000222	20.761383
1685.460937	-2.990300	3.420400	-10.226000	26.088535	0.000219	20.749676
1686.458746	-2.978100	3.421000	-10.187000	26.051352	0.000221	20.745033
1687.459027	-2.996600	3.418200	-10.242000	26.108648	0.000222	20.767516
1688.462564	-3.004800	3.418800	-10.271000	26.142656	0.000219	20.743365
1689.464892	-3.026600	3.417600	-10.342000	26.149018	0.000218	20.753077
1690.461024	-3.000900	3.417300	-10.253000	26.163670	0.000215	20.758791
1691.465362	-2.998400	3.417600	-10.247000	26.161612	0.000218	20.753404
1692.458755	-2.992000	3.417500	-10.225000	26.165834	0.000217	20.739154
1693.458903	-3.008400	3.417700	-10.281000	26.187092	0.000217	20.747713
1694.463254	-2.998700	3.415700	-10.242000	26.138172	0.000217	20.763042
1695.459797	-2.991100	3.416600	-10.218000	26.130150	0.000216	20.746446
1696.464339	-2.996400	3.416200	-10.235000	26.130971	0.000217	20.753436
1697.467476	-3.015100	3.415600	-10.297000	26.105692	0.000217	20.755062
1698.463281	-2.991300	3.415400	-10.216000	26.079210	0.000215	20.741729
1699.461319	-2.995700	3.414000	-10.226000	26.068290	0.000216	20.744507
1700.461178	-2.990700	3.414500	-10.211000	26.078574	0.000215	20.747728
1701.461211	-2.985800	3.413800	-10.192000	26.056167	0.000214	20.756509
1702.464181	-2.991800	3.413800	-10.213000	26.070576	0.000214	20.756762
1703.461057	-3.001100	3.414000	-10.246000	26.108287	0.000217	20.756720
1704.465167	-3.015500	3.412700	-10.290000	26.092714	0.000212	20.755772
1705.461761	-3.007500	3.412900	-10.263000	26.061690	0.000212	20.753524
1706.471651	-3.029200	3.411900	-10.334000	26.059705	0.000212	20.749632
1707.470346	-2.971600	3.413800	-10.144000	26.027499	0.000213	20.743353
1708.464536	-2.974000	3.413400	-10.149000	26.048142	0.000213	20.765516
1709.465810	-2.962700	3.413300	-10.112000	26.051788	0.000212	20.753057
1710.465834	-2.999000	3.412300	-10.232000	26.083462	0.000210	20.762123
1711.466341	-3.011800	3.411000	-10.272000	26.049680	0.000213	20.754259
1712.463959	-3.002300	3.410900	-10.239000	26.048719	0.000210	20.778424
1713.468953	-3.005500	3.409800	-10.248000	26.081330	0.000211	20.778947
1714.464721	-2.992100	3.408900	-10.199000	26.092435	0.000212	20.764027
1715.467771	-2.991900	3.409000	-10.198000	26.101150	0.000211	20.753817
1716.466671	-2.990800	3.409600	-10.197000	26.092215	0.000211	20.759539
1717.464609	-2.998000	3.410000	-10.223000	26.110196	0.000211	20.768123
1718.464953	-3.003300	3.408000	-10.234000	26.134011	0.000208	20.762654
1719.465873	-2.996300	3.408100	-10.211000	26.135507	0.000209	20.756571
1720.469513	-3.029800	3.407600	-10.323000	26.166211	0.000210	20.745223
1721.464028	-2.997900	3.408300	-10.216000	26.189105	0.000209	20.764909
1722.468501	-2.994600	3.407800	-10.204000	26.135815	0.000210	20.751665
1723.467685	-2.989600	3.406300	-10.182000	26.117786	0.000209	20.763420
1724.470541	-2.961000	3.407700	-10.090000	26.100854	0.000208	20.761106
1725.466514	-2.994000	3.406300	-10.197000	26.101221	0.000209	20.751517
1726.470176	-2.988600	3.406700	-10.180000	26.055446	0.000207	20.787554
1727.471420	-3.030700	3.404400	-10.316000	26.034884	0.000204	20.776852
1728.466559	-3.004500	3.405400	-10.230000	26.068195	0.000208	20.784242
1729.472735	-3.005900	3.404700	-10.233000	26.085208	0.000206	20.779999
1730.471691	-2.994000	3.405000	-10.193000	26.071750	0.000208	20.765529
1731.471870	-2.990900	3.403700	-10.179000	26.066909	0.000206	20.785795
1732.470391	-2.973300	3.405900	-10.125000	26.069845	0.000206	20.769779
1733.477262	-2.999700	3.404100	-10.210000	26.072904	0.000204	20.778068
1734.473132	-3.024700	3.403900	-10.295000	26.080333	0.000205	20.789325
1735.470703	-3.022800	3.403000	-10.286000	26.059617	0.000204	20.778943
1736.471257	-2.977300	3.404100	-10.134000	26.117393	0.000203	20.780569
1737.469674	-2.991500	3.403400	-10.180000	26.160309	0.000204	20.777226
1738.473685	-2.995900	3.403200	-10.194000	26.155671	0.000202	20.771617
1739.470739	-3.011100	3.402400	-10.245000	26.184455	0.000201	20.781574
1740.478774	-3.009900	3.400700	-10.235000	26.192029	0.000202	20.777805
1741.474149	-3.014600	3.401200	-10.253000	26.220543	0.000201	20.786544
1742.470895	-2.992800	3.401800	-10.180000	26.229093	0.000203	20.803196
1743.473762	-2.985400	3.400600	-10.151000	26.174285	0.000203	20.793640
1744.470895	-3.008500	3.400200	-10.229000	26.156361	0.000202	20.788431
1745.472930	-3.016500	3.398900	-10.250000	26.142212	0.000201	20.795551
1746.472831	-2.987500	3.400500	-10.158000	26.133840	0.000202	20.799467
1747.472650	-2.985300	3.400300	-10.150000	26.148266	0.000201	20.774607
1748.473907	-3.004800	3.398200	-10.210000	26.189228	0.000201	20.784474
1749.476868	-2.999700	3.400000	-10.197000	26.238772	0.000199	20.774042
1750.479622	-2.984700	3.398900	-10.143000	26.227497	0.000198	20.799696
1751.482796	-3.007800	3.398500	-10.221000	26.187495	0.000199	20.796008
1752.479246	-3.011700	3.398200	-10.233000	26.204806	0.000200	20.783533
1753.475410	-3.003500	3.397400	-10.203000	26.230782	0.000201	20.788773
1754.478406	-3.023000	3.396300	-10.266000	26.258897	0.000202	20.780990
1755.478326	-3.000300	3.397700	-10.193000	26.300742	0.000196	20.777049
1756.478963	-2.992700	3.395400	-10.160000	26.333898	0.000197	20.774335
1757.481825	-2.993000	3.397000	-10.166000	26.347108	0.000198	20.775283
1758.480388	-2.968800	3.396100	-10.081000	26.285302	0.000195	20.788559
1759.483793	-2.994500	3.395500	-10.167000	26.263850	0.000199	20.779329
1760.483502	-2.988300	3.394400	-10.142000	26.265615	0.000197	20.779207
1761.485804	-3.026800	3.394400	-10.274000	26.268282	0.000196	20.790896
1762.488411	-3.006800	3.394600	-10.206000	26.307736	0.000195	20.797355
1763.482839	-3.012900	3.393500	-10.223000	26.268031	0.000196	20.784953
1764.482752	-3.000400	3.392800	-10.178000	26.240608	0.000194	20.783474
1765.484254	-3.010000	3.393200	-10.212000	26.190062	0.000195	20.813761
1766.483209	-3.019300	3.391700	-10.240000	26.109445	0.000195	20.818102
1767.482913	-3.014000	3.393000	-10.226000	26.112748	0.000193	20.789653
1768.483177	-2.976600	3.392300	-10.096000	26.099088	0.000193	20.806273
1769.484933	-2.995300	3.391500	-10.158000	26.147073	0.000194	20.820824
1770.484853	-2.998700	3.392600	-10.173000	26.161213	0.000193	20.816066
1771.484636	-2.995800	3.392100	-10.161000	26.169926	0.000192	20.803485
1772.492074	-3.001200	3.392400	-10.180000	26.179175	0.000192	20.812779
1773.485453	-2.997700	3.391900	-10.167000	26.135609	0.000190	20.802667
1774.486560	-2.982500	3.391400	-10.114000	26.132037	0.000192	20.824207
1775.485431	-3.002600	3.389900	-10.178000	26.159325	0.000191	20.817962
1776.490480	-2.982800	3.390100	-10.112000	26.192444	0.000190	20.797663
1777.483346	-2.991500	3.389700	-10.139000	26.166931	0.000193	20.801424
1778.487886	-3.006600	3.388500	-10.187000	26.158242	0.000192	20.811659
1779.483693	-2.996500	3.389200	-10.155000	26.130881	0.000189	20.812140
1780.487886	-2.996100	3.390300	-10.156000	26.158966	0.000191	20.815231
1781.489108	-3.005900	3.387600	-10.181000	26.150472	0.000191	20.821869
1782.490073	-3.013900	3.388000	-10.210000	26.190931	0.000191	20.783814
1783.497280	-2.979300	3.389000	-10.096000	26.247405	0.000190	20.841038
1784.489272	-3.000200	3.387200	-10.162000	26.301022	0.000189	20.806728
1785.488942	-2.977200	3.388500	-10.087000	26.300965	0.000187	20.796240
1786.490356	-2.985600	3.386500	-10.110000	26.326760	0.000188	20.806991
1787.487309	-3.006900	3.385300	-10.178000	26.281100	0.000186	20.823217
1788.493112	-3.004600	3.385900	-10.171000	26.221031	0.000188	20.805527
1789.492741	-3.023000	3.386200	-10.236000	26.162863	0.000186	20.822466
1790.488430	-3.009500	3.386100	-10.190000	26.136162	0.000188	20.815550
1791.492416	-2.998900	3.385500	-10.152000	26.130475	0.000187	20.825482
1792.497433	-3.021900	3.384500	-10.227000	26.148910	0.000187	20.802755
1793.492105	-3.019000	3.383800	-10.214000	26.226466	0.000186	20.831376
1794.494281	-3.001900	3.383400	-10.156000	26.224522	0.000187	20.821837
1795.493466	-3.009500	3.384400	-10.184000	26.195536	0.000187	20.818788
1796.489132	-3.007300	3.383200	-10.173000	26.255712	0.000184	20.829946
1797.499623	-2.984700	3.384300	-10.100000	26.254475	0.000186	20.824436
1798.492590	-3.010200	3.383200	-10.183000	26.309247	0.000182	20.818314
1799.496834	-2.992100	3.382600	-10.120000	26.337035	0.000185	20.842446
1800.496260	-3.010500	3.382800	-10.183000	26.401490	0.000182	20.827094
1801.492089	-3.003700	3.381600	-10.155000	26.414382	0.000183	20.828197
1802.491616	-3.006900	3.382100	-10.169000	26.405467	0.000183	20.823505
1803.491476	-3.013600	3.382100	-10.191000	26.419043	0.000180	20.824347
1804.491539	-3.021400	3.381700	-10.217000	26.438539	0.000182	20.835881
1805.501015	-2.991800	3.381300	-10.115000	26.433049	0.000182	20.827045
1806.495650	-3.027300	3.379100	-10.228000	26.416789	0.000182	20.828720
1807.491736	-2.988000	3.380300	-10.099000	26.402832	0.000180	20.835080
1808.499839	-2.985900	3.381100	-10.095000	26.371199	0.000179	20.826996
1809.495723	-2.968600	3.380500	-10.034000	26.385457	0.000182	20.836584
1810.497430	-2.988800	3.378300	-10.096000	26.377576	0.000180	20.851896
1811.496289	-2.985800	3.380100	-10.091000	26.335392	0.000179	20.841269
1812.493036	-2.983500	3.380200	-10.084000	26.356085	0.000182	20.829823
1813.497518	-2.978400	3.378300	-10.060000	26.314689	0.000179	20.820463
1814.492683	-2.978000	3.379300	-10.063000	26.285437	0.000178	20.830420
1815.496878	-2.985100	3.378600	-10.085000	26.313721	0.000178	20.827551
1816.495824	-2.974200	3.377600	-10.044000	26.320896	0.000178	20.845666
1817.494287	-3.002400	3.378400	-10.141000	26.325345	0.000177	20.817422
1818.492972	-3.014700	3.374600	-10.172000	26.273251	0.000178	20.858475
1819.500025	-2.977500	3.378300	-10.058000	26.215662	0.000178	20.820046
1820.496693	-2.981400	3.376300	-10.065000	26.225718	0.000177	20.839159
1821.497416	-2.991400	3.376400	-10.099000	26.239010	0.000176	20.822645
1822.498551	-2.981200	3.375600	-10.063000	26.323059	0.000178	20.831720
1823.498955	-3.024900	3.375700	-10.210000	26.359167	0.000177	20.845249
1824.492781	-2.994000	3.375600	-10.105000	26.378730	0.000176	20.846892
1825.500263	-2.999800	3.373900	-10.120000	26.404783	0.000176	20.860748
1826.503406	-2.997000	3.375200	-10.114000	26.377315	0.000174	20.826504
1827.497224	-3.001400	3.373500	-10.125000	26.367537	0.000176	20.855083
1828.498394	-2.986400	3.374300	-10.076000	26.387848	0.000174	20.814806
1829.496665	-3.024900	3.373200	-10.202000	26.401798	0.000174	20.843050
1830.504205	-2.991800	3.373500	-10.091000	26.440766	0.000174	20.834327
1831.501613	-3.007300	3.372200	-10.141000	26.445354	0.000173	20.835145
1832.503933	-3.012800	3.371900	-10.158000	26.408704	0.000173	20.838137
1833.502313	-3.002700	3.371600	-10.123000	26.373849	0.000172	20.842461
1834.501960	-2.963800	3.372100	-9.993400	26.378070	0.000173	20.831531
1835.502477	-3.020000	3.370000	-10.175000	26.406816	0.000171	20.854257
1836.500893	-3.016500	3.370700	-10.167000	26.429126	0.000171	20.842068
1837.503172	-2.992700	3.371500	-10.089000	26.460628	0.000171	20.821100
1838.504404	-2.974800	3.372200	-10.030000	26.490469	0.000171	20.832602
1839.502282	-3.030400	3.370500	-10.213000	26.456895	0.000171	20.844848
1840.503680	-3.011300	3.370300	-10.149000	26.435577	0.000172	20.824844
1841.504142	-3.004600	3.369300	-10.123000	26.394208	0.000167	20.843008
1842.504833	-2.990700	3.370100	-10.078000	26.411233	0.000169	20.836886
1843.499690	-3.010600	3.367800	-10.137000	26.422961	0.000167	20.823544
1844.504731	-3.013700	3.368300	-10.149000	26.435845	0.000167	20.841235
1845.505052	-3.002900	3.368300	-10.113000	26.429818	0.000168	20.801512
1846.506730	-3.011000	3.367800	-10.140000	26.387929	0.000167	20.833378
1847.505742	-3.015500	3.368500	-10.157000	26.379933	0.000168	20.816334
1848.505754	-3.015600	3.365800	-10.149000	26.398063	0.000167	20.821279
1849.506064	-2.998900	3.366600	-10.096000	26.379584	0.000165	20.820724
1850.505359	-2.990100	3.366000	-10.064000	26.415445	0.000166	20.815516
1851.503861	-2.997000	3.366300	-10.088000	26.385301	0.000165	20.825522
1852.507763	-3.022500	3.366100	-10.173000	26.416340	0.000166	20.836329
1853.507761	-3.010400	3.365800	-10.132000	26.372969	0.000166	20.811232
1854.502563	-2.986200	3.365500	-10.049000	26.401121	0.000165	20.809180
1855.505239	-2.997700	3.364700	-10.085000	26.438740	0.000163	20.808583
1856.505757	-2.969500	3.365900	-9.994500	26.447605	0.000163	20.815597
1857.503393	-2.986400	3.364800	-10.048000	26.436853	0.000164	20.809531
1858.507631	-2.990800	3.363900	-10.060000	26.399535	0.000164	20.817543
1859.507821	-2.998800	3.362900	-10.083000	26.394126	0.000164	20.804994
1860.504283	-2.988500	3.362400	-10.047000	26.408408	0.000164	20.811288
1861.506641	-2.986800	3.362600	-10.043000	26.436616	0.000163	20.789379
1862.508400	-2.963900	3.364800	-9.970700	26.471046	0.000162	20.807389
1863.507246	-2.975700	3.363600	-10.008000	26.478447	0.000162	20.810561
1864.510274	-3.001200	3.362100	-10.089000	26.434054	0.000160	20.802451
1865.513447	-2.980100	3.362100	-10.018000	26.407587	0.000162	20.813782
1866.507051	-3.031000	3.359700	-10.183000	26.405008	0.000162	20.810242
1867.505421	-2.999800	3.362200	-10.084000	26.373417	0.000160	20.806465
1868.509073	-2.988100	3.361700	-10.044000	26.380256	0.000159	20.813814
1869.506049	-2.999300	3.360500	-10.077000	26.379907	0.000159	20.800660
1870.509348	-2.993500	3.360700	-10.059000	26.445652	0.000158	20.808893
1871.506886	-3.010600	3.359600	-10.113000	26.444611	0.000158	20.786984
1872.508286	-3.008800	3.360300	-10.110000	26.428107	0.000160	20.804535
1873.512405	-2.997500	3.359900	-10.071000	26.403642	0.000158	20.797015
1874.507040	-3.007700	3.360100	-10.105000	26.356171	0.000160	20.800513
1875.505954	-2.985500	3.358900	-10.027000	26.402617	0.000158	20.803097
1876.506992	-2.988100	3.358100	-10.034000	26.459651	0.000156	20.794039
1877.509428	-3.018600	3.358800	-10.138000	26.510654	0.000158	20.785561
1878.510109	-3.014100	3.358500	-10.122000	26.514053	0.000157	20.814108
1879.510778	-2.998600	3.357800	-10.068000	26.541583	0.000157	20.794840
1880.511748	-3.011900	3.357100	-10.110000	26.534491	0.000156	20.797194
1881.514565	-3.015000	3.356200	-10.119000	26.527383	0.000155	20.779144
1882.511671	-2.990700	3.356800	-10.038000	26.535874	0.000155	20.779618
1883.514565	-2.998400	3.355000	-10.059000	26.575252	0.000155	20.788381
1884.511885	-2.994000	3.355300	-10.045000	26.576675	0.000155	20.780328
1885.510848	-3.001100	3.355700	-10.070000	26.574187	0.000153	20.793474
1886.521686	-2.989600	3.355400	-10.030000	26.534621	0.000156	20.794954
1887.511147	-2.989900	3.355400	-10.032000	26.497754	0.000153	20.777810
1888.515937	-3.018200	3.355900	-10.127000	26.459406	0.000152	20.805173
1889.512816	-3.001500	3.354000	-10.067000	26.461504	0.000153	20.784048
1890.512603	-3.001900	3.353600	-10.066000	26.501520	0.000155	20.783018
1891.511806	-2.997700	3.352900	-10.050000	26.513743	0.000153	20.781554
1892.520803	-2.987000	3.352700	-10.014000	26.542290	0.000154	20.779429
1893.512194	-3.009100	3.353400	-10.089000	26.526821	0.000153	20.786640
1894.515603	-2.997400	3.352900	-10.049000	26.559230	0.000148	20.786974
1895.518529	-3.029800	3.352000	-10.155000	26.532294	0.000152	20.772700
1896.512593	-3.011300	3.350600	-10.089000	26.469792	0.000151	20.763929
1897.517316	-3.025800	3.351400	-10.139000	26.442837	0.000151	20.788045
1898.515903	-2.997400	3.350600	-10.042000	26.500811	0.000151	20.756227
1899.512384	-3.003200	3.352100	-10.065000	26.556822	0.000150	20.800201
1900.516208	-3.002700	3.349100	-10.055000	26.529293	0.000151	20.770632
1901.519366	-3.012600	3.348900	-10.088000	26.543322	0.000149	20.799432
1902.516649	-2.994500	3.349400	-10.029000	26.566938	0.000148	20.787137
1903.521464	-3.025100	3.348300	-10.127000	26.629916	0.000148	20.761777
1904.518586	-3.006100	3.348200	-10.064000	26.621524	0.000147	20.763298
1905.519741	-3.014900	3.348600	-10.095000	26.578796	0.000146	20.767288
1906.521325	-2.989400	3.349000	-10.011000	26.583870	0.000149	20.772863
1907.527125	-3.001400	3.349600	-10.053000	26.604453	0.000147	20.775062
1908.521890	-2.985700	3.348700	-9.996900	26.593751	0.000149	20.787063
1909.524823	-3.008700	3.348300	-10.072000	26.627995	0.000147	20.765063
1910.523205	-3.003300	3.348200	-10.055000	26.602948	0.000147	20.758375
1911.523209	-3.005600	3.347000	-10.059000	26.578064	0.000145	20.770819
1912.521909	-2.998700	3.347300	-10.037000	26.573054	0.000146	20.772895
1913.524789	-3.010000	3.346900	-10.073000	26.634371	0.000146	20.785223
1914.521562	-2.989400	3.346100	-10.002000	26.625263	0.000145	20.767532
1915.523876	-2.989000	3.346100	-10.000000	26.620302	0.000144	20.756380
1916.521569	-2.997700	3.345400	-10.027000	26.628321	0.000141	20.768234
1917.522134	-2.986000	3.345900	-9.990200	26.638551	0.000144	20.760500
1918.521773	-3.003800	3.345100	-10.047000	26.650090	0.000145	20.783955
1919.529592	-3.023600	3.343600	-10.108000	26.637558	0.000143	20.752390
1920.524964	-3.036600	3.344300	-10.154000	26.637241	0.000139	20.766296
1921.524473	-3.006200	3.344300	-10.052000	26.612040	0.000142	20.762773
1922.521196	-2.989700	3.345000	-9.998600	26.539351	0.000143	20.756560
1923.525752	-3.016400	3.342100	-10.079000	26.573215	0.000139	20.757410
1924.526795	-2.976400	3.343900	-9.951100	26.559365	0.000139	20.754867
1925.524913	-3.014000	3.342100	-10.072000	26.556608	0.000140	20.763950
1926.529068	-2.983600	3.342000	-9.970100	26.594969	0.000141	20.767898
1927.522790	-2.998500	3.341400	-10.019000	26.599986	0.000139	20.744492
1928.525128	-2.985000	3.341500	-9.973100	26.614860	0.000138	20.751858
1929.527562	-3.014500	3.340800	-10.070000	26.586454	0.000139	20.770719
1930.527203	-3.024300	3.339600	-10.098000	26.612226	0.000140	20.743045
1931.524684	-3.013800	3.339300	-10.063000	26.681559	0.000138	20.744941
1932.528121	-3.001000	3.339900	-10.022000	26.666442	0.000138	20.734485
1933.524590	-3.012200	3.339800	-10.060000	26.615706	0.000136	20.758398
1934.527146	-3.041200	3.338500	-10.153000	26.578402	0.000137	20.768788
1935.528378	-2.996000	3.339500	-10.004000	26.596001	0.000139	20.764194
1936.522168	-3.016100	3.339200	-10.070000	26.662156	0.000137	20.766687
1937.525881	-2.977700	3.338200	-9.938700	26.657471	0.000137	20.762926
1938.527741	-3.014700	3.337700	-10.062000	26.651486	0.000136	20.764496
1939.526012	-2.994000	3.338200	-9.992700	26.615225	0.000135	20.763604
1940.528504	-3.016200	3.338400	-10.068000	26.617583	0.000136	20.757440
1941.527419	-3.003800	3.337400	-10.024000	26.619641	0.000136	20.765673
1942.525750	-3.004300	3.336500	-10.022000	26.577921	0.000136	20.755502
1943.526780	-2.999000	3.338300	-10.011000	26.604929	0.000136	20.747089
1944.531409	-2.991400	3.337500	-9.982800	26.616615	0.000133	20.759312
1945.531977	-3.005500	3.336500	-10.027000	26.655966	0.000133	20.761413
1946.530376	-2.992200	3.337100	-9.984300	26.631961	0.000132	20.757669
1947.530512	-2.983500	3.335500	-9.950300	26.592372	0.000132	20.763865
1948.528323	-2.985000	3.336400	-9.958400	26.570423	0.000132	20.752706
1949.531270	-2.982800	3.334800	-9.945600	26.553019	0.000130	20.755126
1950.532238	-3.017900	3.334300	-10.061000	26.486011	0.000131	20.756050
1951.533404	-2.999200	3.334300	-9.999100	26.501432	0.000131	20.741677
1952.532310	-2.991500	3.335200	-9.976300	26.516485	0.000130	20.750645
1953.534324	-2.996500	3.334400	-9.990200	26.534752	0.000131	20.753834
1954.533403	-2.988900	3.334600	-9.965600	26.506149	0.000129	20.726503
1955.533408	-3.028700	3.331500	-10.089000	26.521715	0.000130	20.760170
1956.540333	-3.004600	3.331300	-10.008000	26.587216	0.000131	20.735921
1957.534875	-2.992800	3.333000	-9.974500	26.669855	0.000127	20.745028
1958.535986	-3.023100	3.330600	-10.068000	26.661382	0.000128	20.747891
1959.536538	-3.004500	3.331400	-10.007000	26.668928	0.000127	20.735088
1960.533202	-2.996400	3.330700	-9.980000	26.639067	0.000128	20.746795
1961.536170	-2.981200	3.331500	-9.931400	26.617346	0.000127	20.728277
1962.540578	-3.006800	3.330500	-10.013000	26.599926	0.000127	20.736371
1963.537368	-3.007300	3.330200	-10.014000	26.571122	0.000127	20.740606
1964.531953	-2.986400	3.331200	-9.946600	26.608539	0.000127	20.721794
1965.538296	-3.015000	3.330700	-10.040000	26.635497	0.000125	20.723290
1966.536325	-3.020200	3.328900	-10.053000	26.644011	0.000125	20.751291
1967.544514	-3.018200	3.328600	-10.044000	26.628618	0.000125	20.725857
1968.536485	-3.007900	3.328400	-10.011000	26.693461	0.000125	20.736518
1969.535269	-3.019200	3.327900	-10.047000	26.770059	0.000124	20.719170
1970.537605	-2.993700	3.329600	-9.966400	26.776888	0.000125	20.714182
1971.533559	-3.019400	3.327600	-10.047000	26.761033	0.000125	20.740916
1972.539764	-2.977900	3.328800	-9.911500	26.752641	0.000124	20.734376
1973.535452	-2.998000	3.326900	-9.972000	26.739509	0.000122	20.728285
1974.539260	-2.976900	3.328300	-9.906800	26.713375	0.000121	20.736624
1975.539930	-3.018700	3.325800	-10.038000	26.678970	0.000122	20.732855
1976.544285	-2.997400	3.325900	-9.968300	26.668911	0.000124	20.739338
1977.541674	-3.006100	3.326100	-9.997700	26.730800	0.000123	20.743238
1978.542989	-2.987700	3.325300	-9.933700	26.754779	0.000122	20.718507
1979.540317	-3.019700	3.325000	-10.040000	26.729061	0.000122	20.735324
1980.537579	-2.987900	3.324100	-9.930600	26.711041	0.000121	20.741864
1981.540676	-3.014700	3.325100	-10.023000	26.698331	0.000121	20.749950
1982.537907	-2.992200	3.324200	-9.946000	26.682890	0.000119	20.733476
1983.547324	-3.026200	3.322800	-10.055000	26.713228	0.000119	20.718932
1984.539171	-3.020300	3.323400	-10.037000	26.767667	0.000121	20.747112
1985.544014	-2.983500	3.324100	-9.916500	26.774692	0.000117	20.739002
1986.540066	-2.994000	3.322000	-9.945000	26.778091	0.000120	20.720607
1987.543082	-2.991600	3.322500	-9.938900	26.768390	0.000117	20.721286
1988.542560	-2.981500	3.320900	-9.900000	26.796784	0.000117	20.717590
1989.545886	-2.982900	3.322700	-9.910700	26.778839	0.000118	20.708082
1990.546721	-2.967600	3.323500	-9.861400	26.787279	0.000118	20.724155
1991.541996	-3.007300	3.321400	-9.987700	26.815533	0.000116	20.735494
1992.543775	-2.978100	3.321100	-9.890300	26.827469	0.000117	20.728055
1993.542949	-2.997700	3.321300	-9.955300	26.847031	0.000115	20.734448
1994.550708	-3.016800	3.319200	-10.013000	26.904585	0.000116	20.731153
1995.545528	-2.990000	3.320300	-9.927300	26.895252	0.000115	20.733622
1996.558064	-3.000200	3.319800	-9.958300	26.890284	0.000114	20.733843
1997.541917	-2.994500	3.319600	-9.940100	26.896495	0.000113	20.726337
1998.547608	-2.998200	3.318300	-9.947700	26.903893	0.000115	20.721448
1999.544773	-2.999700	3.319500	-9.956900	26.932413	0.000114	20.724048
2000.552980	-3.023100	3.317100	-10.027000	26.994247	0.000113	20.716053
2001.544437	-2.995700	3.317900	-9.938200	26.996043	0.000114	20.711220
2002.543196	-2.992000	3.317500	-9.924500	26.925917	0.000111	20.732689
2003.545055	-2.974600	3.317000	-9.865900	26.815719	0.000112	20.718136
2004.543954	-3.005200	3.316700	-9.966800	26.838281	0.000112	20.721856
2005.547062	-3.024600	3.316500	-10.030000	26.765234	0.000111	20.708628
2006.544929	-3.020500	3.315500	-10.014000	26.773276	0.000112	20.711498
2007.547482	-3.009800	3.314900	-9.976300	26.784333	0.000110	20.703648
2008.551945	-2.988900	3.315400	-9.908300	26.785894	0.000110	20.709486
2009.548157	-2.978800	3.315200	-9.874600	26.800497	0.000108	20.729385
2010.551511	-2.998900	3.315200	-9.941000	26.856533	0.000110	20.707017
2011.553424	-2.975300	3.314900	-9.862100	26.768453	0.000109	20.706174
2012.551579	-2.998300	3.314800	-9.937600	26.797692	0.000109	20.708071
2013.548518	-2.989000	3.312700	-9.899400	26.826214	0.000108	20.688858
2014.551316	-2.985200	3.314100	-9.892400	26.850272	0.000107	20.723481
2015.548713	-2.993600	3.314800	-9.922800	26.871419	0.000106	20.712501
2016.555467	-3.020000	3.311600	-10.000000	26.839499	0.000106	20.719761
2017.550776	-2.983800	3.312100	-9.881900	26.774330	0.000107	20.713506
2018.549165	-2.999200	3.311800	-9.932200	26.779916	0.000104	20.711536
2019.556621	-3.012000	3.310500	-9.970300	26.783615	0.000104	20.694391
2020.550830	-2.997800	3.311300	-9.924900	26.794071	0.000105	20.678824
2021.559056	-2.987200	3.310900	-9.890100	26.884833	0.000106	20.688529
2022.551384	-3.008000	3.311100	-9.959700	26.926214	0.000105	20.714495
2023.552960	-3.001400	3.311400	-9.938500	26.923678	0.000106	20.701038
2024.553986	-3.005300	3.311100	-9.950400	26.930011	0.000102	20.713097
2025.554338	-3.004900	3.309000	-9.942300	26.974976	0.000103	20.710423
2026.558378	-2.996300	3.310600	-9.918900	26.896710	0.000104	20.704741
2027.551746	-3.006100	3.309500	-9.947800	26.845538	0.000101	20.705444
2028.554905	-2.991100	3.308800	-9.896400	26.867620	0.000102	20.701569
2029.552000	-2.990400	3.309100	-9.894600	26.839285	0.000102	20.686353
2030.555285	-3.007100	3.307000	-9.943500	26.821739	0.000101	20.711387
2031.551174	-2.991100	3.306800	-9.890200	26.832537	0.000101	20.696164
2032.560084	-3.003300	3.308100	-9.934700	26.858246	0.000102	20.690245
2033.555443	-3.012200	3.306800	-9.960000	26.878278	9.849572E-5	20.685257
2034.555584	-2.983500	3.306800	-9.864600	26.881628	9.905676E-5	20.685306
2035.560021	-2.999700	3.306300	-9.917300	26.937026	0.000102	20.701658
2036.561718	-3.008800	3.307400	-9.949800	26.966074	9.866073E-5	20.677761
2037.561444	-3.018700	3.305900	-9.979500	27.022222	0.000101	20.698191
2038.553860	-2.984900	3.306700	-9.869300	27.028051	9.922178E-5	20.673230
2039.558429	-3.010600	3.305400	-9.950400	26.992413	0.000101	20.696663
2040.557586	-3.024700	3.303300	-9.990900	26.979584	9.753865E-5	20.699410
2041.558287	-3.015600	3.303300	-9.959500	27.005671	9.922178E-5	20.677277
2042.557165	-3.010100	3.304000	-9.944700	27.001997	9.595454E-5	20.696343
2043.558389	-3.031700	3.303300	-10.014000	27.012761	9.793468E-5	20.659749
2044.556101	-3.012700	3.302900	-9.950200	26.958765	9.598754E-5	20.688904
2045.560358	-3.013400	3.301300	-9.947400	26.925335	9.644957E-5	20.666191
2046.557664	-3.012900	3.302200	-9.948100	26.913043	9.516248E-5	20.698879
2047.557835	-3.000500	3.302500	-9.908100	26.925555	9.437042E-5	20.697709
2048.559804	-2.997100	3.301500	-9.894400	26.946246	9.466744E-5	20.684375
2049.561574	-3.003500	3.299800	-9.910100	26.928506	9.437042E-5	20.696884
2050.561982	-3.018300	3.300100	-9.958900	26.952668	9.479945E-5	20.685618
2051.559534	-3.019900	3.300600	-9.966600	26.988877	9.516248E-5	20.676984
2052.562135	-2.998000	3.301200	-9.896100	26.980553	9.394139E-5	20.679045
2053.567506	-3.000600	3.298200	-9.895700	27.022378	9.473345E-5	20.707357
2054.559168	-3.003600	3.299700	-9.909800	27.033466	9.229127E-5	20.670615
2055.560476	-2.998700	3.297800	-9.888100	26.971448	9.215926E-5	20.708298
2056.563769	-2.997200	3.298100	-9.883800	27.010160	9.219226E-5	20.671360
2057.563716	-2.991700	3.297600	-9.864800	26.999267	9.182924E-5	20.670362
2058.569029	-2.992000	3.299400	-9.871100	26.940523	9.202725E-5	20.692372
2059.563093	-2.978300	3.298600	-9.822500	26.912353	9.090517E-5	20.680640
2060.559717	-3.004000	3.297200	-9.904200	26.914012	8.968408E-5	20.671875
2061.561693	-3.023400	3.296400	-9.965800	26.893582	9.143321E-5	20.685946
2062.563430	-2.991800	3.296500	-9.861200	26.957239	9.126819E-5	20.694008
2063.561556	-3.013800	3.295000	-9.930100	26.955995	8.938706E-5	20.703664
2064.567233	-2.965800	3.296600	-9.775800	26.972254	9.041013E-5	20.686821
2065.562020	-2.991900	3.296000	-9.859900	27.022519	9.196124E-5	20.686160
2066.565281	-3.002300	3.293500	-9.886300	27.067292	9.031112E-5	20.686143
2067.563240	-3.000700	3.294500	-9.884900	27.077560	8.813297E-5	20.674656
2068.563200	-2.992800	3.295500	-9.861900	27.057555	8.806696E-5	20.703852
2069.567347	-2.968800	3.294500	-9.779600	27.055352	8.664786E-5	20.691678
2070.565157	-2.999500	3.293700	-9.878800	27.103912	8.707689E-5	20.685040
2071.566280	-2.989400	3.293300	-9.844100	27.141117	8.635083E-5	20.695906
2072.565513	-3.020200	3.294100	-9.947300	27.179042	8.476672E-5	20.685686
2073.565575	-3.001800	3.292100	-9.881700	27.204498	8.635083E-5	20.689953
2074.569850	-3.005300	3.293000	-9.895500	27.162014	8.437069E-5	20.702226
2075.566217	-2.987800	3.294500	-9.843100	27.092736	8.506374E-5	20.675695
2076.567107	-2.984400	3.293300	-9.827800	27.061375	8.470071E-5	20.687305
2077.566381	-2.998800	3.291100	-9.868800	27.052938	8.611982E-5	20.692096
2078.564605	-3.025500	3.290200	-9.952600	27.065025	8.407367E-5	20.720375
2079.572639	-3.004200	3.290700	-9.885500	27.081470	8.321561E-5	20.686651
2080.571233	-2.982200	3.289100	-9.807700	27.055214	8.377665E-5	20.703395
2081.566772	-3.014000	3.289100	-9.912100	27.058563	8.156549E-5	20.693486
2082.566913	-3.040800	3.289500	-10.001000	27.136679	8.311660E-5	20.687174
2083.567715	-3.013900	3.289200	-9.912400	27.187447	8.344662E-5	20.706469
2084.568046	-2.994200	3.289600	-9.849300	27.237245	8.268757E-5	20.687329
2085.570516	-2.993000	3.289000	-9.843600	27.220128	8.123546E-5	20.695717
2086.568231	-3.015600	3.287100	-9.911300	27.226151	8.324861E-5	20.685179
2087.567484	-3.014000	3.286200	-9.903400	27.173483	8.163149E-5	20.685310
2088.570380	-3.005700	3.287400	-9.880500	27.163509	8.123546E-5	20.679546
2089.571603	-2.984100	3.288700	-9.812800	27.156340	7.892529E-5	20.705054
2090.573019	-3.007300	3.285800	-9.880300	27.138157	7.823224E-5	20.688661
2091.573694	-3.002200	3.286800	-9.866700	27.179887	8.103745E-5	20.689855
2092.571340	-2.988400	3.286400	-9.819600	27.225118	8.123546E-5	20.700263
2093.571372	-3.002900	3.285400	-9.865000	27.213609	7.734118E-5	20.700066
2094.570592	-2.994500	3.285500	-9.837800	27.219274	7.684614E-5	20.713351
2095.570253	-3.001900	3.284800	-9.859200	27.208578	7.872728E-5	20.696902
2096.572776	-2.982200	3.285900	-9.798100	27.193119	7.648311E-5	20.710752
2097.571096	-2.987800	3.284400	-9.812500	27.177709	7.559205E-5	20.684344
2098.569735	-2.988600	3.284100	-9.813800	27.205302	7.839725E-5	20.704514
2099.574169	-3.003900	3.285200	-9.866100	27.208236	7.499800E-5	20.688023
2100.571179	-2.997900	3.282800	-9.840200	27.220786	7.654912E-5	20.705863
2101.574594	-3.005500	3.282000	-9.863700	27.259374	7.423895E-5	20.693468
2102.569694	-3.008000	3.283100	-9.874700	27.223419	7.476699E-5	20.704244
2103.571583	-3.020700	3.281300	-9.910700	27.231538	7.651612E-5	20.701030
2104.575062	-2.987100	3.282700	-9.804900	27.233374	7.486600E-5	20.685333
2105.570576	-2.990600	3.281800	-9.812000	27.200750	7.420595E-5	20.692822
2106.573012	-2.995600	3.280400	-9.825900	27.178374	7.324888E-5	20.705404
2107.572747	-3.016200	3.279600	-9.891100	27.184632	7.347989E-5	20.716915
2108.574509	-2.992600	3.280100	-9.813800	27.184470	7.407394E-5	20.700630
2109.570153	-3.019600	3.280200	-9.904100	27.177602	7.206079E-5	20.701308
2110.577559	-3.008500	3.278900	-9.863900	27.166149	7.265483E-5	20.712549
2111.576689	-2.984700	3.280100	-9.789500	27.189891	7.192878E-5	20.712721
2112.579764	-2.988400	3.279000	-9.798200	27.194231	7.176377E-5	20.707603
2113.574261	-2.992800	3.280200	-9.816100	27.213835	7.166476E-5	20.697923
2114.571140	-2.989600	3.277600	-9.797400	27.266363	7.196178E-5	20.692910
2115.578814	-2.996000	3.277400	-9.818200	27.313028	7.136774E-5	20.706188
2116.572615	-2.997700	3.276900	-9.822300	27.342228	7.156575E-5	20.702370
2117.575409	-2.995500	3.277000	-9.815500	27.403055	7.090571E-5	20.703817
2118.574640	-2.986100	3.276400	-9.782500	27.412034	7.235781E-5	20.711429
2119.570851	-3.003000	3.275400	-9.835100	27.399096	6.942060E-5	20.698886
2120.576735	-3.007300	3.275400	-9.849500	27.368428	6.988263E-5	20.700751
2121.576408	-2.990800	3.275700	-9.796000	27.387208	7.060868E-5	20.729128
2122.581614	-2.965900	3.277300	-9.719700	27.344348	6.918958E-5	20.705451
2123.572658	-2.987800	3.275700	-9.786800	27.263647	6.833152E-5	20.708672
2124.572400	-3.003200	3.274700	-9.833800	27.210550	6.882655E-5	20.721173
2125.573228	-3.014200	3.272900	-9.863600	27.177925	6.763847E-5	20.710169
2126.575444	-3.009200	3.273700	-9.850700	27.179933	6.780348E-5	20.701282
2127.574688	-2.992300	3.274700	-9.798100	27.238363	6.806750E-5	20.723544
2128.580664	-3.009900	3.272500	-9.849200	27.267589	6.651638E-5	20.694144
2129.573464	-3.007600	3.272000	-9.840500	27.277886	6.823251E-5	20.692648
2130.577460	-3.003200	3.271500	-9.824100	27.288330	6.470125E-5	20.710267
2131.577272	-3.012400	3.270700	-9.851900	27.293864	6.555931E-5	20.708247
2132.573049	-3.015100	3.271000	-9.861600	27.248221	6.625236E-5	20.705009
2133.579221	-2.984800	3.270500	-9.759500	27.211249	6.615336E-5	20.711918
2134.577912	-3.025200	3.269600	-9.889800	27.215646	6.592234E-5	20.724402
2135.577631	-2.982100	3.271100	-9.753900	27.208421	6.506428E-5	20.701012
2136.575352	-3.008700	3.270600	-9.838800	27.224976	6.539430E-5	20.711501
2137.580651	-3.009200	3.269300	-9.837200	27.247872	6.341416E-5	20.708926
2138.579714	-3.004500	3.267400	-9.815900	27.311857	6.453624E-5	20.729193
2139.578184	-2.987400	3.268200	-9.761900	27.335376	6.192905E-5	20.718237
2140.580716	-2.993300	3.269500	-9.785400	27.362690	6.229207E-5	20.702565
2141.576304	-2.984900	3.266300	-9.748000	27.366688	6.384319E-5	20.729822
2142.581916	-3.003700	3.266800	-9.810900	27.366761	6.407421E-5	20.709506
2143.590458	-2.965500	3.268100	-9.690800	27.335351	6.192905E-5	20.691184
2144.581329	-2.996700	3.266400	-9.786300	27.315481	5.981689E-5	20.730942
2145.580174	-2.989800	3.267000	-9.766900	27.280202	6.384319E-5	20.722006
2146.581809	-2.997700	3.264500	-9.785100	27.253829	5.951987E-5	20.727247
2147.584215	-2.990700	3.264800	-9.763300	27.215792	5.965188E-5	20.743516
2148.582448	-2.984300	3.265800	-9.745500	27.206372	6.057595E-5	20.720289
2149.586928	-2.997500	3.264100	-9.783400	27.239597	6.146701E-5	20.714828
2150.580745	-2.983000	3.265000	-9.738400	27.323331	6.074096E-5	20.733623
2151.585003	-3.000700	3.264300	-9.794300	27.367061	5.928885E-5	20.720714
2152.588034	-3.017000	3.263000	-9.843300	27.331629	5.965188E-5	20.734384
2153.586113	-2.989400	3.262300	-9.751400	27.340073	6.034493E-5	20.737662
2154.588221	-2.991000	3.263400	-9.759400	27.366314	5.922285E-5	20.717591
2155.585517	-3.000600	3.262700	-9.788900	27.431064	5.965188E-5	20.705442
2156.586903	-2.981900	3.261600	-9.724600	27.495858	5.839779E-5	20.718948
2157.585339	-2.991300	3.261100	-9.753600	27.525963	5.777074E-5	20.749713
2158.586645	-2.968100	3.261700	-9.680600	27.463974	5.862881E-5	20.711051
2159.587256	-2.987000	3.259800	-9.736400	27.495331	5.707769E-5	20.730272
2160.587646	-2.989900	3.260200	-9.746200	27.477918	5.625263E-5	20.710855
2161.582196	-3.001300	3.259400	-9.781700	27.450826	5.714370E-5	20.729119
2162.590921	-3.001500	3.258400	-9.778200	27.448697	5.760573E-5	20.727451
2163.585032	-3.010200	3.258600	-9.807700	27.377821	5.559258E-5	20.726323
2164.588491	-3.002500	3.258900	-9.784200	27.374571	5.499854E-5	20.738227
2165.586515	-2.987900	3.258400	-9.734100	27.405378	5.486653E-5	20.714215
2166.583917	-3.004700	3.257500	-9.787200	27.426164	5.483353E-5	20.719480
2167.587686	-3.055000	3.255100	-9.942700	27.415739	5.324941E-5	20.734597
2168.588400	-2.999500	3.255600	-9.764500	27.377383	5.308440E-5	20.740582
2169.588185	-2.986700	3.259100	-9.731900	27.468664	5.447050E-5	20.737108
2170.595413	-2.996100	3.256000	-9.754300	27.507537	5.348043E-5	20.740656
2171.595860	-2.998200	3.254700	-9.756700	27.525706	5.480053E-5	20.736177
2172.586842	-3.012800	3.254700	-9.804800	27.538608	5.262237E-5	20.739201
2173.598075	-3.013900	3.254800	-9.808300	27.497332	5.196232E-5	20.723750
2174.594716	-3.014100	3.254800	-9.809600	27.467235	5.453651E-5	20.747999
2175.597136	-2.978600	3.254300	-9.691700	27.454640	5.423948E-5	20.749552
2176.592524	-2.998800	3.253700	-9.756600	27.469819	5.255636E-5	20.730209
2177.592750	-2.999000	3.252300	-9.752400	27.498730	4.909111E-5	20.736537
2178.594577	-2.991500	3.253200	-9.731300	27.456851	5.245735E-5	20.752251
2179.589185	-3.015100	3.252100	-9.805100	27.416058	5.258936E-5	20.751514
2180.596927	-3.009500	3.250800	-9.782300	27.445726	5.047721E-5	20.732523
2181.592461	-2.963200	3.253300	-9.639100	27.478936	5.166530E-5	20.731795
2182.596492	-2.991500	3.250400	-9.722400	27.517581	5.008118E-5	20.750763
2183.595143	-2.971000	3.251600	-9.659000	27.512950	4.879409E-5	20.750370
2184.597317	-2.963000	3.251300	-9.632300	27.505011	5.103825E-5	20.748547
2185.596788	-2.992600	3.248900	-9.722100	27.510618	4.856307E-5	20.743282
2186.597848	-2.976800	3.249600	-9.672600	27.479684	4.981716E-5	20.747247
2187.602132	-2.972200	3.247700	-9.651900	27.399017	4.773801E-5	20.735793
2188.600031	-3.011100	3.249500	-9.783800	27.455347	4.800203E-5	20.748841
2189.601867	-3.002400	3.247600	-9.749600	27.436649	4.631890E-5	20.758006
2190.602390	-3.010000	3.246700	-9.771400	27.425216	4.645091E-5	20.753141
2191.600791	-2.984400	3.247200	-9.690000	27.442654	4.839806E-5	20.746977
2192.598154	-2.981500	3.248000	-9.682500	27.483877	4.697895E-5	20.760949
2193.604928	-2.963700	3.247100	-9.622700	27.529346	4.605488E-5	20.745056
2194.599881	-2.982200	3.246800	-9.682000	27.506457	4.549384E-5	20.753321
2195.605812	-2.976600	3.244600	-9.657500	27.461189	4.427275E-5	20.757564
2196.598093	-2.962000	3.246400	-9.613800	27.437502	4.757300E-5	20.759337
2197.601898	-2.980600	3.246100	-9.674300	27.395652	4.453677E-5	20.749478
2198.604672	-3.007800	3.243500	-9.755300	27.403592	4.440476E-5	20.766949
2199.602810	-2.987900	3.245000	-9.694500	27.424923	4.506481E-5	20.767071
2200.604108	-2.993900	3.244200	-9.712000	27.513778	4.433876E-5	20.755470
2201.603494	-3.014800	3.244000	-9.778100	27.552934	4.447077E-5	20.760254
2202.602458	-3.000700	3.242100	-9.728100	27.615763	4.588987E-5	20.742864
2203.599928	-2.997700	3.242200	-9.718000	27.589276	4.552685E-5	20.755569
2204.606830	-2.990600	3.244400	-9.701600	27.623075	4.555985E-5	20.774405
2205.600877	-2.955900	3.242900	-9.585400	27.651510	4.569186E-5	20.763188
2206.606516	-2.982200	3.241600	-9.665900	27.604510	4.209459E-5	20.754301
2207.606905	-2.973500	3.241200	-9.637000	27.572214	4.328268E-5	20.766850
2208.603605	-3.002800	3.240000	-9.727800	27.516564	4.384372E-5	20.739307
2209.609406	-2.967200	3.242800	-9.621800	27.565494	4.242462E-5	20.773840
2210.610337	-2.996700	3.239300	-9.706600	27.579388	4.532883E-5	20.743722
2211.605110	-2.985000	3.240000	-9.669700	27.619670	4.249062E-5	20.761021
2212.602957	-2.991700	3.238000	-9.686400	27.679384	4.351370E-5	20.750459
2213.613747	-2.996400	3.237300	-9.699200	27.710954	4.272164E-5	20.766580
2214.602802	-2.996200	3.238300	-9.701600	27.719289	4.245762E-5	20.779710
2215.605666	-2.987000	3.237600	-9.668800	27.729184	4.272164E-5	20.771649
2216.611481	-3.002200	3.237300	-9.718200	27.775285	4.163256E-5	20.763514
2217.613296	-2.998200	3.235300	-9.699200	27.772986	4.070849E-5	20.779693
2218.608739	-2.963800	3.236900	-9.592700	27.758250	3.965241E-5	20.776243
2219.612253	-2.982400	3.235200	-9.647000	27.751280	3.922338E-5	20.779186
2220.608353	-2.968500	3.235200	-9.602600	27.742287	3.948740E-5	20.771084
2221.607551	-2.978800	3.234200	-9.633000	27.691497	3.862934E-5	20.783036
2222.609160	-3.013100	3.233400	-9.741600	27.620872	3.958641E-5	20.755592
2223.606606	-2.999200	3.235300	-9.702300	27.609513	4.113752E-5	20.771190
2224.610354	-3.008800	3.233600	-9.728400	27.593687	3.853033E-5	20.762851
2225.607788	-3.003500	3.234200	-9.712600	27.660112	3.879435E-5	20.782749
2226.611684	-3.007600	3.233000	-9.723000	27.680357	3.902537E-5	20.776568
2227.613707	-3.014400	3.231300	-9.739300	27.671941	4.037847E-5	20.781376
2228.609123	-3.018100	3.231700	-9.752800	27.614509	3.559312E-5	20.784278
2229.614784	-2.992800	3.231100	-9.669500	27.630580	3.763927E-5	20.771524
2230.613153	-2.981900	3.231600	-9.635000	27.673663	3.770527E-5	20.776944
2231.610514	-3.009100	3.231500	-9.723500	27.750271	3.994944E-5	20.783386
2232.609993	-2.983900	3.231900	-9.642700	27.759296	3.932239E-5	20.791521
2233.613448	-2.994200	3.229200	-9.667800	27.754463	3.968542E-5	20.786182
2234.609650	-3.010900	3.229000	-9.720800	27.740205	3.763927E-5	20.770886
2235.612633	-3.000500	3.228700	-9.687200	27.740977	4.014745E-5	20.789681
2236.612931	-2.978000	3.229000	-9.614000	27.782147	3.701222E-5	20.777058
2237.612116	-3.003100	3.227500	-9.690400	27.812649	3.671520E-5	20.791634
2238.611690	-2.976700	3.229200	-9.612200	27.758369	3.694622E-5	20.795803
2239.614799	-2.979600	3.227400	-9.615900	27.703769	3.407501E-5	20.777368
2240.610083	-2.990500	3.225400	-9.644200	27.749327	3.671520E-5	20.774376
2241.613745	-2.997700	3.226400	-9.669900	27.698691	3.605515E-5	20.790750
2242.623116	-2.989800	3.225300	-9.642300	27.685969	3.509808E-5	20.798337
2243.611913	-2.997500	3.224600	-9.665700	27.700600	3.427302E-5	20.790301
2244.614503	-3.030300	3.224700	-9.770600	27.655763	3.278791E-5	20.774580
2245.611109	-2.994800	3.223600	-9.653000	27.608153	3.447103E-5	20.777408
2246.615223	-3.023000	3.224000	-9.745400	27.644437	3.424002E-5	20.796374
2247.615391	-3.007800	3.224100	-9.697100	27.668818	3.278791E-5	20.794829
2248.617157	-3.013000	3.222900	-9.709900	27.714297	3.565912E-5	20.777531
2249.617412	-2.981000	3.222800	-9.605700	27.751722	3.443803E-5	20.779157
2250.617195	-3.002500	3.221700	-9.671700	27.763704	3.453704E-5	20.792638
2251.616728	-3.022000	3.221900	-9.736000	27.722412	3.377798E-5	20.784749
2252.616749	-3.007700	3.220100	-9.684600	27.673855	3.318394E-5	20.798001
2253.618745	-2.997800	3.219900	-9.652100	27.597720	3.315094E-5	20.798679
2254.613397	-2.997900	3.219100	-9.649600	27.591025	3.364597E-5	20.795736
2255.616618	-2.978900	3.220600	-9.592700	27.661733	3.460304E-5	20.807140
2256.615208	-2.984000	3.218900	-9.604600	27.689014	3.140181E-5	20.781961
2257.619377	-3.024600	3.218300	-9.732900	27.757514	3.496607E-5	20.804426
2258.614923	-2.988700	3.220700	-9.625000	27.799593	2.978469E-5	20.800780
2259.621626	-3.014900	3.218200	-9.702200	27.854870	3.202886E-5	20.808521
2260.625693	-3.014700	3.216700	-9.696800	27.859678	3.143481E-5	20.798188
2261.621989	-3.021200	3.216200	-9.716200	27.896328	3.206186E-5	20.807573
2262.620025	-2.997200	3.217000	-9.640800	27.934096	3.186384E-5	20.811447
2263.616745	-3.016400	3.215300	-9.698100	27.924520	3.054375E-5	20.800387
2264.625645	-2.984600	3.216000	-9.597100	27.869880	3.054375E-5	20.804662
2265.624699	-3.023000	3.214300	-9.715700	27.836471	2.985070E-5	20.786685
2266.627059	-3.004000	3.214200	-9.654800	27.870619	3.031273E-5	20.809199
2267.623217	-3.007100	3.214500	-9.665800	27.814262	2.955367E-5	20.802741
2268.624068	-3.006100	3.213500	-9.659500	27.838412	2.879462E-5	20.820407
2269.620646	-3.005400	3.213400	-9.656300	27.857907	2.965268E-5	20.798302
2270.622932	-3.029100	3.211600	-9.727200	27.833603	2.859660E-5	20.822205
2271.628349	-3.005600	3.212700	-9.655500	27.859345	2.823358E-5	20.815395
2272.620390	-3.002200	3.212400	-9.643800	27.911962	2.790355E-5	20.828524
2273.626202	-3.007900	3.213200	-9.663600	27.908657	2.767254E-5	20.791059
2274.624222	-2.990500	3.211700	-9.603700	27.954482	2.826658E-5	20.818216
2275.623428	-2.984800	3.210700	-9.582700	27.944094	2.872861E-5	20.812027
2276.627648	-3.012800	3.209500	-9.668700	27.868320	2.839859E-5	20.801196
2277.623891	-3.006600	3.210100	-9.650000	27.802418	2.648445E-5	20.814529
2278.623476	-2.981400	3.211900	-9.574500	27.766432	2.958668E-5	20.811504
2279.623572	-2.992300	3.209800	-9.603400	27.770729	2.592341E-5	20.815828
2280.623694	-3.032300	3.207100	-9.723600	27.769503	2.711149E-5	20.819336
2281.623889	-2.984900	3.208000	-9.574100	27.766066	2.532936E-5	20.832472
2282.631203	-3.006900	3.206900	-9.642100	27.768893	2.737551E-5	20.814929
2283.627358	-2.997200	3.206700	-9.610100	27.834082	2.727651E-5	20.816523
2284.628336	-2.996500	3.206800	-9.608000	27.917071	2.674847E-5	20.820390
2285.628483	-3.016600	3.203900	-9.664300	27.965122	2.572539E-5	20.812330
2286.626844	-3.014300	3.205000	-9.659300	28.014217	2.631944E-5	20.825712
2287.628787	-3.016000	3.206200	-9.669600	28.034545	2.602241E-5	20.819621
2288.628570	-3.009900	3.205500	-9.647600	28.044267	2.664946E-5	20.827036
2289.628109	-3.000300	3.203200	-9.609800	27.980943	2.678147E-5	20.835366
2290.629000	-3.012800	3.204100	-9.652500	27.997804	2.410827E-5	20.823889
2291.626028	-3.011100	3.205000	-9.649700	27.954392	2.579140E-5	20.823815
2292.627383	-3.011800	3.201000	-9.638800	27.888098	2.351423E-5	20.822049
2293.629689	-2.993700	3.204000	-9.591000	27.826503	2.265617E-5	20.829758
2294.632042	-2.969700	3.203900	-9.514100	27.851002	2.094004E-5	20.816956
2295.633681	-3.008100	3.201300	-9.628400	27.870830	2.331622E-5	20.835489
2296.630421	-2.992800	3.200200	-9.577000	27.821442	2.202912E-5	20.833674
2297.632811	-2.982800	3.199700	-9.543000	27.868181	2.232614E-5	20.837091
2298.633922	-2.993900	3.204100	-9.591500	27.956577	2.410827E-5	20.813686
2299.630652	-3.015000	3.198500	-9.643000	27.993742	2.321721E-5	20.808421
2300.630444	-3.002500	3.198100	-9.602000	28.013454	2.400927E-5	20.830158
2301.629769	-3.013900	3.197600	-9.636400	28.042309	2.318421E-5	20.830281
2302.631559	-3.008800	3.196100	-9.616000	28.029225	2.328321E-5	20.811421
2303.637587	-2.990600	3.196700	-9.559400	27.956162	2.160009E-5	20.822278
2304.635970	-3.000000	3.195700	-9.586500	27.931837	2.199612E-5	20.811070
2305.632433	-2.988500	3.196900	-9.553100	27.935759	2.153408E-5	20.809328
2306.634775	-2.993600	3.195100	-9.564600	27.923974	1.948793E-5	20.816907
2307.634721	-3.002200	3.195700	-9.593300	27.887236	2.057701E-5	20.806483
2308.630579	-3.012000	3.192400	-9.614700	27.894872	1.981796E-5	20.802314
2309.633924	-2.998700	3.196600	-9.584300	27.883873	2.074203E-5	20.809262
2310.634179	-3.007000	3.191600	-9.595900	27.976702	2.150108E-5	20.839158
2311.630025	-2.982000	3.193100	-9.520800	28.043884	1.988396E-5	20.797254
2312.632520	-3.000000	3.191400	-9.573200	28.031166	2.209513E-5	20.816220
2313.638010	-3.044800	3.190300	-9.712500	28.059526	2.064302E-5	20.799723
2314.636741	-2.999800	3.191000	-9.570800	28.081713	2.328321E-5	20.808306
2315.636802	-2.978100	3.191500	-9.503700	28.068483	1.839885E-5	20.799256
2316.637883	-2.988500	3.188900	-9.529600	28.011601	1.928992E-5	20.801742
2317.636636	-2.981200	3.189300	-9.507300	28.049536	2.008198E-5	20.808159
2318.639223	-2.996700	3.187700	-9.552100	27.997616	1.770580E-5	20.819907
2319.637430	-2.996200	3.187500	-9.549200	28.036640	2.087404E-5	20.801816
2320.633327	-2.987100	3.187500	-9.519800	27.993206	1.862987E-5	20.802192
2321.634037	-3.001600	3.186800	-9.564200	27.945230	1.872888E-5	20.815541
2322.640164	-3.021900	3.189400	-9.637300	27.968857	2.047801E-5	20.784321
2323.636063	-2.994600	3.185500	-9.538300	28.040806	1.638571E-5	20.791785
2324.635177	-3.005300	3.184800	-9.570000	28.066835	1.763980E-5	20.786218
2325.643500	-3.012100	3.184400	-9.590700	28.037753	2.044500E-5	20.800565
2326.633641	-3.008500	3.184500	-9.579500	27.931722	1.813483E-5	20.795782
2327.640055	-3.002500	3.183700	-9.558600	27.947317	1.714476E-5	20.797728
2328.642086	-2.977200	3.182600	-9.474700	27.992369	1.942193E-5	20.799927
2329.638328	-2.978100	3.183500	-9.480400	27.979399	1.602268E-5	20.790190
2330.646646	-3.018000	3.183500	-9.606800	27.999459	1.790382E-5	20.787149
2331.641127	-3.005000	3.180600	-9.556900	27.965047	1.592367E-5	20.774796
2332.642485	-3.012400	3.180200	-9.579000	28.052736	1.691374E-5	20.802371
2333.645097	-3.028000	3.180100	-9.627600	28.091782	1.737578E-5	20.791416
2334.646261	-2.996500	3.179500	-9.526200	28.032335	1.744178E-5	20.779938
2335.643664	-3.001500	3.177600	-9.536300	28.068053	1.681474E-5	20.770848
2336.646579	-2.981900	3.178400	-9.477500	28.050357	1.664973E-5	20.780535
2337.644955	-2.998000	3.178300	-9.528100	28.058364	1.490060E-5	20.795708
2338.642394	-3.003900	3.176900	-9.541600	28.013347	1.744178E-5	20.783110
2339.647443	-2.953600	3.176200	-9.380100	27.947747	1.486759E-5	20.783462
2340.642245	-2.998900	3.174500	-9.519200	27.907055	1.235941E-5	20.788498
2341.640504	-2.997400	3.174900	-9.515400	27.940275	1.463658E-5	20.781631
2342.650295	-3.012000	3.175400	-9.563800	28.001019	1.490060E-5	20.805788
2343.650335	-3.013700	3.173900	-9.563800	28.072641	1.763980E-5	20.784950
2344.644945	-3.003500	3.171800	-9.525500	28.110201	1.430655E-5	20.780560
2345.651894	-2.996800	3.171600	-9.503800	28.131728	1.503261E-5	20.774730
2346.649171	-2.993900	3.172400	-9.497200	28.174629	1.473558E-5	20.767659
2347.649811	-2.970900	3.171400	-9.419900	28.205592	1.490060E-5	20.780813
2348.649481	-3.002500	3.170400	-9.517800	28.189237	1.536263E-5	20.784263
2349.649306	-2.998800	3.170200	-9.505900	28.096078	1.245842E-5	20.775352
2350.643555	-2.980900	3.169400	-9.446900	28.124380	1.407554E-5	20.762117
2351.646025	-2.995100	3.168700	-9.489900	28.080583	1.034626E-5	20.793893
2352.645471	-2.990100	3.167200	-9.469200	28.117403	1.325048E-5	20.761257
2353.646743	-3.010700	3.168200	-9.537700	28.136731	1.193038E-5	20.763171
2354.648742	-2.989100	3.166700	-9.465000	28.148830	1.166636E-5	20.785783
2355.648800	-3.001600	3.165400	-9.500200	28.162172	1.163336E-5	20.777878
2356.652352	-3.021800	3.164800	-9.562600	28.183983	1.113832E-5	20.755265
2357.654024	-2.978400	3.165700	-9.426600	28.157291	1.354750E-5	20.770119
2358.650827	-3.000300	3.164000	-9.492000	28.179176	1.222740E-5	20.777927
2359.649002	-3.017800	3.164000	-9.546600	28.165396	1.120432E-5	20.750777
2360.648825	-3.010600	3.162900	-9.521100	28.237583	1.183137E-5	20.770822
2361.647173	-3.013300	3.162000	-9.527400	28.264379	1.061028E-5	20.752755
2362.643740	-3.012600	3.161000	-9.521600	28.298415	1.103931E-5	20.772326
2363.648919	-3.004400	3.160000	-9.492800	28.251963	1.252442E-5	20.779136
2364.648506	-2.991000	3.158800	-9.446600	28.251029	1.084130E-5	20.753539
2365.646869	-2.980100	3.159600	-9.415100	28.234692	1.133633E-5	20.779291
2366.650485	-2.995200	3.158000	-9.457900	28.269672	1.051127E-5	20.756188
2367.649383	-2.999700	3.157700	-9.471800	28.251800	1.057728E-5	20.768066
2368.651705	-2.996500	3.157400	-9.460400	28.226645	1.146834E-5	20.768818
2369.653785	-2.983200	3.156600	-9.416100	28.241569	1.047827E-5	20.738324
2370.650892	-3.023700	3.155500	-9.540200	28.306112	9.620208E-6	20.755893
2371.650652	-2.982200	3.156100	-9.410800	28.231257	8.597133E-6	20.766823
2372.654244	-3.012800	3.154100	-9.501700	28.202455	1.169936E-5	20.749205
2373.650305	-2.972300	3.153500	-9.372200	28.162974	9.719215E-6	20.765409
2374.652255	-2.985800	3.152000	-9.410200	28.158686	7.442048E-6	20.749238
2375.654958	-3.007500	3.151100	-9.476000	28.182577	8.201104E-6	20.762858
2376.655202	-3.016500	3.150900	-9.504100	28.186426	8.168101E-6	20.749189
2377.653453	-2.998500	3.150000	-9.443300	28.213417	9.158174E-6	20.765458
2378.650862	-2.982900	3.150500	-9.397300	28.255778	8.135099E-6	20.767330
2379.652439	-3.011400	3.148600	-9.480700	28.236648	8.003089E-6	20.754707
2380.651758	-2.984400	3.148900	-9.396900	28.262867	7.079021E-6	20.752181
2381.651397	-3.004500	3.147200	-9.455500	28.304934	7.046019E-6	20.762294
2382.650236	-3.001300	3.147800	-9.446500	28.354331	7.640062E-6	20.752287
2383.653539	-3.005200	3.145400	-9.451400	28.387666	5.428900E-6	20.769259
2384.652556	-3.005800	3.145400	-9.454100	28.386010	6.748997E-6	20.758107
2385.655048	-3.008500	3.144300	-9.458000	28.373669	7.937084E-6	20.767493
2386.649182	-2.986900	3.142500	-9.385100	28.346033	7.871079E-6	20.761950
2387.659903	-3.017600	3.143300	-9.484300	28.349078	7.310038E-6	20.753162
2388.656328	-3.031400	3.142500	-9.525000	28.371217	5.461902E-6	20.760282
2389.653714	-3.007100	3.140400	-9.443200	28.416715	5.296890E-6	20.755835
2390.659584	-3.006400	3.139700	-9.437900	28.428535	8.762145E-6	20.740710
2391.655727	-3.019500	3.138400	-9.475700	28.388364	6.781999E-6	20.741986
2392.650915	-3.008400	3.139000	-9.442800	28.343037	5.131878E-6	20.748501
2393.654801	-3.012100	3.136900	-9.448000	28.348639	5.494905E-6	20.734701
2394.659832	-2.992300	3.137200	-9.385500	28.400153	5.428900E-6	20.740580
2395.656104	-2.978700	3.136700	-9.342800	28.424971	4.339819E-6	20.724792
2396.656098	-2.994400	3.135100	-9.387400	28.393844	4.603839E-6	20.722847
2397.659570	-3.018600	3.133500	-9.457600	28.391588	3.349747E-6	20.748550
2398.657172	-2.997000	3.134000	-9.392200	28.338523	5.263888E-6	20.757707
2399.661802	-2.988300	3.133500	-9.362900	28.310129	2.953717E-6	20.743342
2400.660411	-2.985900	3.133300	-9.355000	28.310397	2.986720E-6	20.739345
2401.658472	-3.010900	3.130500	-9.424800	28.360631	3.283742E-6	20.758157
2402.659326	-3.017600	3.130000	-9.444400	28.402588	2.557688E-6	20.737342
2403.660916	-3.030800	3.128100	-9.479600	28.396028	1.930642E-6	20.746858
2404.656584	-3.018300	3.127300	-9.438100	28.377615	4.471829E-6	20.742541
2405.661234	-3.011700	3.128100	-9.420200	28.395777	4.735849E-6	20.730008
2406.662181	-2.995700	3.127000	-9.366100	28.370040	1.930642E-6	20.753880
2407.662369	-2.992100	3.125000	-9.349200	28.378330	3.580764E-6	20.762702
2408.660441	-2.984800	3.124900	-9.325300	28.428721	2.854710E-6	20.757020
2409.664592	-2.981500	3.125000	-9.315800	28.441759	3.745776E-6	20.740750
2410.661908	-2.987700	3.123800	-9.332300	28.397189	4.009795E-6	20.750872
2411.664598	-2.994400	3.121100	-9.344700	28.342354	7.095522E-7	20.737382
2412.661006	-2.997500	3.121300	-9.354600	28.364698	2.557688E-6	20.732853
2413.671163	-3.003300	3.120100	-9.370200	28.346114	2.392676E-6	20.756341
2414.663945	-3.013200	3.120000	-9.399000	28.334853	9.075668E-7	20.738364
2415.667369	-3.016700	3.118200	-9.404900	28.281590	2.260666E-6	20.754911
2416.664383	-3.024700	3.117100	-9.427400	28.260138	8.415620E-7	20.742320
2417.666130	-3.029400	3.116400	-9.439800	28.322268	5.445401E-7	20.762677
2418.668302	-2.987800	3.116600	-9.310900	28.296684	1.633620E-6	20.732649
2419.666306	-2.994800	3.115300	-9.328400	28.240091	1.138584E-6	20.732568
2420.670258	-3.011000	3.114000	-9.375300	28.233530	5.115377E-7	20.726910
2421.666993	-2.981400	3.114500	-9.284400	28.261015	2.062652E-6	20.735143
2422.663186	-3.000200	3.113600	-9.339800	28.318932	8.415620E-7	20.719487
2423.663666	-3.013800	3.110300	-9.373400	28.314645	1.204589E-6	20.737931
2424.666261	-3.012700	3.109100	-9.365400	28.397620	-2.145158E-7	20.733762
2425.667322	-2.994800	3.110900	-9.316200	28.450333	-5.775425E-7	20.725676
2426.667726	-3.003700	3.107900	-9.334800	28.502370	9.405693E-7	20.738724
2427.668482	-3.006200	3.109000	-9.345000	28.533242	-2.805207E-7	20.741840
2428.668026	-2.981400	3.106200	-9.259800	28.566443	-3.135231E-7	20.746353
2429.669624	-2.993800	3.105300	-9.295100	28.523696	-3.795279E-7	20.751193
2430.669109	-2.988900	3.104900	-9.279500	28.456503	-1.567615E-6	20.726199
2431.668427	-3.002800	3.104800	-9.322200	28.435705	-1.303596E-6	20.735602
2432.665207	-2.995800	3.101400	-9.289900	28.451787	-1.270594E-6	20.736149
2433.669409	-3.037300	3.101100	-9.418600	28.494797	-2.062652E-6	20.736314
2434.665574	-3.021700	3.100800	-9.368800	28.539411	-2.227664E-6	20.738095
2435.664138	-3.018100	3.099400	-9.353300	28.561710	-1.435606E-6	20.718826
2436.670990	-2.993400	3.099000	-9.275700	28.594625	3.465255E-7	20.721155
2437.669721	-2.990700	3.097800	-9.263700	28.607126	1.485109E-7	20.728530
2438.667887	-3.004000	3.096900	-9.302200	28.549274	-2.095654E-6	20.717207
2439.671152	-3.014400	3.095900	-9.331400	28.465361	-3.547761E-6	20.722317
2440.668757	-2.990800	3.095000	-9.255700	28.509871	-2.029649E-6	20.743434
2441.666195	-3.002800	3.094800	-9.292500	28.471782	-1.303596E-6	20.715506
2442.675237	-3.019300	3.093300	-9.338700	28.461894	-4.240812E-6	20.715032
2443.665601	-2.976800	3.093200	-9.206700	28.428163	-2.161659E-6	20.731326
2444.667454	-3.021900	3.090000	-9.336500	28.447200	-1.831635E-6	20.718727
2445.673824	-3.002600	3.089400	-9.275200	28.497695	-1.666623E-6	20.740655
2446.665946	-2.999600	3.087900	-9.262000	28.540597	-2.557688E-6	20.736918
2447.672071	-3.009900	3.087500	-9.292400	28.457356	-6.435474E-7	20.712359
2448.672176	-3.014400	3.087400	-9.305900	28.539006	-3.217737E-6	20.720142
2449.672613	-3.010800	3.085400	-9.289100	28.536547	-1.765630E-6	20.717191
2450.672485	-2.987400	3.085600	-9.216800	28.540841	-3.019722E-6	20.723887
2451.671768	-3.008400	3.082600	-9.272700	28.487385	-3.118730E-6	20.718417
2452.671362	-2.988100	3.081900	-9.207700	28.483830	-1.633620E-6	20.721950
2453.675709	-3.013100	3.080500	-9.280400	28.528575	-3.415752E-6	20.736665
2454.676990	-3.022000	3.079200	-9.303900	28.588620	-2.326671E-6	20.716530
2455.673830	-3.003000	3.079300	-9.246300	28.605552	-2.029649E-6	20.714616
2456.676088	-3.011500	3.077500	-9.266900	28.590584	-3.943790E-6	20.720879
2457.676908	-3.014300	3.076100	-9.271100	28.537708	-4.636841E-6	20.704609
2458.676850	-2.995000	3.075900	-9.212100	28.545533	-5.065873E-6	20.712965
2459.677664	-2.999100	3.074700	-9.220900	28.552198	-3.118730E-6	20.727264
2460.678135	-2.989300	3.073800	-9.187600	28.539615	-5.428900E-6	20.716014
2461.674627	-3.002300	3.072000	-9.221000	28.585332	-2.887713E-6	20.723176
2462.680015	-2.991100	3.072200	-9.188600	28.565088	-3.316744E-6	20.708476
2463.697045	-3.011100	3.070200	-9.243600	28.609294	-4.141805E-6	20.715066
2464.678833	-2.964900	3.069100	-9.098700	28.670795	-6.088948E-6	20.712049
2465.681150	-3.004500	3.068300	-9.218200	28.573985	-4.438827E-6	20.719808
2466.677744	-2.978400	3.066500	-9.132300	28.504669	-4.570837E-6	20.714960
2467.679311	-2.982900	3.067000	-9.147500	28.462667	-5.032871E-6	20.711542
2468.679328	-2.984600	3.064500	-9.145200	28.481501	-3.745776E-6	20.678349
2469.683245	-2.975600	3.064400	-9.117600	28.518047	-5.098876E-6	20.714682
2470.678284	-3.010400	3.062300	-9.218500	28.498353	-3.580764E-6	20.691054
2471.680226	-3.005900	3.060800	-9.199500	28.543943	-3.481756E-6	20.710414
2472.681728	-2.994900	3.059700	-9.162700	28.527683	-3.613766E-6	20.714429
2473.680756	-2.993000	3.058400	-9.153300	28.543001	-4.570837E-6	20.711363
2474.682093	-2.988400	3.057500	-9.135900	28.580544	-4.669844E-6	20.704601
2475.682266	-3.041100	3.054600	-9.288300	28.559009	-4.702846E-6	20.702827
2476.682885	-3.027300	3.054900	-9.247600	28.566461	-6.484978E-6	20.702746
2477.681288	-3.001800	3.054300	-9.168100	28.622461	-6.088948E-6	20.715999
2478.681184	-2.983100	3.053500	-9.107700	28.607420	-4.735849E-6	20.707488
2479.679792	-2.995800	3.050800	-9.138400	28.646714	-6.980014E-6	20.707709
2480.679859	-2.997200	3.051200	-9.143600	28.714681	-5.857931E-6	20.696034
2481.684254	-3.016600	3.048000	-9.193700	28.777117	-4.042798E-6	20.698233
2482.683068	-3.004700	3.046100	-9.151500	28.797666	-5.131878E-6	20.681947
2483.681801	-3.019100	3.047000	-9.197800	28.748574	-5.461902E-6	20.715950
2484.680327	-3.016400	3.045900	-9.186000	28.706678	-6.088948E-6	20.711208
2485.690926	-2.996300	3.043500	-9.117600	28.702312	-4.834856E-6	20.689739
2486.682081	-3.004700	3.043000	-9.142800	28.736952	-7.277036E-6	20.711355
2487.683298	-3.034900	3.040700	-9.227500	28.746139	-6.418973E-6	20.699746
2488.684961	-2.995500	3.040300	-9.106000	28.741951	-5.560910E-6	20.684146
2489.683152	-2.988300	3.038900	-9.079900	28.760188	-5.593912E-6	20.708682
2490.682288	-2.998100	3.036600	-9.103300	28.755992	-7.244034E-6	20.701136
2491.692077	-2.971100	3.036700	-9.021500	28.800271	-5.164880E-6	20.706859
2492.686948	-2.975900	3.035600	-9.032700	28.738973	-7.442048E-6	20.691104
2493.687394	-2.985400	3.034700	-9.058900	28.746407	-7.475051E-6	20.697171
2494.690880	-3.007500	3.032200	-9.118400	28.766016	-5.857931E-6	20.720717
2495.689641	-3.001500	3.031700	-9.098500	28.836719	-7.310038E-6	20.690467
2496.691894	-3.016100	3.028600	-9.133300	28.825544	-4.867859E-6	20.690116
2497.686604	-2.998600	3.028400	-9.079500	28.846944	-6.418973E-6	20.704089
2498.687657	-3.008300	3.026100	-9.102600	28.878447	-4.636841E-6	20.698840
2499.689214	-2.982100	3.026000	-9.022600	28.915053	-6.385970E-6	20.672179
2500.689844	-2.993300	3.023500	-9.049200	28.935413	-5.527907E-6	20.695538
2501.687184	-3.008000	3.023000	-9.092600	28.946603	-3.877786E-6	20.684999
2502.690077	-2.999500	3.021900	-9.063300	28.972269	-7.541055E-6	20.700901
2503.689243	-2.957300	3.021200	-8.934000	28.971027	-6.088948E-6	20.692538
2504.689729	-2.993900	3.018700	-9.037000	28.920369	-5.164880E-6	20.694606
2505.689475	-2.997600	3.018400	-9.047100	28.976148	-6.616987E-6	20.688213
2506.687689	-2.985500	3.017300	-9.007500	28.948941	-6.286963E-6	20.695891
2507.689697	-2.984500	3.015600	-8.998900	28.901877	-3.976793E-6	20.680242
2508.686067	-2.998800	3.013400	-9.035900	28.851654	-6.914009E-6	20.698401
2509.690161	-3.036000	3.011500	-9.141000	28.829807	-5.395897E-6	20.688247
2510.686372	-2.994700	3.010300	-9.014000	28.795495	-4.933863E-6	20.691141
2511.689096	-2.997600	3.010000	-9.021700	28.713826	-7.145026E-6	20.688534
2512.689659	-3.021000	3.008400	-9.088100	28.699372	-8.234107E-6	20.691519
2513.688407	-2.977900	3.007400	-8.954900	28.768196	-8.762145E-6	20.694936
2514.694219	-3.026100	3.006000	-9.095800	28.766727	-7.871080E-6	20.686344
2515.691701	-3.035600	3.003800	-9.117500	28.737932	-5.725922E-6	20.684840
2516.692254	-3.017500	3.003700	-9.063000	28.759756	-8.465124E-6	20.686909
2517.689613	-2.980600	3.002400	-8.948000	28.791165	-7.772072E-6	20.701952
2518.692737	-2.994600	3.000900	-8.985600	28.868374	-5.692919E-6	20.682527
2519.693832	-2.972100	2.999000	-8.912500	28.802251	-7.079021E-6	20.699370
2520.694067	-3.002900	2.998300	-9.003000	28.811543	-7.574058E-6	20.699721
2521.691703	-2.990000	2.996000	-8.956900	28.852988	-7.343041E-6	20.704013
2522.693887	-2.993900	2.994900	-8.965800	28.834502	-8.003089E-6	20.701986
2523.694140	-3.001400	2.993400	-8.984100	28.825210	-7.409046E-6	20.693573
2524.694474	-3.022400	2.991000	-9.039500	28.806724	-7.838077E-6	20.691072
2525.694785	-3.000600	2.991500	-8.974700	28.782945	-8.201104E-6	20.694146
2526.694170	-3.014700	2.988500	-9.008400	28.791159	-7.772072E-6	20.708585
2527.695755	-2.995900	2.988600	-8.953100	28.803599	-7.508053E-6	20.691718
2528.690217	-2.995800	2.985400	-8.943000	28.872319	-8.102097E-6	20.698357
2529.693564	-3.020800	2.984700	-9.015100	28.854402	-1.113832E-5	20.696428
2530.691609	-3.011200	2.984200	-8.985400	28.824107	-8.762145E-6	20.708111
2531.695121	-2.976100	2.982700	-8.876000	28.827273	-1.044527E-5	20.698971
2532.695752	-3.002000	2.980700	-8.946700	28.820447	-8.861153E-6	20.680713
2533.695476	-2.984600	2.979500	-8.892000	28.790761	-8.960160E-6	20.695381
2534.695137	-3.002700	2.976500	-8.935500	28.830690	-7.112024E-6	20.691032
2535.698449	-3.013200	2.976000	-8.965900	28.897411	-6.154953E-6	20.688546
2536.695552	-2.971900	2.975900	-8.843600	28.900657	-6.815002E-6	20.692291
2537.692994	-3.024300	2.973000	-8.990300	28.915393	-9.158175E-6	20.687696
2538.696697	-3.021500	2.971100	-8.976100	28.924660	-1.014825E-5	20.708887
2539.695049	-2.994900	2.970500	-8.895200	28.930259	-9.158175E-6	20.677067
2540.696024	-2.990700	2.969300	-8.879700	28.945985	-7.574058E-6	20.698128
2541.697880	-3.000700	2.966400	-8.899600	28.967244	-8.201104E-6	20.711013
2542.696317	-3.004100	2.966700	-8.910700	28.871532	-1.004924E-5	20.697563
2543.700002	-3.013900	2.964000	-8.932400	28.835736	-9.587206E-6	20.700858
2544.692664	-3.013200	2.962100	-8.925000	28.891885	-9.752218E-6	20.677762
2545.691985	-3.019500	2.960200	-8.937100	28.913218	-8.729143E-6	20.689772
2546.695014	-3.018500	2.960200	-8.933600	28.903188	-9.191177E-6	20.681089
2547.699040	-2.996200	2.956900	-8.858800	28.900047	-8.399119E-6	20.692151
2548.698439	-3.008500	2.956200	-8.891800	28.912131	-1.001624E-5	20.694367
2549.700987	-2.994100	2.955200	-8.847700	28.887486	-9.059167E-6	20.697040
2550.699352	-2.996100	2.953800	-8.848800	28.959324	-8.927158E-6	20.686910
2551.700547	-3.022200	2.951600	-8.919300	29.000049	-7.046019E-6	20.688586
2552.701754	-2.971300	2.950600	-8.766000	28.987642	-9.620209E-6	20.704062
2553.710604	-2.994700	2.949400	-8.832100	28.979422	-8.993162E-6	20.721861
2554.700219	-3.002700	2.946300	-8.846400	28.969888	-1.113832E-5	20.687596
2555.700895	-3.001400	2.945300	-8.838500	28.948539	-9.224179E-6	20.705444
2556.700623	-2.994300	2.943300	-8.811600	29.009152	-1.004924E-5	20.708191
2557.700967	-3.003500	2.942800	-8.837600	29.044098	-8.498126E-6	20.705468
2558.702140	-2.991600	2.940200	-8.794700	29.059603	-8.366116E-6	20.709237
2559.702504	-2.995500	2.939300	-8.804200	29.089947	-9.488199E-6	20.692395
2560.701657	-3.032800	2.935800	-8.902200	29.103001	-8.696141E-6	20.704601
2561.701753	-3.015700	2.934700	-8.848800	29.144661	-7.904082E-6	20.696319
2562.700605	-2.983800	2.933500	-8.752000	29.211623	-1.113832E-5	20.700260
2563.703389	-2.966400	2.935100	-8.705700	29.263662	-9.026165E-6	20.717616
2564.701274	-2.997600	2.930800	-8.784300	29.165341	-8.993162E-6	20.709572
2565.703630	-3.003900	2.930300	-8.801200	29.150437	-9.224179E-6	20.690285
2566.704527	-2.995300	2.926900	-8.765300	29.179716	-9.620209E-6	20.693236
2567.704068	-3.018300	2.925600	-8.828400	29.193459	-7.706068E-6	20.691437
2568.704073	-2.996300	2.925700	-8.765600	29.210098	-1.028026E-5	20.708206
2569.705948	-3.002100	2.922100	-8.771900	29.266144	-8.267109E-6	20.717272
2570.704475	-2.978800	2.922000	-8.702600	29.298705	-6.154953E-6	20.711680
2571.702354	-2.988100	2.919500	-8.722400	29.285118	-8.102097E-6	20.712211
2572.707956	-3.000900	2.916200	-8.750000	29.158793	-8.465124E-6	20.686376
2573.704266	-2.967600	2.917300	-8.656300	29.160034	-7.673065E-6	20.727459
2574.707001	-3.019700	2.913700	-8.796500	29.158720	-8.696141E-6	20.704322
2575.707770	-3.013200	2.911400	-8.771500	29.185492	-7.970087E-6	20.709015
2576.705045	-3.006700	2.910300	-8.749100	29.142356	-8.993162E-6	20.710118
2577.705511	-2.991900	2.909800	-8.705100	29.164593	-8.465124E-6	20.700283
2578.707120	-3.008400	2.906400	-8.742200	29.098221	-8.993162E-6	20.700258
2579.708000	-3.010500	2.905400	-8.745600	29.104963	-9.191177E-6	20.702784
2580.705173	-3.025700	2.903600	-8.784800	29.119672	-9.719216E-6	20.701958
2581.709642	-2.977000	2.900600	-8.634400	29.167100	-7.739070E-6	20.697593
2582.713661	-2.986400	2.899400	-8.657300	29.141764	-1.080830E-5	20.714737
2583.709335	-3.012700	2.896700	-8.726200	29.112240	-8.861153E-6	20.707273
2584.707193	-2.995800	2.896400	-8.676200	29.171067	-9.158175E-6	20.698745
2585.710620	-3.013600	2.894500	-8.722300	29.185231	-9.455196E-6	20.692155
2586.710214	-3.015700	2.892700	-8.721700	29.203825	-8.399119E-6	20.704256
2587.711061	-3.003500	2.890600	-8.680800	29.226086	-8.762145E-6	20.717206
2588.712347	-3.014100	2.888200	-8.704700	29.194812	-1.041227E-5	20.716037
2589.707644	-3.033200	2.885100	-8.750000	29.105774	-8.168102E-6	20.713086
2590.711292	-2.999700	2.885300	-8.653600	29.037370	-8.498126E-6	20.719078
2591.712112	-3.015700	2.882500	-8.691100	28.980304	-8.498126E-6	20.703782
2592.712789	-3.002400	2.882300	-8.653100	29.031325	-1.067629E-5	20.695443
2593.712610	-2.978400	2.880100	-8.577200	29.137261	-1.028026E-5	20.703086
2594.713922	-2.992500	2.878300	-8.611400	29.203996	-1.014825E-5	20.716282
2595.711237	-3.017000	2.875600	-8.675400	29.187828	-8.630136E-6	20.718956
2596.710904	-2.987500	2.875500	-8.589000	29.092209	-1.044527E-5	20.700364
2597.727937	-3.009000	2.871100	-8.637800	29.084436	-9.356189E-6	20.719560
2598.711669	-2.999200	2.869500	-8.605800	29.085499	-9.455196E-6	20.715415
2599.716433	-2.984500	2.869200	-8.562400	29.091835	-9.554204E-6	20.708998
2600.717410	-3.018200	2.865200	-8.647300	29.150509	-8.069094E-6	20.713118
2601.716592	-2.985700	2.864800	-8.552500	29.189312	-9.323187E-6	20.713813
2602.716369	-3.012300	2.861000	-8.617400	29.208465	-1.156735E-5	20.718415
2603.713340	-3.006300	2.858900	-8.592900	29.285425	-1.047827E-5	20.702563
2604.715861	-3.012600	2.858600	-8.611500	29.332358	-9.917231E-6	20.728054
2605.719297	-2.994200	2.856100	-8.550700	29.272705	-9.389192E-6	20.748542
2606.713190	-2.984500	2.853300	-8.514800	29.259726	-8.366116E-6	20.717442
2607.718765	-2.972700	2.852800	-8.478700	29.309184	-8.696141E-6	20.723664
2608.718085	-2.991900	2.849400	-8.524900	29.281539	-9.950233E-6	20.729469
2609.720072	-2.985400	2.848200	-8.502000	29.227286	-7.805075E-6	20.713674
2610.720053	-2.998400	2.845900	-8.531400	29.174944	-8.333114E-6	20.718300
2611.719386	-3.008200	2.842700	-8.550800	29.132936	-8.795148E-6	20.717696
2612.719392	-3.013200	2.839900	-8.555600	29.149332	-1.004924E-5	20.715725
2613.716879	-3.001700	2.840600	-8.525400	29.115630	-9.488199E-6	20.714956
2614.719882	-2.998100	2.836800	-8.504800	29.162458	-1.153435E-5	20.714728
2615.719923	-3.010300	2.836400	-8.537600	29.093838	-1.004924E-5	20.730931
2616.718961	-2.968900	2.832400	-8.408700	29.140960	-1.179837E-5	20.733368
2617.720613	-2.975600	2.831600	-8.425000	29.167244	-1.136934E-5	20.717180
2618.719684	-2.983600	2.828900	-8.440100	29.191185	-1.018125E-5	20.728030
2619.718858	-2.976900	2.827100	-8.414900	29.247752	-1.024725E-5	20.724816
2620.721413	-2.984000	2.824200	-8.426400	29.299838	-8.102097E-6	20.727522
2621.722808	-3.008900	2.820400	-8.484800	29.318155	-9.422194E-6	20.724170
2622.721050	-2.979700	2.819500	-8.399600	29.383109	-1.087430E-5	20.717564
2623.720152	-3.007300	2.816500	-8.469300	29.435863	-9.752218E-6	20.721897
2624.721481	-2.992600	2.813100	-8.417900	29.508215	-9.785221E-6	20.732713
2625.717721	-3.000500	2.812100	-8.437000	29.526114	-1.008224E-5	20.739376
2626.720066	-2.999700	2.809800	-8.426900	29.408196	-9.785221E-6	20.730048
2627.721567	-3.030300	2.805100	-8.499400	29.393264	-9.455196E-6	20.732541
2628.722096	-2.996600	2.802900	-8.397900	29.444419	-1.037926E-5	20.733841
2629.722663	-3.010200	2.800100	-8.428700	29.501937	-1.173236E-5	20.736342
2630.722711	-2.997600	2.798000	-8.386800	29.476853	-7.871080E-6	20.752309
2631.723229	-2.989400	2.794800	-8.354100	29.430687	-9.818223E-6	20.743234
2632.722018	-3.002100	2.792800	-8.382600	29.404238	-8.069094E-6	20.740757
2633.723830	-2.981800	2.790700	-8.320800	29.444005	-1.110532E-5	20.735794
2634.721945	-2.992100	2.786900	-8.338100	29.522488	-8.894155E-6	20.723392
2635.723075	-2.979700	2.784200	-8.295100	29.463738	-1.057728E-5	20.751418
2636.720550	-2.999600	2.782000	-8.344100	29.455570	-9.422194E-6	20.731805
2637.724534	-3.002700	2.779400	-8.344700	29.509544	-8.036092E-6	20.732156
2638.721705	-3.018300	2.776500	-8.379700	29.486495	-8.234107E-6	20.742588
2639.726669	-2.976800	2.773700	-8.255400	29.513283	-8.993162E-6	20.753469
2640.727043	-3.008400	2.768200	-8.327200	29.432074	-1.080830E-5	20.731355
2641.728326	-2.970000	2.768000	-8.219000	29.393506	-9.620209E-6	20.742743
2642.728351	-3.055000	2.763600	-8.442300	29.487743	-6.715995E-6	20.724405
2643.726525	-2.984100	2.761100	-8.238400	29.460631	-7.541055E-6	20.739751
2644.730130	-2.985500	2.758800	-8.235600	29.517548	-9.191177E-6	20.726474
2645.726740	-3.011000	2.753900	-8.290900	29.582467	-8.630136E-6	20.732646
2646.729406	-2.997000	2.751600	-8.245700	29.620784	-7.739070E-6	20.742350
2647.725446	-3.009900	2.747900	-8.270000	29.646457	-9.587206E-6	20.744525
2648.729441	-2.959500	2.746000	-8.126400	29.651777	-1.054428E-5	20.753207
2649.729234	-3.028300	2.741100	-8.299300	29.544692	-9.686214E-6	20.718273
2650.731678	-2.995500	2.738100	-8.200900	29.492974	-9.257182E-6	20.761447
2651.729938	-2.994100	2.734100	-8.185700	29.476169	-9.686214E-6	20.732179
2652.731807	-2.984700	2.731900	-8.152900	29.364825	-1.034626E-5	20.756035
2653.730057	-3.003000	2.727100	-8.188100	29.330440	-1.150135E-5	20.754097
2654.725007	-2.993700	2.725100	-8.157700	29.372084	-7.871080E-6	20.747230
2655.730227	-3.024900	2.719900	-8.225800	29.461570	-8.234107E-6	20.772467
2656.726762	-3.016800	2.716100	-8.192900	29.433053	-9.290184E-6	20.729971
2657.731150	-3.018500	2.712900	-8.187500	29.399012	-8.729143E-6	20.747344
2658.731526	-2.997200	2.709000	-8.118200	29.482446	-9.884228E-6	20.762215
2659.733053	-3.007400	2.704600	-8.132800	29.622274	-8.399119E-6	20.739111
2660.732241	-2.987000	2.702600	-8.072000	29.688119	-9.719216E-6	20.750017
2661.732738	-3.017300	2.698500	-8.141600	29.691565	-7.112024E-6	20.734998
2662.731680	-3.021500	2.693600	-8.138000	29.712850	-8.201104E-6	20.752666
2663.727959	-3.004900	2.689800	-8.081500	29.745551	-8.003089E-6	20.736323
2664.734930	-2.995100	2.686400	-8.045000	29.709785	-1.094031E-5	20.746730
2665.731560	-2.962700	2.682300	-7.945700	29.673174	-8.663138E-6	20.752494
2666.732616	-3.000100	2.676300	-8.028100	29.633424	-8.498126E-6	20.754619
2667.732802	-2.969900	2.673400	-7.939200	29.589268	-1.034626E-5	20.758943
2668.733217	-2.990400	2.669200	-7.981300	29.597086	-1.011525E-5	20.752600
2669.735601	-2.992600	2.663500	-7.969900	29.559084	-1.080830E-5	20.763130
2670.734044	-2.997200	2.658800	-7.968100	29.532135	-7.739070E-6	20.737385
2671.733817	-3.027500	2.653100	-8.031200	29.530132	-9.389192E-6	20.761919
2672.731345	-2.992200	2.650900	-7.931300	29.630147	-9.917231E-6	20.753212
2673.735908	-3.017500	2.645100	-7.981100	29.667197	-8.498126E-6	20.751209
2674.733630	-3.033100	2.639000	-8.003500	29.639310	-8.993162E-6	20.749647
2675.737179	-2.993000	2.636700	-7.889900	29.666645	-8.003089E-6	20.775783
2676.732997	-2.980100	2.631400	-7.840000	29.652486	-1.051127E-5	20.754871
2677.731636	-3.048900	2.624700	-8.001100	29.627559	-7.508053E-6	20.765777
2678.732372	-3.018000	2.620700	-7.908400	29.665266	-1.156735E-5	20.757323
2679.733023	-3.010100	2.615600	-7.872300	29.566592	-8.762145E-6	20.768327
2680.734382	-2.987100	2.610400	-7.796500	29.626083	-7.838077E-6	20.768082
2681.735272	-2.989600	2.606000	-7.789700	29.658365	-1.127033E-5	20.775971
2682.733454	-2.989100	2.598500	-7.765900	29.707577	-8.564131E-6	20.764893
2683.734313	-2.966800	2.594300	-7.695400	29.799078	-9.059167E-6	20.768008
2684.734001	-2.985000	2.588300	-7.725700	29.793078	-9.191177E-6	20.775708
2685.736382	-3.019700	2.581300	-7.794000	29.818439	-7.277036E-6	20.767141
2686.735625	-3.027600	2.576800	-7.800600	29.850569	-8.927158E-6	20.757339
2687.734566	-2.999700	2.571800	-7.713400	29.854210	-9.026165E-6	20.772389
2688.736860	-3.005200	2.565400	-7.708400	29.905520	-7.475051E-6	20.773394
2689.735391	-3.006400	2.559500	-7.693500	29.808255	-9.455196E-6	20.763511
2690.739060	-3.028500	2.551500	-7.726400	29.796920	-1.021425E-5	20.778635
2691.737183	-2.987300	2.547400	-7.608700	29.794715	-7.211031E-6	20.779256
2692.737332	-2.973900	2.541800	-7.557600	29.832148	-8.201104E-6	20.780490
2693.735780	-3.026100	2.533900	-7.667000	29.777316	-4.603839E-6	20.780679
2694.740447	-2.985100	2.529000	-7.548300	29.742718	-8.267109E-6	20.754804
2695.741571	-2.967900	2.522400	-7.485100	29.834524	-7.640063E-6	20.773876
2696.736813	-3.028800	2.514700	-7.615200	29.933910	-8.300111E-6	20.772152
2697.743776	-2.974400	2.509000	-7.462100	29.956552	-8.927158E-6	20.774596
2698.740522	-3.000600	2.503400	-7.510900	30.014335	-8.861153E-6	20.780711
2699.737058	-3.017400	2.496200	-7.530200	30.042625	-9.356189E-6	20.771309
