LabVIEW Measurement	
Writer_Version	2
Reader_Version	2
Separator	Tab
Decimal_Separator	.
Multi_Headings	No
X_Columns	One
Time_Pref	Absolute
Operator	admin
Description	Clolumns are: time, Current, Voltage, Power, Battery Temp, and Chamber Temp
Date	2024/08/16
Time	13:07:17.8513970375061035156
***End_of_Header***	
	
Channels	6						
Samples	1	1	1	1	1	1	
Date	2024/09/07	2024/09/07	2024/09/07	2024/09/07	2024/09/07	2024/09/07	
Time	04:51:12.2241544723510742188	04:51:12.2311530113220214844	04:51:12.2381544113159179688	04:51:12.2037558555603027344	04:51:12.2047543525695800781	04:51:12.2047543525695800781	
X_Dimension	Time	Time	Time	Time	Time	Time	
X0	0.0000000000000000E+0	0.0000000000000000E+0	0.0000000000000000E+0	0.0000000000000000E+0	0.0000000000000000E+0	0.0000000000000000E+0	
Delta_X	1.000000	1.000000	1.000000	1.000000	1.000000	1.000000	
***End_of_Header***							
X_Value	Untitled	Untitled 1	Untitled 2	Untitled 3	Untitled 4	Untitled 5	Comment
0.000000	0.030761	4.092700	0.125890	20.879029	0.000461	20.832090
0.996677	-3.000400	3.924500	-11.774000	20.877158	0.000461	20.826900
1.998256	-2.978000	3.919100	-11.670000	20.883845	0.000462	20.837380
3.000994	-3.014000	3.913200	-11.793000	20.871118	0.000460	20.819912
3.995583	-2.985200	3.909900	-11.671000	20.908276	0.000461	20.818666
5.002327	-3.015800	3.906300	-11.779000	20.894954	0.000456	20.819568
5.998201	-2.994600	3.904100	-11.690000	20.901613	0.000459	20.822908
6.999358	-2.983500	3.903600	-11.646000	20.920779	0.000456	20.823110
7.998409	-2.986500	3.901200	-11.650000	20.923497	0.000456	20.825828
8.998378	-2.985900	3.898800	-11.641000	20.918108	0.000456	20.837508
10.000103	-2.984400	3.898500	-11.633000	20.926490	0.000456	20.829769
11.000597	-2.984000	3.895800	-11.624000	20.953764	0.000455	20.825279
11.997488	-3.003100	3.894700	-11.696000	20.961279	0.000451	20.827579
13.004908	-2.990700	3.894100	-11.645000	20.950499	0.000451	20.819168
14.007307	-2.988000	3.892300	-11.629000	20.958831	0.000454	20.823234
14.998874	-2.998200	3.891200	-11.665000	20.965645	0.000451	20.814402
16.002764	-3.003100	3.889600	-11.681000	20.978894	0.000451	20.817696
17.001445	-2.981400	3.889800	-11.596000	20.987226	0.000452	20.816072
18.000845	-3.009700	3.886800	-11.696000	20.997780	0.000451	20.806713
19.000721	-3.009800	3.886900	-11.698000	20.990895	0.000450	20.833965
20.001628	-2.987100	3.886700	-11.608000	20.993343	0.000452	20.808439
21.005109	-3.003000	3.886000	-11.669000	21.006015	0.000448	20.803097
22.001746	-3.029500	3.884600	-11.767000	21.018168	0.000447	20.823311
23.001586	-2.987200	3.884600	-11.604000	21.031289	0.000448	20.816996
24.001573	-2.995600	3.883500	-11.633000	21.017969	0.000447	20.803673
25.003094	-2.995100	3.883600	-11.631000	21.043296	0.000447	20.805771
26.003086	-3.013700	3.882100	-11.699000	21.045493	0.000450	20.809865
27.011273	-3.013200	3.882000	-11.696000	21.049059	0.000447	20.839984
28.006048	-3.010800	3.880000	-11.681000	21.054602	0.000445	20.823243
29.006491	-3.010200	3.879400	-11.677000	21.073437	0.000446	20.812211
30.005903	-3.011200	3.879400	-11.680000	21.069322	0.000446	20.826587
31.003323	-3.034100	3.878400	-11.767000	21.070047	0.000445	20.826364
32.007484	-3.004700	3.877200	-11.648000	21.111790	0.000446	20.792728
33.005865	-3.022300	3.877500	-11.718000	21.121243	0.000445	20.821623
34.005830	-2.992400	3.877700	-11.602000	21.120546	0.000445	20.793899
35.005540	-2.998800	3.876400	-11.624000	21.116007	0.000443	20.786040
36.007253	-2.990400	3.877400	-11.595000	21.135619	0.000444	20.784320
37.010514	-3.007500	3.876600	-11.658000	21.130829	0.000444	20.779055
38.009421	-2.974800	3.877500	-11.533000	21.141508	0.000442	20.787841
39.008209	-2.984400	3.876100	-11.567000	21.158597	0.000443	20.806358
40.015851	-3.007400	3.875600	-11.653000	21.160971	0.000443	20.802568
41.010680	-2.971400	3.877200	-11.519000	21.175541	0.000444	20.816668
42.010068	-2.990000	3.874500	-11.584000	21.183747	0.000441	20.793109
43.010347	-2.960900	3.876400	-11.477000	21.200238	0.000443	20.801071
44.008171	-2.996200	3.874800	-11.609000	21.203782	0.000443	20.811728
45.009273	-3.019600	3.873800	-11.696000	21.216806	0.000441	20.791092
46.009766	-2.999700	3.874200	-11.621000	21.218454	0.000443	20.797008
47.011055	-2.995400	3.873200	-11.600000	21.219473	0.000443	20.800398
48.013849	-3.016700	3.873300	-11.683000	21.217807	0.000441	20.799206
49.010561	-3.032800	3.871800	-11.742000	21.222497	0.000442	20.783035
50.010902	-2.987900	3.872600	-11.570000	21.251484	0.000443	20.784057
51.010033	-3.011600	3.872400	-11.661000	21.260811	0.000442	20.810458
52.011415	-3.017500	3.870600	-11.678000	21.272487	0.000442	20.795586
53.011145	-3.002700	3.873300	-11.630000	21.277499	0.000438	20.786375
54.014556	-2.996800	3.871100	-11.600000	21.282542	0.000441	20.812283
55.011207	-3.018600	3.870100	-11.681000	21.298207	0.000442	20.784807
56.011245	-3.004800	3.870500	-11.629000	21.309409	0.000442	20.785108
57.019066	-2.980800	3.870100	-11.534000	21.301627	0.000440	20.808143
58.011710	-3.007900	3.871100	-11.643000	21.299856	0.000441	20.788827
59.014857	-2.988500	3.870100	-11.564000	21.308065	0.000439	20.773332
60.011762	-2.999200	3.869500	-11.605000	21.326697	0.000439	20.770635
61.012934	-2.988500	3.870100	-11.565000	21.342262	0.000441	20.793321
62.013321	-2.988700	3.869300	-11.563000	21.347553	0.000439	20.782967
63.014197	-2.988300	3.870900	-11.567000	21.354712	0.000439	20.786810
64.016997	-2.990000	3.869500	-11.568000	21.384144	0.000438	20.777376
65.017569	-3.014100	3.868200	-11.659000	21.369778	0.000442	20.793349
66.016473	-2.997000	3.869700	-11.597000	21.397014	0.000440	20.786459
67.015521	-3.000000	3.868400	-11.604000	21.383847	0.000440	20.773285
68.020147	-3.010900	3.868800	-11.647000	21.406771	0.000439	20.784368
69.017993	-2.993800	3.867300	-11.577000	21.424055	0.000442	20.788858
70.018226	-3.004100	3.867400	-11.617000	21.394725	0.000439	20.792704
71.017455	-2.978100	3.867800	-11.518000	21.424603	0.000440	20.758586
72.019298	-3.003200	3.866600	-11.611000	21.438324	0.000440	20.782747
73.021309	-2.999400	3.868000	-11.601000	21.455858	0.000440	20.763306
74.023888	-3.000700	3.868000	-11.606000	21.446780	0.000441	20.759913
75.023332	-2.998000	3.866600	-11.592000	21.464416	0.000442	20.788939
76.019433	-3.020600	3.866800	-11.679000	21.462195	0.000439	20.774389
77.022012	-3.013000	3.866600	-11.650000	21.480878	0.000442	20.791186
78.023227	-3.006900	3.865700	-11.623000	21.497064	0.000442	20.781777
79.027003	-2.995200	3.865700	-11.578000	21.498783	0.000441	20.767850
80.024822	-2.990000	3.866400	-11.559000	21.515969	0.000440	20.784099
81.025037	-3.000400	3.866000	-11.599000	21.529541	0.000444	20.784403
82.024140	-2.979600	3.865600	-11.517000	21.531556	0.000442	20.785946
83.024918	-2.981500	3.866300	-11.525000	21.532306	0.000442	20.774842
84.025288	-2.995900	3.864800	-11.578000	21.551783	0.000441	20.775365
85.033663	-2.995300	3.864800	-11.575000	21.539761	0.000440	20.762860
86.030960	-2.981500	3.864600	-11.521000	21.551059	0.000441	20.765631
87.028494	-2.976100	3.865400	-11.503000	21.562406	0.000443	20.794056
88.027842	-2.985100	3.864500	-11.536000	21.587395	0.000439	20.782078
89.030697	-3.013700	3.864600	-11.645000	21.586370	0.000442	20.770146
90.028111	-2.995300	3.864700	-11.575000	21.614951	0.000441	20.764134
91.031929	-3.008000	3.863800	-11.622000	21.584676	0.000440	20.779357
92.032391	-2.985400	3.865200	-11.538000	21.598216	0.000441	20.768250
93.027438	-2.996100	3.864100	-11.575000	21.624598	0.000439	20.756243
94.028100	-2.980000	3.864300	-11.515000	21.614276	0.000442	20.766303
95.032103	-3.012100	3.863300	-11.636000	21.614329	0.000444	20.765882
96.031795	-2.982400	3.864200	-11.524000	21.655374	0.000441	20.763335
97.033759	-3.004700	3.863000	-11.606000	21.647592	0.000443	20.755546
98.033353	-3.012100	3.862700	-11.633000	21.656894	0.000444	20.777659
99.033018	-2.990100	3.862200	-11.547000	21.669485	0.000443	20.766077
100.032573	-2.996600	3.862000	-11.572000	21.694123	0.000440	20.775086
101.030131	-3.011800	3.860600	-11.627000	21.707512	0.000441	20.774736
102.032125	-3.001400	3.862500	-11.592000	21.702449	0.000444	20.774410
103.029734	-3.005500	3.862700	-11.608000	21.692401	0.000442	20.770518
104.030281	-2.980300	3.863100	-11.513000	21.720704	0.000444	20.784619
105.031634	-2.995000	3.862200	-11.565000	21.718738	0.000443	20.769849
106.029989	-3.016900	3.860800	-11.646000	21.733973	0.000444	20.768027
107.031306	-3.013500	3.861600	-11.636000	21.731328	0.000443	20.784821
108.032769	-3.005300	3.860800	-11.602000	21.741475	0.000443	20.767001
109.030458	-2.973900	3.860100	-11.479000	21.764842	0.000444	20.756721
110.032611	-3.000200	3.859700	-11.578000	21.752047	0.000445	20.757192
111.034838	-3.018700	3.861500	-11.656000	21.786684	0.000444	20.754400
112.031588	-2.993400	3.861200	-11.558000	21.776137	0.000443	20.733412
113.032477	-3.007200	3.859500	-11.605000	21.788381	0.000443	20.750882
114.031047	-3.009900	3.861500	-11.622000	21.782993	0.000445	20.773465
115.031233	-2.992600	3.861200	-11.553000	21.794391	0.000444	20.748837
116.031592	-3.011500	3.859300	-11.621000	21.796335	0.000446	20.770224
117.031266	-3.006800	3.860000	-11.605000	21.815659	0.000445	20.754951
118.033469	-3.000800	3.859800	-11.582000	21.817480	0.000444	20.761990
119.033442	-3.002000	3.859100	-11.583000	21.799301	0.000445	20.767977
120.031332	-3.003300	3.859700	-11.591000	21.841191	0.000443	20.759169
121.031773	-3.000400	3.859700	-11.580000	21.825530	0.000446	20.770521
122.037108	-3.006500	3.857600	-11.597000	21.849146	0.000446	20.762390
123.032011	-3.015700	3.859500	-11.638000	21.878943	0.000446	20.762343
124.036163	-3.008000	3.858600	-11.606000	21.870512	0.000446	20.749636
125.033445	-3.012200	3.859600	-11.624000	21.857199	0.000447	20.748639
126.033608	-2.998400	3.857600	-11.565000	21.891430	0.000446	20.767729
127.035997	-2.985000	3.858000	-11.515000	21.901731	0.000446	20.762867
128.033909	-2.994400	3.857600	-11.550000	21.906291	0.000447	20.755578
129.040504	-3.020400	3.858300	-11.653000	21.919678	0.000447	20.768504
130.036935	-2.982700	3.857600	-11.505000	21.913845	0.000448	20.728999
131.039632	-2.997400	3.857200	-11.561000	21.951889	0.000447	20.768504
132.038603	-2.990400	3.856000	-11.530000	21.951344	0.000446	20.772701
133.039577	-3.006400	3.857000	-11.595000	21.957598	0.000449	20.735811
134.039329	-3.008500	3.856800	-11.602000	21.946583	0.000448	20.748019
135.044638	-2.983100	3.856700	-11.504000	21.966272	0.000446	20.753504
136.039816	-3.002800	3.856400	-11.579000	21.966223	0.000448	20.757248
137.037382	-2.990000	3.855300	-11.526000	21.959690	0.000448	20.786271
138.043610	-3.012700	3.856300	-11.617000	21.960115	0.000447	20.758246
139.041646	-3.000800	3.856700	-11.573000	21.982455	0.000448	20.771600
140.044969	-2.989200	3.856700	-11.528000	21.979538	0.000450	20.762517
141.041125	-2.985300	3.857800	-11.515000	21.987290	0.000447	20.749413
142.042052	-3.003400	3.854500	-11.576000	22.006884	0.000448	20.748164
143.042170	-2.986600	3.854600	-11.511000	22.026756	0.000449	20.742453
144.042256	-2.991200	3.855100	-11.531000	22.039318	0.000448	20.748391
145.043790	-2.978000	3.854700	-11.479000	22.031315	0.000452	20.746069
146.042461	-3.018700	3.854700	-11.636000	22.023561	0.000451	20.745418
147.046954	-3.024000	3.854600	-11.655000	22.035999	0.000449	20.758345
148.042079	-3.004100	3.854300	-11.577000	22.058062	0.000450	20.760043
149.048207	-3.008300	3.854600	-11.595000	22.056369	0.000449	20.737485
150.044459	-3.002200	3.853500	-11.568000	22.051205	0.000450	20.752230
151.044626	-2.988200	3.855900	-11.521000	22.093383	0.000451	20.734237
152.047564	-3.001600	3.853600	-11.566000	22.073367	0.000451	20.731742
153.044994	-2.997900	3.854600	-11.554000	22.085882	0.000451	20.750436
154.045200	-3.006000	3.853600	-11.583000	22.077654	0.000453	20.731766
155.045982	-2.999000	3.854000	-11.557000	22.102830	0.000453	20.731841
156.051703	-3.006900	3.853700	-11.587000	22.123295	0.000452	20.743794
157.046206	-2.992500	3.852800	-11.529000	22.127808	0.000452	20.746891
158.046606	-3.015400	3.852200	-11.615000	22.123719	0.000451	20.735210
159.046454	-3.021200	3.852400	-11.638000	22.138178	0.000453	20.736409
160.048042	-3.026200	3.852400	-11.657000	22.153679	0.000452	20.744817
161.046533	-3.026100	3.852400	-11.656000	22.173694	0.000453	20.727871
162.049409	-3.006800	3.853100	-11.585000	22.164597	0.000455	20.728246
163.048463	-2.987300	3.853800	-11.512000	22.178207	0.000455	20.725277
164.049557	-3.014900	3.851700	-11.611000	22.185533	0.000454	20.743518
165.052593	-3.011500	3.851500	-11.598000	22.202158	0.000454	20.737404
166.048533	-2.987900	3.852300	-11.510000	22.182766	0.000454	20.736480
167.052918	-3.006500	3.851200	-11.578000	22.192439	0.000454	20.722931
168.047811	-2.994600	3.851300	-11.533000	22.193860	0.000454	20.736682
169.049438	-3.017900	3.851300	-11.622000	22.205622	0.000456	20.738501
170.049212	-3.010500	3.850700	-11.592000	22.202508	0.000456	20.737280
171.050272	-3.005400	3.851000	-11.573000	22.237728	0.000456	20.724654
172.051768	-3.008700	3.850700	-11.585000	22.219429	0.000457	20.739523
173.050237	-2.977100	3.851500	-11.466000	22.227932	0.000457	20.747089
174.052385	-3.021700	3.850800	-11.634000	22.234018	0.000457	20.725680
175.050611	-2.990900	3.849600	-11.513000	22.249967	0.000459	20.711302
176.054237	-2.989800	3.851000	-11.513000	22.253904	0.000457	20.722831
177.052612	-2.997300	3.850200	-11.540000	22.232745	0.000458	20.731044
178.053165	-2.989800	3.851600	-11.515000	22.269432	0.000459	20.735535
179.052615	-3.002600	3.849200	-11.557000	22.275118	0.000459	20.733642
180.054101	-2.993200	3.849300	-11.521000	22.287281	0.000459	20.734441
181.059395	-3.004900	3.849700	-11.567000	22.293459	0.000458	20.715496
182.053353	-2.999800	3.849700	-11.548000	22.299639	0.000460	20.720736
183.057161	-2.993700	3.848600	-11.520000	22.313774	0.000461	20.716398
184.054336	-2.987600	3.849100	-11.499000	22.347345	0.000461	20.721090
185.053802	-2.983200	3.849600	-11.484000	22.353250	0.000461	20.720839
186.055161	-2.985600	3.848100	-11.487000	22.350288	0.000462	20.720718
187.054766	-3.007400	3.847400	-11.568000	22.336602	0.000462	20.725506
188.060745	-3.042700	3.845000	-11.697000	22.348387	0.000461	20.714073
189.059867	-3.005800	3.847500	-11.564000	22.329549	0.000463	20.730772
190.059195	-2.981500	3.848400	-11.473000	22.327927	0.000464	20.721087
191.056149	-3.008900	3.847500	-11.576000	22.346196	0.000462	20.725630
192.059614	-3.013700	3.845200	-11.587000	22.356483	0.000464	20.708429
193.058058	-2.983400	3.848300	-11.480000	22.376674	0.000463	20.725804
194.068043	-2.986600	3.846400	-11.487000	22.379710	0.000463	20.717463
195.056557	-2.995800	3.846900	-11.524000	22.408946	0.000465	20.723033
196.056943	-2.996700	3.845600	-11.522000	22.419483	0.000465	20.735956
197.060456	-3.012800	3.845000	-11.583000	22.416890	0.000466	20.722453
198.057518	-2.988000	3.846500	-11.492000	22.430324	0.000465	20.741597
199.063018	-3.000600	3.847200	-11.543000	22.431218	0.000466	20.727319
200.061582	-2.984900	3.845200	-11.476000	22.423042	0.000467	20.708698
201.062366	-2.998400	3.845700	-11.530000	22.448312	0.000466	20.715988
202.060972	-3.000400	3.845900	-11.539000	22.431016	0.000468	20.696769
203.061449	-3.002600	3.845200	-11.544000	22.456033	0.000468	20.724669
204.063508	-2.997400	3.845200	-11.525000	22.464880	0.000467	20.727839
205.063821	-3.003600	3.844400	-11.545000	22.456531	0.000467	20.715210
206.063541	-3.011600	3.842600	-11.571000	22.443772	0.000466	20.730408
207.063179	-3.022100	3.843600	-11.614000	22.443617	0.000467	20.708915
208.066386	-3.010900	3.843800	-11.572000	22.471329	0.000469	20.729082
209.063512	-2.994300	3.845500	-11.514000	22.488921	0.000467	20.729156
210.066391	-3.011600	3.843500	-11.574000	22.475915	0.000468	20.740787
211.065620	-2.990700	3.843300	-11.493000	22.511841	0.000469	20.708013
212.065719	-3.016100	3.843800	-11.592000	22.510746	0.000468	20.697906
213.066184	-2.997400	3.842900	-11.518000	22.524299	0.000470	20.731871
214.068132	-2.982600	3.841900	-11.457000	22.534090	0.000470	20.718916
215.069483	-2.987300	3.843300	-11.480000	22.556514	0.000470	20.733789
216.070340	-2.995000	3.842200	-11.507000	22.563390	0.000471	20.723605
217.069988	-2.991100	3.842600	-11.493000	22.540814	0.000471	20.715218
218.066337	-2.986200	3.842500	-11.474000	22.573378	0.000470	20.732186
219.074437	-3.012100	3.841100	-11.569000	22.588626	0.000472	20.718060
220.068102	-3.018000	3.840700	-11.590000	22.605121	0.000471	20.723676
221.070874	-3.004900	3.841400	-11.542000	22.572879	0.000471	20.736903
222.069421	-3.001700	3.841600	-11.531000	22.580500	0.000473	20.728889
223.068250	-2.974100	3.841100	-11.423000	22.610799	0.000471	20.726992
224.069273	-2.989900	3.840900	-11.483000	22.614360	0.000473	20.715859
225.068016	-2.993300	3.841000	-11.496000	22.631151	0.000474	20.728411
226.074252	-2.986800	3.840600	-11.470000	22.640891	0.000474	20.708294
227.070280	-2.987500	3.841700	-11.476000	22.662021	0.000474	20.711914
228.069544	-3.008700	3.839500	-11.551000	22.656266	0.000473	20.702356
229.068650	-3.008700	3.840200	-11.553000	22.649586	0.000474	20.710838
230.073792	-3.012500	3.839400	-11.566000	22.662738	0.000474	20.732548
231.070680	-2.977800	3.840000	-11.434000	22.662392	0.000473	20.733624
232.073366	-3.008100	3.838800	-11.547000	22.637726	0.000474	20.731203
233.074149	-2.996100	3.840100	-11.505000	22.628679	0.000476	20.730676
234.072768	-3.017000	3.838300	-11.579000	22.639691	0.000477	20.716101
235.078441	-2.971000	3.839900	-11.407000	22.655687	0.000475	20.738762
236.074185	-3.004300	3.837300	-11.527000	22.669814	0.000477	20.734420
237.076581	-2.990600	3.839300	-11.481000	22.714035	0.000477	20.729877
238.072822	-2.967600	3.838200	-11.390000	22.701128	0.000475	20.744923
239.072616	-2.983000	3.837600	-11.447000	22.702353	0.000478	20.727184
240.074287	-2.978100	3.839000	-11.432000	22.727166	0.000476	20.739711
241.072134	-3.005100	3.836800	-11.529000	22.735711	0.000478	20.714130
242.077857	-2.985400	3.836400	-11.452000	22.724697	0.000477	20.724434
243.077300	-2.996800	3.836800	-11.497000	22.709800	0.000478	20.735592
244.073955	-2.959000	3.838100	-11.357000	22.734838	0.000478	20.740284
245.074557	-2.994700	3.836500	-11.488000	22.749837	0.000478	20.730177
246.078279	-2.997700	3.836600	-11.500000	22.759901	0.000480	20.731250
247.080546	-2.998500	3.836100	-11.502000	22.785560	0.000478	20.711433
248.077654	-3.009200	3.834800	-11.539000	22.783543	0.000479	20.726483
249.075991	-2.969900	3.836700	-11.394000	22.794980	0.000480	20.734622
250.076109	-2.979100	3.836600	-11.429000	22.810720	0.000479	20.749916
251.075931	-2.981200	3.836000	-11.435000	22.775672	0.000480	20.742782
252.076163	-2.994700	3.834800	-11.483000	22.768544	0.000482	20.744651
253.078850	-2.971200	3.835200	-11.394000	22.756513	0.000481	20.728330
254.075841	-3.002200	3.834700	-11.512000	22.776195	0.000481	20.741883
255.075638	-2.992900	3.834300	-11.475000	22.801582	0.000482	20.718475
256.076534	-2.984900	3.835500	-11.448000	22.834191	0.000483	20.736918
257.076149	-2.991300	3.833700	-11.467000	22.820493	0.000482	20.746430
258.076478	-2.998600	3.832900	-11.493000	22.843336	0.000483	20.716206
259.076732	-2.984600	3.834000	-11.442000	22.853098	0.000483	20.716029
260.076613	-2.996200	3.834000	-11.487000	22.867273	0.000485	20.755836
261.077171	-2.996400	3.833400	-11.486000	22.872058	0.000484	20.740241
262.078972	-2.995100	3.833100	-11.479000	22.889072	0.000484	20.730732
263.079977	-3.015000	3.832200	-11.554000	22.874100	0.000483	20.743709
264.079726	-2.977300	3.833800	-11.414000	22.877664	0.000485	20.726889
265.081426	-3.009100	3.833200	-11.534000	22.906484	0.000485	20.725417
266.080760	-2.986300	3.832600	-11.445000	22.898139	0.000487	20.760680
267.086135	-2.983300	3.833400	-11.436000	22.887429	0.000487	20.727664
268.080039	-2.989600	3.831800	-11.454000	22.904990	0.000485	20.739568
269.086780	-3.010400	3.830800	-11.532000	22.920930	0.000487	20.756012
270.081967	-2.994700	3.830700	-11.470000	22.926761	0.000485	20.749526
271.081366	-3.003700	3.830900	-11.506000	22.931719	0.000487	20.753546
272.080046	-2.998000	3.831500	-11.485000	22.931020	0.000487	20.740991
273.086256	-3.002400	3.829400	-11.496000	22.958967	0.000487	20.753818
274.082521	-3.008900	3.831200	-11.527000	22.981486	0.000486	20.742714
275.084545	-3.004400	3.830300	-11.507000	22.967211	0.000487	20.756862
276.082441	-3.011600	3.829200	-11.531000	22.972092	0.000488	20.747527
277.082558	-3.003600	3.829300	-11.501000	22.989305	0.000489	20.758135
278.082573	-2.998200	3.829400	-11.480000	22.983054	0.000489	20.759459
279.082617	-3.002700	3.830300	-11.499000	22.975856	0.000490	20.743238
280.090365	-2.993800	3.829000	-11.462000	22.985519	0.000490	20.743436
281.082634	-2.997200	3.829400	-11.477000	22.999988	0.000490	20.746080
282.083300	-3.021900	3.829200	-11.570000	23.022478	0.000490	20.751069
283.083884	-2.991100	3.828400	-11.449000	22.992070	0.000488	20.754268
284.083347	-3.016400	3.827300	-11.543000	23.021506	0.000492	20.739664
285.087060	-2.997200	3.828800	-11.475000	23.035307	0.000491	20.746380
286.089717	-3.003700	3.829000	-11.500000	23.030925	0.000492	20.746731
287.084927	-3.021400	3.828800	-11.567000	23.046615	0.000493	20.747753
288.085286	-3.000300	3.827200	-11.481000	23.053113	0.000495	20.770860
289.086995	-3.004300	3.827400	-11.498000	23.063799	0.000491	20.744109
290.084626	-2.991100	3.826600	-11.445000	23.054211	0.000496	20.762951
291.090613	-3.007100	3.826500	-11.505000	23.071148	0.000495	20.776603
292.087655	-2.990000	3.827300	-11.442000	23.063827	0.000495	20.747456
293.087313	-2.990500	3.826400	-11.442000	23.051669	0.000494	20.753766
294.089103	-2.999000	3.825600	-11.472000	23.031893	0.000495	20.755287
295.089333	-3.012900	3.825600	-11.524000	23.046287	0.000494	20.759753
296.090374	-2.998300	3.824900	-11.468000	23.061504	0.000494	20.756508
297.090869	-2.999100	3.824800	-11.470000	23.071844	0.000496	20.762127
298.087522	-3.000200	3.825300	-11.476000	23.079140	0.000496	20.745729
299.088081	-3.012300	3.824400	-11.520000	23.078766	0.000496	20.757683
300.089379	-2.994600	3.824500	-11.451000	23.102150	0.000496	20.753614
301.091069	-3.023400	3.824300	-11.561000	23.069676	0.000497	20.774179
302.100129	-2.990500	3.825100	-11.438000	23.092238	0.000496	20.754587
303.089319	-3.005400	3.824600	-11.493000	23.094678	0.000495	20.774576
304.092942	-3.006600	3.823300	-11.495000	23.109026	0.000497	20.754813
305.091183	-3.011400	3.824600	-11.517000	23.139433	0.000498	20.761101
306.089201	-3.005600	3.823900	-11.492000	23.123793	0.000500	20.763921
307.093049	-2.986300	3.823200	-11.417000	23.147301	0.000498	20.761873
308.095139	-2.988400	3.823500	-11.425000	23.138014	0.000499	20.773429
309.091159	-2.988500	3.822500	-11.422000	23.135725	0.000499	20.772085
310.092850	-3.012900	3.822100	-11.515000	23.126336	0.000499	20.763150
311.093418	-3.003400	3.823000	-11.481000	23.163342	0.000498	20.759930
312.093389	-3.012000	3.823000	-11.514000	23.179529	0.000499	20.784685
313.097815	-2.996400	3.822900	-11.454000	23.219023	0.000500	20.761200
314.094421	-3.007100	3.822300	-11.494000	23.219821	0.000500	20.752991
315.093982	-3.003200	3.821400	-11.475000	23.226946	0.000503	20.767718
316.097607	-3.007900	3.821300	-11.493000	23.203137	0.000499	20.774678
317.096151	-2.995400	3.821400	-11.445000	23.209839	0.000501	20.764799
318.101130	-2.990700	3.821400	-11.428000	23.224778	0.000502	20.784512
319.098398	-3.004700	3.822200	-11.483000	23.248884	0.000504	20.779745
320.097474	-3.010300	3.819700	-11.497000	23.261009	0.000502	20.781465
321.100651	-3.002500	3.820200	-11.469000	23.268653	0.000503	20.769686
322.102025	-2.993400	3.821500	-11.438000	23.278638	0.000503	20.772580
323.101784	-3.016600	3.819400	-11.521000	23.258668	0.000504	20.768688
324.101112	-3.004600	3.819400	-11.474000	23.286928	0.000504	20.784682
325.100380	-2.999300	3.819700	-11.455000	23.288948	0.000503	20.786232
326.100753	-3.004200	3.818800	-11.472000	23.307424	0.000504	20.797636
327.103201	-2.996600	3.819200	-11.443000	23.337176	0.000502	20.775772
328.100577	-3.005700	3.818100	-11.474000	23.329811	0.000504	20.775977
329.103770	-3.019400	3.818100	-11.527000	23.326743	0.000506	20.786653
330.102738	-3.004300	3.817700	-11.468000	23.326842	0.000505	20.791494
331.104987	-2.979300	3.819400	-11.377000	23.340488	0.000502	20.782885
332.104148	-2.996900	3.818400	-11.443000	23.347411	0.000507	20.778444
333.103750	-2.987700	3.818200	-11.406000	23.373879	0.000509	20.783160
334.111546	-2.996200	3.818100	-11.438000	23.336728	0.000506	20.790022
335.105068	-3.007000	3.817500	-11.478000	23.362130	0.000509	20.794144
336.107418	-3.015100	3.816800	-11.507000	23.378010	0.000505	20.792042
337.107196	-3.007200	3.816700	-11.477000	23.345540	0.000508	20.797431
338.108805	-2.973400	3.818100	-11.352000	23.362222	0.000508	20.791391
339.111844	-2.985400	3.815800	-11.391000	23.354776	0.000506	20.801473
340.113061	-2.986600	3.816800	-11.398000	23.373505	0.000507	20.788001
341.112316	-3.022700	3.815200	-11.531000	23.362074	0.000508	20.811157
342.110670	-2.992200	3.815100	-11.415000	23.366134	0.000508	20.791044
343.113298	-2.991300	3.816900	-11.416000	23.386275	0.000507	20.811231
344.109287	-2.984000	3.814800	-11.382000	23.408114	0.000508	20.798507
345.113831	-2.989500	3.814200	-11.401000	23.443466	0.000510	20.782258
346.110987	-2.995700	3.815000	-11.428000	23.416456	0.000508	20.786005
347.110692	-2.994200	3.814600	-11.421000	23.401215	0.000510	20.806292
348.111374	-3.019900	3.814000	-11.517000	23.390808	0.000508	20.805343
349.113028	-2.977800	3.813900	-11.356000	23.368100	0.000509	20.818619
350.113378	-2.985900	3.815200	-11.391000	23.424893	0.000510	20.811058
351.115910	-2.977700	3.813700	-11.355000	23.431516	0.000511	20.802049
352.112573	-3.017600	3.811900	-11.502000	23.403207	0.000510	20.805917
353.114192	-3.011200	3.813400	-11.482000	23.404079	0.000510	20.813429
354.115141	-3.022800	3.812800	-11.524000	23.437916	0.000510	20.789972
355.114152	-3.014900	3.813600	-11.497000	23.447875	0.000510	20.805170
356.114869	-2.997100	3.811800	-11.423000	23.441874	0.000512	20.809586
357.114841	-2.986300	3.811600	-11.382000	23.448150	0.000512	20.819670
358.114818	-2.985700	3.810800	-11.377000	23.466052	0.000513	20.815328
359.119241	-3.016500	3.810600	-11.493000	23.499241	0.000512	20.824415
360.116427	-3.023600	3.810500	-11.520000	23.502627	0.000511	20.815480
361.121299	-3.015100	3.811800	-11.493000	23.528541	0.000511	20.821542
362.116796	-3.024700	3.809800	-11.522000	23.547387	0.000512	20.810562
363.118474	-3.016100	3.811200	-11.494000	23.588668	0.000512	20.802632
364.120254	-2.980200	3.810700	-11.355000	23.560585	0.000513	20.814309
365.120386	-2.987400	3.810500	-11.383000	23.552074	0.000512	20.810993
366.118162	-2.988100	3.810800	-11.386000	23.551125	0.000514	20.810990
367.120232	-2.988600	3.809800	-11.385000	23.547594	0.000513	20.821201
368.118570	-2.988400	3.810100	-11.384000	23.535670	0.000514	20.807826
369.121304	-2.994000	3.808800	-11.402000	23.542793	0.000515	20.823501
370.121373	-3.020500	3.807600	-11.499000	23.550757	0.000515	20.819156
371.118562	-2.980900	3.809200	-11.353000	23.545134	0.000515	20.821580
372.123372	-3.006300	3.809100	-11.450000	23.573065	0.000515	20.794578
373.119383	-3.019200	3.806900	-11.493000	23.547551	0.000517	20.819262
374.120387	-3.000000	3.808400	-11.424000	23.586309	0.000514	20.812596
375.119345	-3.005500	3.807700	-11.443000	23.581434	0.000515	20.828097
376.119798	-3.007400	3.807700	-11.451000	23.590919	0.000516	20.827648
377.122910	-3.019600	3.807700	-11.497000	23.594180	0.000518	20.823331
378.123986	-2.978000	3.808500	-11.341000	23.607473	0.000516	20.824803
379.120507	-2.991000	3.806900	-11.386000	23.599058	0.000517	20.832014
380.121809	-2.989200	3.806500	-11.378000	23.589129	0.000517	20.838655
381.124052	-2.999700	3.806400	-11.417000	23.604886	0.000517	20.833589
382.123627	-3.011000	3.806400	-11.461000	23.595899	0.000517	20.823157
383.124420	-3.011000	3.805300	-11.457000	23.590347	0.000520	20.837980
384.123950	-2.993300	3.805900	-11.391000	23.580018	0.000518	20.840902
385.123698	-3.012500	3.805300	-11.463000	23.566499	0.000522	20.834462
386.124488	-3.007600	3.805100	-11.443000	23.608468	0.000520	20.825801
387.124186	-2.974000	3.805400	-11.317000	23.618902	0.000518	20.834363
388.125162	-2.988500	3.805200	-11.372000	23.662838	0.000521	20.826728
389.124065	-3.004700	3.803900	-11.429000	23.649694	0.000521	20.845792
390.124682	-3.010900	3.804400	-11.454000	23.673317	0.000520	20.849560
391.126578	-3.013900	3.804500	-11.466000	23.665225	0.000520	20.825801
392.126781	-2.990900	3.804100	-11.376000	23.648000	0.000520	20.839353
393.126635	-3.015500	3.801200	-11.462000	23.634983	0.000520	20.846691
394.126701	-3.012400	3.803100	-11.455000	23.645886	0.000520	20.828224
395.125778	-3.008100	3.802700	-11.438000	23.650068	0.000521	20.822934
396.125994	-3.015000	3.801800	-11.461000	23.692980	0.000522	20.844618
397.127810	-2.969600	3.802900	-11.292000	23.675061	0.000519	20.859843
398.126231	-2.971900	3.803600	-11.303000	23.684171	0.000522	20.859018
399.129872	-2.999300	3.802500	-11.404000	23.704285	0.000522	20.853580
400.129325	-3.007300	3.800300	-11.428000	23.703858	0.000522	20.869272
401.124352	-2.996100	3.801800	-11.389000	23.714488	0.000523	20.839154
402.126973	-2.997000	3.799400	-11.385000	23.717350	0.000521	20.853877
403.125060	-2.990400	3.800400	-11.364000	23.731884	0.000520	20.835733
404.125498	-2.981100	3.802000	-11.333000	23.747914	0.000521	20.852752
405.129469	-2.986500	3.799800	-11.347000	23.746771	0.000522	20.841175
406.127330	-2.997000	3.799300	-11.386000	23.735918	0.000523	20.857320
407.126014	-2.996900	3.799300	-11.384000	23.751475	0.000522	20.826926
408.129025	-2.980000	3.800500	-11.325000	23.761181	0.000522	20.851829
409.127522	-3.020100	3.799000	-11.473000	23.786022	0.000522	20.870097
410.130127	-3.004800	3.798000	-11.412000	23.779151	0.000522	20.864630
411.127465	-3.005500	3.798500	-11.415000	23.822757	0.000523	20.869945
412.128238	-2.990000	3.798800	-11.358000	23.817357	0.000523	20.841773
413.127390	-3.015000	3.797800	-11.449000	23.800580	0.000523	20.847710
414.126353	-3.014600	3.798200	-11.449000	23.825495	0.000521	20.853251
415.128111	-3.021400	3.797000	-11.472000	23.831819	0.000522	20.843471
416.127141	-3.008900	3.796500	-11.422000	23.822880	0.000523	20.864379
417.127746	-2.973600	3.799600	-11.297000	23.825594	0.000525	20.858092
418.128150	-2.993300	3.796800	-11.364000	23.801325	0.000525	20.854147
419.128124	-2.967900	3.797300	-11.269000	23.773152	0.000525	20.859089
420.127105	-3.004000	3.796200	-11.402000	23.776836	0.000523	20.875585
421.131493	-2.987200	3.796400	-11.340000	23.820142	0.000526	20.873012
422.130270	-2.985100	3.795900	-11.331000	23.847071	0.000523	20.880099
423.127683	-2.992800	3.795300	-11.357000	23.875091	0.000525	20.879746
424.129971	-2.995800	3.795800	-11.371000	23.856476	0.000524	20.880521
425.129325	-2.991900	3.794700	-11.352000	23.835249	0.000527	20.867772
426.132633	-2.992100	3.796800	-11.360000	23.842491	0.000527	20.870766
427.131091	-3.000800	3.795500	-11.387000	23.818374	0.000526	20.879774
428.130240	-3.023200	3.793800	-11.468000	23.838729	0.000525	20.872210
429.133400	-2.997700	3.793400	-11.371000	23.848462	0.000526	20.875330
430.130036	-3.000000	3.794300	-11.383000	23.880515	0.000527	20.880917
431.133018	-2.992600	3.794800	-11.355000	23.887311	0.000527	20.868293
432.132578	-3.010400	3.792900	-11.416000	23.890046	0.000527	20.886207
433.132410	-3.000000	3.792400	-11.376000	23.900347	0.000525	20.876148
434.134477	-2.983500	3.793400	-11.317000	23.931978	0.000528	20.903597
435.138042	-3.001500	3.794000	-11.387000	23.924212	0.000529	20.903396
436.134129	-2.981200	3.792800	-11.306000	23.910672	0.000526	20.862795
437.136757	-3.008200	3.792900	-11.409000	23.880681	0.000527	20.879188
438.137996	-3.005300	3.791700	-11.394000	23.863461	0.000530	20.885627
439.133138	-3.010600	3.791700	-11.414000	23.887972	0.000528	20.881757
440.134250	-3.005300	3.791600	-11.394000	23.883540	0.000527	20.901493
441.133552	-3.003900	3.790100	-11.385000	23.883141	0.000528	20.907730
442.134663	-3.007300	3.790700	-11.399000	23.931097	0.000528	20.882327
443.134591	-2.989600	3.791100	-11.333000	23.935127	0.000529	20.892057
444.134978	-3.001700	3.790300	-11.376000	23.921312	0.000528	20.892903
445.134501	-2.981100	3.789300	-11.296000	23.952548	0.000529	20.881552
446.136230	-3.002100	3.789000	-11.375000	23.981538	0.000529	20.882175
447.137125	-2.989800	3.789400	-11.328000	23.979919	0.000528	20.893826
448.141028	-3.002300	3.790400	-11.379000	23.970833	0.000528	20.902732
449.136919	-3.003400	3.790400	-11.383000	23.995917	0.000529	20.911765
450.137197	-3.011300	3.787900	-11.406000	23.993402	0.000529	20.910190
451.140513	-2.980300	3.788600	-11.290000	23.996464	0.000529	20.904727
452.134944	-3.017800	3.788000	-11.430000	24.013909	0.000530	20.908945
453.142021	-3.009200	3.788200	-11.398000	23.983222	0.000530	20.890501
454.137727	-2.993900	3.788500	-11.342000	24.016545	0.000531	20.919174
455.138591	-3.010300	3.787700	-11.402000	24.010645	0.000528	20.884337
456.136345	-3.015600	3.786800	-11.419000	24.022215	0.000530	20.885983
457.138011	-2.998000	3.787200	-11.353000	24.017314	0.000531	20.907144
458.137765	-2.980000	3.788000	-11.288000	24.012738	0.000530	20.883591
459.140761	-3.002700	3.786900	-11.370000	23.987749	0.000530	20.895989
460.139482	-2.981300	3.786600	-11.288000	23.994916	0.000530	20.899382
461.137098	-2.990400	3.785900	-11.320000	24.013902	0.000530	20.882388
462.139012	-2.999200	3.785600	-11.353000	24.013080	0.000532	20.884883
463.137683	-2.982200	3.785900	-11.289000	24.038710	0.000533	20.895886
464.145102	-2.993900	3.786400	-11.335000	24.055209	0.000532	20.898681
465.139853	-3.004800	3.786400	-11.377000	24.086211	0.000531	20.888524
466.140657	-3.026600	3.784200	-11.452000	24.089076	0.000530	20.894715
467.141369	-2.981200	3.785300	-11.283000	24.063045	0.000533	20.872878
468.142659	-3.001000	3.784100	-11.355000	24.019495	0.000532	20.889419
469.145750	-3.014000	3.784600	-11.406000	24.062569	0.000532	20.871452
470.169402	-3.016700	3.782500	-11.410000	24.066877	0.000534	20.901374
471.148012	-2.991100	3.782700	-11.313000	24.103679	0.000534	20.872379
472.145438	-3.016300	3.782400	-11.408000	24.117735	0.000532	20.863717
473.146197	-3.008200	3.782700	-11.378000	24.089567	0.000534	20.869131
474.145392	-2.987100	3.783300	-11.300000	24.125772	0.000535	20.892165
475.149236	-3.014700	3.781900	-11.400000	24.093127	0.000534	20.877916
476.144954	-2.997400	3.781800	-11.335000	24.078990	0.000533	20.886023
477.145934	-2.999000	3.781200	-11.339000	24.083597	0.000536	20.874523
478.150886	-2.983000	3.782100	-11.281000	24.121715	0.000533	20.859174
479.148197	-3.002300	3.782100	-11.354000	24.132218	0.000535	20.885353
480.150057	-3.000300	3.781200	-11.344000	24.111166	0.000534	20.873249
481.146582	-2.998700	3.780300	-11.335000	24.113357	0.000534	20.867386
482.145642	-2.988500	3.780600	-11.298000	24.120448	0.000533	20.869283
483.146665	-2.988100	3.781200	-11.298000	24.132712	0.000533	20.874944
484.145450	-3.035500	3.778900	-11.470000	24.141175	0.000532	20.856407
485.149906	-2.982400	3.780300	-11.274000	24.156998	0.000534	20.887922
486.150526	-3.020500	3.780700	-11.418000	24.171727	0.000534	20.849118
487.148556	-3.024500	3.778700	-11.428000	24.195787	0.000534	20.859500
488.146994	-3.032100	3.778500	-11.456000	24.206311	0.000535	20.863417
489.153190	-2.982300	3.779700	-11.271000	24.223727	0.000532	20.882781
490.150529	-3.021100	3.778900	-11.415000	24.230370	0.000536	20.862419
491.152821	-2.985700	3.778900	-11.281000	24.207086	0.000537	20.864195
492.149903	-3.010600	3.778200	-11.374000	24.226987	0.000533	20.844802
493.150362	-3.006800	3.777600	-11.358000	24.203156	0.000534	20.838443
494.151395	-3.002300	3.777500	-11.340000	24.226990	0.000535	20.852391
495.153377	-2.993000	3.776700	-11.303000	24.214400	0.000535	20.868211
496.155924	-3.002000	3.775800	-11.334000	24.211440	0.000537	20.854811
497.151626	-2.996900	3.776600	-11.318000	24.208032	0.000535	20.862298
498.153919	-2.992400	3.776200	-11.299000	24.170439	0.000536	20.858731
499.153393	-2.993100	3.776400	-11.303000	24.162427	0.000534	20.838369
500.154399	-3.006400	3.776100	-11.351000	24.176560	0.000534	20.851595
501.154433	-3.027900	3.775000	-11.429000	24.156384	0.000534	20.856014
502.158046	-3.006600	3.775000	-11.348000	24.199177	0.000536	20.871434
503.158507	-2.999200	3.774100	-11.319000	24.238440	0.000534	20.850600
504.156015	-2.987200	3.775100	-11.276000	24.234109	0.000536	20.835824
505.156383	-2.986800	3.773900	-11.271000	24.205174	0.000534	20.859432
506.160312	-3.009800	3.774600	-11.360000	24.193631	0.000535	20.860656
507.157364	-2.998000	3.773900	-11.313000	24.174199	0.000533	20.826943
508.155987	-3.029900	3.772700	-11.431000	24.140934	0.000535	20.855217
509.159452	-3.002100	3.773600	-11.328000	24.151332	0.000537	20.830085
510.159626	-3.003200	3.774200	-11.333000	24.210229	0.000537	20.840321
511.159002	-3.006400	3.774100	-11.345000	24.185548	0.000536	20.854920
512.156659	-3.005600	3.772800	-11.339000	24.207766	0.000534	20.844015
513.160810	-2.998100	3.771800	-11.307000	24.219486	0.000538	20.837752
514.156193	-3.008100	3.772200	-11.346000	24.233445	0.000537	20.862184
515.157786	-3.000600	3.771700	-11.316000	24.234192	0.000537	20.825477
516.158982	-2.980800	3.773000	-11.245000	24.230411	0.000538	20.839701
517.155861	-2.992900	3.771700	-11.287000	24.234019	0.000536	20.835261
518.160334	-3.000200	3.770600	-11.311000	24.239763	0.000535	20.837703
519.157950	-2.994400	3.771800	-11.294000	24.241258	0.000538	20.837780
520.157817	-2.994800	3.770000	-11.290000	24.254618	0.000537	20.844542
521.157730	-2.983900	3.771800	-11.254000	24.228770	0.000537	20.833315
522.157802	-2.992300	3.770100	-11.280000	24.218720	0.000536	20.817070
523.159590	-3.013400	3.770100	-11.360000	24.212200	0.000536	20.832816
524.159753	-2.993900	3.770300	-11.286000	24.209710	0.000535	20.826525
525.160195	-3.011200	3.769800	-11.351000	24.245364	0.000537	20.827675
526.161345	-2.988300	3.770000	-11.265000	24.277363	0.000536	20.839383
527.163516	-3.008000	3.769400	-11.338000	24.297265	0.000536	20.838958
528.161515	-2.995000	3.769300	-11.288000	24.338981	0.000535	20.822958
529.163065	-2.986100	3.769200	-11.255000	24.350624	0.000535	20.850284
530.165272	-3.003300	3.768300	-11.316000	24.364186	0.000534	20.836389
531.166092	-2.980600	3.768700	-11.232000	24.346049	0.000537	20.815350
532.165170	-2.993800	3.766800	-11.276000	24.321050	0.000536	20.818248
533.162166	-2.991900	3.768000	-11.272000	24.354239	0.000537	20.850117
534.165633	-2.991400	3.767300	-11.268000	24.385579	0.000535	20.836987
535.163732	-2.998200	3.767100	-11.293000	24.348119	0.000534	20.817427
536.164599	-2.984300	3.767500	-11.243000	24.333668	0.000535	20.825214
537.165712	-3.025700	3.766600	-11.396000	24.329237	0.000536	20.817926
538.166645	-3.010100	3.765900	-11.335000	24.344761	0.000533	20.828282
539.165974	-3.008300	3.765600	-11.327000	24.349216	0.000534	20.827061
540.168313	-3.011600	3.766100	-11.340000	24.371981	0.000532	20.829036
541.164242	-3.020100	3.765000	-11.369000	24.374916	0.000535	20.836247
542.164792	-3.014700	3.764100	-11.346000	24.370961	0.000536	20.822797
543.168578	-2.994400	3.765600	-11.275000	24.368154	0.000533	20.838472
544.174551	-3.038600	3.762500	-11.431000	24.342856	0.000537	20.809302
545.169785	-2.986600	3.764700	-11.243000	24.355169	0.000535	20.835878
546.168119	-2.998100	3.763600	-11.283000	24.367854	0.000534	20.814938
547.169615	-3.019400	3.762300	-11.359000	24.361391	0.000535	20.817939
548.168945	-2.991800	3.763900	-11.260000	24.400568	0.000535	20.826420
549.170558	-2.990300	3.764300	-11.255000	24.384703	0.000538	20.838953
550.174930	-2.987000	3.762800	-11.238000	24.388459	0.000537	20.826126
551.170920	-3.018400	3.762500	-11.355000	24.374678	0.000535	20.829845
552.172733	-3.002500	3.762300	-11.295000	24.377737	0.000536	20.850456
553.171771	-3.031600	3.762000	-11.404000	24.390674	0.000535	20.820288
554.171613	-3.010600	3.761500	-11.323000	24.377391	0.000534	20.805540
555.171815	-3.005900	3.761900	-11.307000	24.386798	0.000535	20.815925
556.175179	-3.004600	3.761900	-11.302000	24.404282	0.000538	20.819240
557.175956	-3.009700	3.761300	-11.320000	24.427670	0.000536	20.828953
558.172798	-3.011100	3.760700	-11.323000	24.447594	0.000537	20.824286
559.173448	-2.999900	3.761200	-11.282000	24.451576	0.000535	20.823539
560.174963	-2.985300	3.760700	-11.225000	24.484013	0.000533	20.824788
561.175186	-3.009600	3.760100	-11.315000	24.474910	0.000537	20.817078
562.175851	-2.962000	3.761900	-11.141000	24.421702	0.000536	20.801155
563.173081	-3.014700	3.759800	-11.334000	24.451036	0.000537	20.803083
564.172784	-3.003100	3.759100	-11.288000	24.449368	0.000536	20.820375
565.174141	-2.991500	3.759600	-11.246000	24.399346	0.000535	20.813341
566.176421	-2.996200	3.758500	-11.260000	24.410863	0.000536	20.795971
567.179295	-2.989200	3.759400	-11.237000	24.444768	0.000535	20.808649
568.176586	-2.988000	3.757400	-11.226000	24.460368	0.000537	20.825721
569.178212	-3.000200	3.758600	-11.276000	24.450048	0.000536	20.795454
570.184381	-3.022100	3.757100	-11.353000	24.459049	0.000535	20.809225
571.179407	-2.995300	3.757800	-11.254000	24.460248	0.000534	20.809006
572.179358	-2.985900	3.758100	-11.220000	24.450242	0.000536	20.811770
573.177811	-2.971400	3.758700	-11.166000	24.428706	0.000534	20.806759
574.177620	-2.992800	3.757600	-11.245000	24.413656	0.000534	20.820109
575.179873	-2.988100	3.756200	-11.223000	24.407314	0.000534	20.812325
576.177753	-2.990800	3.757900	-11.238000	24.437537	0.000538	20.823679
577.183989	-2.989900	3.756900	-11.232000	24.460872	0.000534	20.795407
578.177269	-2.998400	3.756200	-11.261000	24.440126	0.000533	20.825802
579.178145	-2.981500	3.756200	-11.197000	24.480996	0.000534	20.824606
580.178166	-3.007000	3.754800	-11.290000	24.496370	0.000534	20.800202
581.177768	-2.989800	3.754900	-11.225000	24.494476	0.000534	20.803992
582.185519	-2.981400	3.755000	-11.194000	24.469403	0.000534	20.814872
583.185369	-2.997200	3.754900	-11.253000	24.505300	0.000536	20.806790
584.180706	-2.989200	3.753700	-11.220000	24.533358	0.000533	20.811709
585.180092	-2.993300	3.753700	-11.235000	24.519104	0.000533	20.800251
586.182678	-2.983100	3.752500	-11.193000	24.521142	0.000533	20.812728
587.179283	-2.981100	3.753400	-11.187000	24.499103	0.000536	20.797254
588.183708	-2.981300	3.753500	-11.188000	24.490102	0.000535	20.792491
589.182069	-2.985100	3.753900	-11.205000	24.511764	0.000535	20.818492
590.179389	-2.979400	3.751900	-11.178000	24.507613	0.000535	20.808637
591.179493	-3.001800	3.752300	-11.263000	24.508555	0.000533	20.805789
592.180878	-2.990200	3.751800	-11.217000	24.522958	0.000537	20.795584
593.182839	-2.969000	3.751900	-11.139000	24.498532	0.000532	20.795733
594.183981	-3.003400	3.751900	-11.268000	24.466317	0.000532	20.813673
595.184798	-2.996500	3.751600	-11.240000	24.480943	0.000534	20.803217
596.181388	-3.010600	3.751200	-11.292000	24.494977	0.000535	20.795485
597.184524	-2.986900	3.751500	-11.204000	24.525244	0.000533	20.786023
598.181884	-3.016600	3.748600	-11.307000	24.512360	0.000534	20.792538
599.185762	-3.012500	3.750100	-11.296000	24.533828	0.000536	20.793687
600.181719	-3.018100	3.751000	-11.320000	24.558300	0.000534	20.802594
601.180477	-3.002000	3.750200	-11.258000	24.613092	0.000536	20.784077
602.183087	-2.995900	3.749400	-11.231000	24.636542	0.000535	20.779159
603.181827	-3.007500	3.748500	-11.273000	24.597674	0.000535	20.801798
604.186254	-3.020900	3.748600	-11.324000	24.599434	0.000534	20.784123
605.182183	-3.019500	3.747600	-11.315000	24.576553	0.000534	20.802417
606.180794	-2.997100	3.748000	-11.232000	24.577350	0.000533	20.791363
607.181506	-2.989900	3.749000	-11.208000	24.569811	0.000534	20.812721
608.183432	-2.996200	3.748400	-11.230000	24.572597	0.000535	20.783748
609.183390	-3.001100	3.747100	-11.244000	24.574413	0.000532	20.789364
610.183881	-3.013100	3.747600	-11.291000	24.556582	0.000533	20.770051
611.190588	-3.002800	3.747200	-11.251000	24.578938	0.000533	20.778731
612.184753	-3.001200	3.745200	-11.239000	24.562846	0.000533	20.793405
613.188400	-2.998000	3.745600	-11.228000	24.575577	0.000535	20.804757
614.187604	-3.014500	3.746600	-11.294000	24.611713	0.000534	20.771314
615.188217	-2.973100	3.746200	-11.137000	24.605221	0.000532	20.773335
616.186668	-3.025200	3.745600	-11.330000	24.610889	0.000535	20.784712
617.187542	-2.975200	3.745600	-11.143000	24.641780	0.000533	20.781095
618.185629	-3.013200	3.744400	-11.282000	24.622081	0.000533	20.787882
619.187349	-3.006300	3.745700	-11.260000	24.641357	0.000534	20.780670
620.190111	-2.979000	3.745300	-11.156000	24.653890	0.000535	20.783763
621.189613	-2.979200	3.744500	-11.155000	24.616581	0.000533	20.765767
622.189151	-2.986500	3.743900	-11.179000	24.593697	0.000532	20.788799
623.189684	-2.980300	3.744500	-11.158000	24.660424	0.000533	20.797907
624.192615	-2.990300	3.743800	-11.193000	24.658062	0.000533	20.782734
625.192249	-2.988400	3.744000	-11.188000	24.641946	0.000533	20.805918
626.195721	-3.019100	3.742400	-11.298000	24.618295	0.000533	20.788824
627.193846	-3.013700	3.742300	-11.277000	24.614811	0.000534	20.781535
628.192456	-3.006900	3.741100	-11.248000	24.629833	0.000531	20.792815
629.195879	-2.993000	3.742900	-11.202000	24.649676	0.000533	20.782380
630.193086	-3.015100	3.741600	-11.279000	24.646742	0.000533	20.796032
631.199329	-3.008000	3.740800	-11.251000	24.668105	0.000534	20.790441
632.194477	-3.026300	3.740900	-11.319000	24.680588	0.000533	20.803916
633.195380	-2.989600	3.742900	-11.189000	24.678423	0.000534	20.790838
634.195457	-2.987600	3.740900	-11.175000	24.635769	0.000531	20.792133
635.196383	-2.995900	3.741200	-11.207000	24.664247	0.000532	20.774716
636.195291	-2.996600	3.741700	-11.211000	24.681406	0.000534	20.780555
637.197783	-3.008100	3.740300	-11.250000	24.701026	0.000531	20.773690
638.195853	-2.987000	3.740700	-11.172000	24.696922	0.000530	20.768149
639.194942	-2.994600	3.739800	-11.199000	24.699136	0.000532	20.785070
640.197935	-2.991500	3.740600	-11.189000	24.700628	0.000532	20.772342
641.198236	-3.020800	3.738500	-11.292000	24.732458	0.000532	20.789585
642.196704	-2.999200	3.739000	-11.212000	24.690705	0.000532	20.758591
643.195095	-2.992300	3.739000	-11.187000	24.660090	0.000531	20.776235
644.198282	-3.033200	3.738100	-11.338000	24.671903	0.000529	20.792356
645.198750	-3.004200	3.738600	-11.231000	24.687320	0.000530	20.781274
646.198114	-3.022000	3.737700	-11.294000	24.715621	0.000530	20.772689
647.199511	-2.995400	3.738200	-11.196000	24.725942	0.000530	20.762183
648.198044	-2.985800	3.738600	-11.161000	24.754415	0.000531	20.779851
649.199368	-2.995700	3.738400	-11.199000	24.791741	0.000530	20.780799
650.197947	-3.014600	3.735800	-11.261000	24.801236	0.000529	20.773733
651.198376	-2.983600	3.737200	-11.149000	24.744666	0.000530	20.784292
652.208884	-2.989200	3.738000	-11.173000	24.722437	0.000529	20.759140
653.201810	-2.987900	3.737400	-11.167000	24.749363	0.000530	20.771462
654.200342	-2.993200	3.735600	-11.181000	24.766601	0.000529	20.760311
655.199495	-2.991600	3.736100	-11.176000	24.718876	0.000529	20.775955
656.202795	-2.981500	3.736600	-11.141000	24.694676	0.000530	20.768741
657.200601	-2.989100	3.736800	-11.169000	24.704229	0.000529	20.778326
658.202864	-3.024600	3.734400	-11.294000	24.670803	0.000530	20.777028
659.200866	-3.006600	3.734800	-11.227000	24.638996	0.000528	20.761706
660.202245	-3.017800	3.733800	-11.267000	24.656282	0.000530	20.762456
661.201249	-3.002000	3.734000	-11.208000	24.702261	0.000527	20.758334
662.204286	-3.010700	3.734700	-11.243000	24.729889	0.000529	20.763298
663.203938	-2.992800	3.733600	-11.173000	24.739017	0.000527	20.765821
664.206830	-3.011600	3.732300	-11.240000	24.735985	0.000526	20.765623
665.204489	-2.976000	3.734000	-11.112000	24.727628	0.000525	20.778100
666.205213	-2.987700	3.734100	-11.155000	24.766894	0.000527	20.762502
667.206417	-3.047200	3.731600	-11.370000	24.758167	0.000527	20.776978
668.206478	-2.983300	3.732700	-11.135000	24.723450	0.000527	20.755414
669.210519	-2.987800	3.732900	-11.153000	24.735287	0.000526	20.764448
670.205726	-2.996400	3.733700	-11.186000	24.755329	0.000528	20.751370
671.206673	-2.984400	3.732600	-11.139000	24.731757	0.000525	20.742888
672.209413	-3.000100	3.731600	-11.194000	24.739166	0.000528	20.769763
673.208014	-3.005300	3.732100	-11.215000	24.749486	0.000526	20.766844
674.209382	-2.993600	3.731900	-11.171000	24.726257	0.000526	20.755860
675.204968	-3.008400	3.730300	-11.222000	24.714821	0.000525	20.751971
676.207126	-3.023300	3.730500	-11.278000	24.728175	0.000527	20.773907
677.206515	-3.016700	3.730600	-11.254000	24.736278	0.000524	20.729406
678.208139	-3.007900	3.730000	-11.219000	24.778851	0.000525	20.755061
679.206662	-3.010900	3.730100	-11.230000	24.753439	0.000527	20.730980
680.212825	-2.987800	3.729600	-11.143000	24.737498	0.000526	20.750545
681.207631	-2.994400	3.729600	-11.167000	24.726183	0.000526	20.749622
682.207806	-2.992700	3.730300	-11.163000	24.695269	0.000525	20.744204
683.210956	-2.980400	3.729100	-11.113000	24.749106	0.000528	20.756979
684.209428	-3.018900	3.728100	-11.253000	24.790088	0.000526	20.748320
685.212832	-3.000300	3.727800	-11.184000	24.820125	0.000526	20.731997
686.210604	-3.022900	3.726700	-11.264000	24.827212	0.000525	20.735316
687.211813	-3.003200	3.728300	-11.196000	24.784316	0.000523	20.752959
688.211535	-3.002100	3.727500	-11.190000	24.778425	0.000525	20.737089
689.210869	-2.998900	3.728400	-11.178000	24.808162	0.000524	20.738009
690.211671	-2.995600	3.727300	-11.165000	24.740623	0.000524	20.740879
691.216817	-3.009300	3.726500	-11.213000	24.735774	0.000524	20.741703
692.213369	-3.030500	3.726200	-11.292000	24.778644	0.000524	20.737783
693.217377	-3.014900	3.725700	-11.232000	24.814452	0.000523	20.755702
694.218157	-3.023100	3.726200	-11.263000	24.823161	0.000524	20.754484
695.215901	-2.995800	3.725900	-11.160000	24.836830	0.000524	20.746866
696.217366	-3.014700	3.725400	-11.231000	24.840508	0.000524	20.726848
697.216082	-2.991800	3.725700	-11.146000	24.780336	0.000523	20.744223
698.216740	-3.001700	3.723300	-11.175000	24.795776	0.000522	20.737432
699.214953	-2.999800	3.725400	-11.174000	24.863062	0.000525	20.726724
700.215966	-2.988600	3.724800	-11.131000	24.855302	0.000523	20.726049
701.221166	-2.998100	3.725500	-11.168000	24.900285	0.000522	20.743696
702.220096	-2.996800	3.724300	-11.160000	24.867610	0.000521	20.757843
703.216255	-3.008200	3.722300	-11.197000	24.840455	0.000522	20.710673
704.216802	-3.014800	3.722200	-11.220000	24.847817	0.000525	20.727546
705.221614	-3.001800	3.724400	-11.179000	24.802980	0.000521	20.740395
706.217985	-3.001800	3.724200	-11.179000	24.779208	0.000522	20.733608
707.219851	-3.018400	3.723200	-11.237000	24.755659	0.000521	20.735579
708.215916	-3.010700	3.722000	-11.205000	24.770506	0.000522	20.738625
709.218570	-3.005700	3.722500	-11.188000	24.815913	0.000523	20.740097
710.216127	-3.001400	3.723000	-11.174000	24.816360	0.000522	20.751927
711.216938	-2.981900	3.723300	-11.102000	24.831874	0.000521	20.727666
712.218786	-3.010900	3.721800	-11.206000	24.838612	0.000521	20.740593
713.219925	-3.006000	3.721700	-11.186000	24.819513	0.000522	20.726166
714.225588	-2.992900	3.722100	-11.139000	24.847536	0.000521	20.723470
715.216665	-3.004100	3.720400	-11.175000	24.863997	0.000521	20.753269
716.217172	-3.022000	3.720000	-11.240000	24.925335	0.000520	20.731853
717.217572	-3.013200	3.719600	-11.207000	24.902038	0.000519	20.720324
718.219977	-3.017800	3.720400	-11.225000	24.901563	0.000520	20.731701
719.216716	-3.035600	3.719600	-11.291000	24.885500	0.000519	20.722218
720.217901	-2.984100	3.721300	-11.103000	24.906160	0.000520	20.717349
721.218824	-2.998800	3.719400	-11.153000	24.901736	0.000520	20.739936
722.220444	-2.989700	3.720100	-11.121000	24.924137	0.000518	20.728280
723.226001	-3.003900	3.719100	-11.170000	24.945593	0.000519	20.742229
724.219008	-2.997500	3.720100	-11.150000	24.970305	0.000519	20.718669
725.218884	-3.003000	3.719000	-11.166000	24.977839	0.000519	20.734766
726.222976	-3.017900	3.719100	-11.222000	24.945191	0.000520	20.729023
727.220160	-3.036000	3.717300	-11.285000	24.949492	0.000518	20.730495
728.221228	-3.001000	3.717900	-11.156000	24.964485	0.000519	20.739855
729.221797	-3.019800	3.717900	-11.227000	24.948822	0.000519	20.737884
730.221667	-3.000500	3.716800	-11.151000	24.914210	0.000517	20.734912
731.221347	-2.993100	3.717200	-11.125000	24.901003	0.000518	20.735882
732.228637	-2.982500	3.719100	-11.091000	24.910455	0.000516	20.722608
733.221727	-2.992600	3.718100	-11.126000	24.936858	0.000520	20.717339
734.221611	-2.980700	3.717200	-11.078000	24.919304	0.000518	20.740025
735.222645	-2.992600	3.717600	-11.124000	24.944039	0.000517	20.713167
736.222454	-2.984100	3.716200	-11.088000	24.897020	0.000517	20.729987
737.220666	-2.974000	3.716700	-11.053000	24.865096	0.000518	20.737301
738.221634	-2.993600	3.716200	-11.124000	24.820581	0.000518	20.735773
739.228372	-3.004300	3.717200	-11.166000	24.837265	0.000517	20.733077
740.223691	-3.001700	3.715700	-11.153000	24.896424	0.000516	20.743614
741.232190	-3.001600	3.715400	-11.151000	24.909998	0.000518	20.718830
742.225070	-2.995400	3.716300	-11.131000	24.938960	0.000516	20.736994
743.222993	-3.010800	3.715400	-11.185000	24.938117	0.000518	20.721448
744.226541	-3.014100	3.713100	-11.190000	24.955497	0.000515	20.756438
745.228205	-3.008900	3.713900	-11.174000	24.960419	0.000517	20.746679
746.222894	-3.006000	3.713900	-11.163000	24.948531	0.000516	20.742808
747.224943	-3.024700	3.713400	-11.231000	24.921033	0.000514	20.719948
748.225752	-2.992600	3.713500	-11.112000	24.911909	0.000515	20.735448
749.230416	-2.986200	3.712700	-11.085000	24.937496	0.000513	20.749750
750.230280	-2.994600	3.713900	-11.120000	24.942168	0.000515	20.741637
751.228745	-2.998400	3.712400	-11.130000	24.984109	0.000515	20.722567
752.229234	-2.983500	3.713400	-11.078000	24.993807	0.000515	20.742260
753.229682	-3.010000	3.711800	-11.171000	24.969965	0.000516	20.724018
754.228670	-3.011000	3.712200	-11.177000	24.920635	0.000513	20.744680
755.229191	-2.998700	3.711900	-11.130000	24.918822	0.000512	20.746180
756.233114	-3.011200	3.710300	-11.172000	24.909198	0.000513	20.741736
757.229945	-3.017100	3.710900	-11.195000	24.931525	0.000512	20.752292
758.231574	-2.981300	3.710800	-11.063000	24.918498	0.000513	20.733052
759.232175	-2.983500	3.712000	-11.074000	24.931599	0.000512	20.740512
760.232751	-3.009700	3.710500	-11.166000	24.966134	0.000511	20.739613
761.235012	-2.996100	3.710200	-11.114000	24.967653	0.000513	20.733551
762.233008	-2.996300	3.710100	-11.115000	24.955272	0.000513	20.756212
763.232941	-3.012300	3.709100	-11.172000	24.919566	0.000510	20.768265
764.238689	-3.003200	3.708900	-11.138000	24.927372	0.000514	20.754287
765.236242	-3.006200	3.708000	-11.146000	24.973445	0.000510	20.757858
766.238398	-3.017000	3.708400	-11.187000	24.991272	0.000510	20.751569
767.237040	-2.993400	3.708600	-11.100000	25.015289	0.000512	20.728735
768.236886	-2.981300	3.708600	-11.055000	24.985678	0.000511	20.721296
769.236929	-3.007800	3.708200	-11.153000	24.965340	0.000511	20.726013
770.236650	-3.005500	3.707700	-11.143000	24.982995	0.000510	20.763176
771.239161	-2.993500	3.707500	-11.097000	25.007534	0.000509	20.759358
772.239748	-3.011400	3.707400	-11.163000	25.011782	0.000510	20.758406
773.236207	-2.999000	3.706300	-11.114000	25.015490	0.000510	20.737946
774.238844	-2.999000	3.707900	-11.119000	25.003233	0.000509	20.741290
775.239448	-2.997900	3.707100	-11.113000	25.027722	0.000510	20.734577
776.237994	-2.984800	3.707200	-11.064000	25.017506	0.000509	20.761781
777.242304	-3.005900	3.707100	-11.143000	25.016836	0.000510	20.752100
778.238902	-2.988300	3.707400	-11.078000	25.009349	0.000509	20.744584
779.237181	-3.012400	3.706200	-11.164000	24.974594	0.000509	20.734354
780.243035	-3.012100	3.706100	-11.162000	24.966066	0.000510	20.755192
781.238595	-2.986100	3.706900	-11.068000	24.915222	0.000507	20.757740
782.237910	-3.021900	3.704300	-11.193000	24.913505	0.000510	20.760238
783.238447	-3.004400	3.705000	-11.131000	24.881532	0.000508	20.751901
784.237788	-3.011500	3.704600	-11.156000	24.883869	0.000508	20.748557
785.238683	-2.994300	3.703800	-11.089000	24.922114	0.000507	20.740475
786.243588	-2.990700	3.705300	-11.079000	24.897147	0.000509	20.756668
787.239635	-2.989300	3.703600	-11.070000	24.903165	0.000506	20.751802
788.241201	-2.970900	3.705100	-11.006000	24.905579	0.000507	20.747113
789.240557	-2.982000	3.704600	-11.047000	24.884049	0.000508	20.760117
790.239491	-3.010100	3.703000	-11.146000	24.906197	0.000507	20.747733
791.246725	-3.011100	3.703300	-11.150000	24.902794	0.000506	20.764233
792.240939	-2.973500	3.703100	-11.010000	24.910378	0.000509	20.749558
793.245253	-2.976000	3.703000	-11.020000	24.986484	0.000505	20.758617
794.245128	-3.000100	3.702600	-11.108000	25.005953	0.000506	20.767255
795.242509	-2.981300	3.702700	-11.038000	25.004734	0.000506	20.763660
796.243412	-3.000300	3.702100	-11.105000	25.054060	0.000505	20.763861
797.243954	-3.010700	3.701400	-11.142000	25.084238	0.000507	20.778507
798.246017	-2.983000	3.702100	-11.043000	25.099751	0.000506	20.750931
799.246089	-2.959500	3.703900	-10.960000	25.050951	0.000504	20.746041
800.244172	-2.991700	3.701200	-11.071000	25.022885	0.000504	20.769551
801.243726	-2.985000	3.700600	-11.045000	25.026287	0.000504	20.743568
802.246363	-3.001400	3.701400	-11.109000	25.029822	0.000504	20.749013
803.244346	-3.015500	3.701400	-11.161000	25.002023	0.000506	20.771844
804.247206	-3.024200	3.700400	-11.190000	24.970024	0.000503	20.767227
805.245190	-2.981700	3.700800	-11.033000	24.984319	0.000503	20.768773
806.245155	-3.020000	3.700300	-11.174000	25.017463	0.000503	20.759841
807.246871	-2.996900	3.701200	-11.090000	25.060201	0.000506	20.764335
808.244514	-3.013600	3.699300	-11.147000	25.076307	0.000505	20.762011
809.252071	-2.995700	3.699300	-11.082000	25.067928	0.000503	20.764506
810.249634	-3.007600	3.699300	-11.124000	25.047046	0.000503	20.793804
811.246442	-2.996500	3.698300	-11.080000	25.074069	0.000504	20.766876
812.244771	-2.996100	3.698800	-11.081000	25.045752	0.000502	20.771169
813.245457	-2.997600	3.699100	-11.087000	25.071435	0.000503	20.768500
814.246711	-2.997700	3.698000	-11.084000	25.061016	0.000501	20.774637
815.253342	-2.995000	3.698200	-11.075000	25.066508	0.000502	20.766399
816.246910	-3.021100	3.698200	-11.172000	25.103277	0.000500	20.777705
817.248132	-3.001600	3.699600	-11.103000	25.131119	0.000501	20.776257
818.248414	-2.989300	3.698900	-11.056000	25.135571	0.000501	20.760811
819.246401	-3.009400	3.696700	-11.124000	25.131020	0.000502	20.765252
820.251755	-3.016500	3.697100	-11.151000	25.086896	0.000502	20.784021
821.250190	-3.002900	3.696700	-11.099000	25.088088	0.000501	20.789010
822.250715	-2.993000	3.696300	-11.063000	25.038244	0.000500	20.777382
823.250444	-3.003100	3.695600	-11.098000	25.044730	0.000497	20.791006
824.251143	-3.006500	3.695700	-11.110000	25.022575	0.000499	20.778250
825.251838	-2.996300	3.696000	-11.074000	24.998985	0.000497	20.779226
826.251388	-2.998600	3.695200	-11.079000	24.995104	0.000497	20.793349
827.250588	-2.996200	3.695800	-11.072000	25.004653	0.000499	20.782545
828.251741	-3.005700	3.695500	-11.107000	25.002986	0.000498	20.765699
829.253313	-2.998000	3.694400	-11.075000	25.007262	0.000499	20.767146
830.250709	-2.994900	3.694800	-11.065000	25.009253	0.000498	20.779102
831.254253	-2.979000	3.694200	-11.004000	25.012310	0.000499	20.786912
832.252716	-2.995300	3.693400	-11.062000	25.046292	0.000498	20.776927
833.251342	-3.030100	3.693300	-11.190000	25.037194	0.000497	20.788657
834.252950	-2.977300	3.693700	-10.996000	25.068765	0.000496	20.799959
835.253378	-2.974600	3.693100	-10.985000	25.105783	0.000497	20.793497
836.257013	-2.995800	3.694400	-11.067000	25.066878	0.000496	20.780047
837.256947	-2.982700	3.693600	-11.016000	25.121917	0.000495	20.790253
838.253454	-2.991800	3.692900	-11.047000	25.099671	0.000496	20.802534
839.254246	-3.006900	3.692000	-11.100000	25.062775	0.000495	20.787309
840.253213	-3.024600	3.691900	-11.165000	25.096016	0.000495	20.779425
841.253764	-2.993500	3.693600	-11.056000	25.138176	0.000495	20.798041
842.256618	-3.015500	3.692700	-11.134000	25.146502	0.000497	20.800709
843.253808	-3.012300	3.692600	-11.122000	25.128032	0.000494	20.785486
844.252843	-3.013100	3.692100	-11.124000	25.145134	0.000496	20.787956
845.255016	-3.005900	3.689800	-11.090000	25.110432	0.000494	20.782043
846.254233	-3.013400	3.691200	-11.122000	25.114730	0.000496	20.792047
847.254907	-2.989200	3.691600	-11.034000	25.153164	0.000493	20.805974
848.254933	-2.988200	3.689800	-11.025000	25.157837	0.000494	20.790752
849.253007	-3.000900	3.690500	-11.073000	25.179761	0.000494	20.793321
850.253279	-3.001200	3.689000	-11.071000	25.182345	0.000493	20.794492
851.253917	-3.005500	3.689800	-11.089000	25.208768	0.000492	20.807743
852.259606	-2.997100	3.689300	-11.056000	25.225746	0.000492	20.784959
853.255736	-3.023200	3.688700	-11.151000	25.213862	0.000492	20.791046
854.253434	-2.993100	3.687900	-11.037000	25.221718	0.000493	20.824537
855.256412	-3.002300	3.689300	-11.076000	25.211080	0.000493	20.802478
856.258772	-2.979800	3.690200	-10.995000	25.217121	0.000492	20.787206
857.256755	-3.007600	3.687300	-11.089000	25.137105	0.000494	20.782266
858.258530	-3.016800	3.688100	-11.125000	25.097775	0.000493	20.794467
859.258093	-3.003000	3.688300	-11.076000	25.123179	0.000494	20.812383
860.259027	-2.997800	3.687800	-11.054000	25.145529	0.000492	20.806845
861.262810	-2.996500	3.687300	-11.049000	25.138769	0.000492	20.818076
862.259406	-3.003900	3.686800	-11.075000	25.136802	0.000492	20.796187
863.263256	-3.014000	3.685700	-11.107000	25.160890	0.000489	20.805670
864.258764	-2.992300	3.687100	-11.032000	25.185252	0.000490	20.783661
865.259708	-3.002100	3.687100	-11.068000	25.213713	0.000490	20.798958
866.260614	-3.007700	3.685600	-11.084000	25.219828	0.000491	20.801304
867.262613	-3.014600	3.684900	-11.108000	25.182317	0.000492	20.805844
868.259638	-2.975800	3.686600	-10.969000	25.152589	0.000489	20.814406
869.262776	-3.007900	3.684100	-11.080000	25.127430	0.000489	20.825659
870.261625	-2.997700	3.684800	-11.045000	25.127279	0.000490	20.808438
871.263402	-3.003100	3.685300	-11.067000	25.118209	0.000487	20.814506
872.274668	-3.008900	3.685000	-11.088000	25.131656	0.000490	20.814729
873.261847	-2.995300	3.683500	-11.033000	25.143757	0.000487	20.821661
874.268694	-2.990500	3.684700	-11.017000	25.179060	0.000488	20.796410
875.265406	-3.019600	3.683100	-11.120000	25.211994	0.000488	20.831370
876.263066	-3.017800	3.683100	-11.114000	25.240158	0.000487	20.809386
877.263087	-2.984500	3.683800	-10.993000	25.240204	0.000487	20.823657
878.266270	-3.020900	3.682700	-11.124000	25.206302	0.000488	20.822811
879.264145	-3.002300	3.683600	-11.058000	25.239111	0.000488	20.810232
880.266815	-3.029500	3.682100	-11.153000	25.272769	0.000487	20.815575
881.264789	-3.002100	3.683300	-11.057000	25.299984	0.000486	20.826303
882.269450	-3.024100	3.681900	-11.134000	25.310348	0.000485	20.822011
883.266892	-3.001900	3.683800	-11.057000	25.281069	0.000487	20.812528
884.265257	-3.019400	3.681500	-11.115000	25.269037	0.000484	20.836957
885.270962	-2.997100	3.681300	-11.031000	25.246742	0.000484	20.826427
886.265620	-2.998100	3.681200	-11.036000	25.252162	0.000484	20.831869
887.266868	-2.990800	3.681800	-11.011000	25.255588	0.000481	20.839102
888.268067	-2.997800	3.679900	-11.031000	25.263836	0.000484	20.831735
889.267624	-3.015700	3.680600	-11.099000	25.188799	0.000486	20.829895
890.269775	-3.004300	3.680700	-11.057000	25.170876	0.000483	20.836558
891.267136	-3.012800	3.681000	-11.090000	25.163965	0.000485	20.842895
892.270580	-3.007400	3.678200	-11.061000	25.147857	0.000482	20.824354
893.270640	-2.988800	3.679500	-10.997000	25.179051	0.000484	20.842393
894.269753	-2.993400	3.679300	-11.013000	25.201248	0.000482	20.818212
895.270018	-2.978400	3.679100	-10.957000	25.201847	0.000483	20.819761
896.271935	-3.002500	3.679800	-11.048000	25.171843	0.000481	20.846536
897.269615	-2.994900	3.678900	-11.017000	25.183153	0.000482	20.832761
898.271502	-3.039700	3.676100	-11.174000	25.206444	0.000481	20.845238
899.273115	-2.979700	3.678700	-10.960000	25.227249	0.000480	20.838624
900.270778	-3.011400	3.677900	-11.075000	25.268809	0.000481	20.840047
901.272034	-3.008200	3.678300	-11.064000	25.206539	0.000482	20.842963
902.274440	-2.988700	3.677000	-10.989000	25.184394	0.000480	20.839223
903.271453	-2.988800	3.676300	-10.987000	25.181162	0.000478	20.846409
904.272702	-2.998900	3.676500	-11.025000	25.208753	0.000480	20.853245
905.272957	-3.016900	3.677500	-11.093000	25.251008	0.000479	20.843511
906.274655	-3.000000	3.676900	-11.030000	25.252949	0.000479	20.836926
907.274829	-2.999200	3.676700	-11.027000	25.189737	0.000479	20.851225
908.273056	-3.000900	3.676000	-11.030000	25.194186	0.000477	20.839570
909.271763	-2.981300	3.675800	-10.958000	25.248279	0.000479	20.836979
910.281029	-3.020000	3.674800	-11.097000	25.267241	0.000477	20.852697
911.274942	-2.988200	3.675200	-10.981000	25.225138	0.000475	20.852151
912.276153	-3.006400	3.675200	-11.048000	25.241093	0.000477	20.855842
913.276107	-3.003900	3.675700	-11.040000	25.275343	0.000476	20.833331
914.273546	-3.017400	3.674000	-11.085000	25.233435	0.000474	20.859059
915.275993	-3.003400	3.674300	-11.035000	25.265552	0.000475	20.833459
916.279553	-3.005900	3.673600	-11.042000	25.275396	0.000477	20.855194
917.280530	-3.013900	3.672000	-11.067000	25.303999	0.000475	20.858783
918.275811	-2.996200	3.672000	-11.000000	25.302536	0.000476	20.848780
919.276823	-2.974200	3.673500	-10.925000	25.307283	0.000476	20.862554
920.276886	-2.977500	3.674500	-10.939000	25.274152	0.000474	20.871488
921.276196	-3.010100	3.672200	-11.053000	25.249270	0.000475	20.852198
922.276740	-2.994400	3.671300	-10.993000	25.235972	0.000473	20.865873
923.278921	-2.988800	3.672400	-10.975000	25.228663	0.000474	20.875129
924.277942	-2.992000	3.670900	-10.983000	25.237960	0.000473	20.854119
925.278203	-2.982000	3.672300	-10.949000	25.257968	0.000473	20.888903
926.277949	-3.003900	3.671400	-11.026000	25.292171	0.000473	20.871563
927.275745	-3.009600	3.670700	-11.047000	25.287400	0.000472	20.863927
928.278453	-2.989800	3.670700	-10.974000	25.264209	0.000473	20.879998
929.275166	-3.011100	3.670600	-11.052000	25.200625	0.000471	20.870215
930.277347	-3.009700	3.669900	-11.044000	25.182826	0.000473	20.850924
931.277431	-2.989800	3.670300	-10.972000	25.182406	0.000469	20.867097
932.279401	-3.010300	3.669300	-11.045000	25.234382	0.000473	20.875182
933.282736	-3.003000	3.670300	-11.021000	25.231073	0.000471	20.885135
934.282392	-3.013600	3.670000	-11.059000	25.271244	0.000470	20.879474
935.283037	-3.001000	3.668600	-11.008000	25.291625	0.000470	20.883341
936.279974	-3.020900	3.667200	-11.078000	25.313250	0.000469	20.874234
937.283599	-3.011000	3.669500	-11.048000	25.310959	0.000471	20.887580
938.281288	-3.021500	3.668200	-11.082000	25.321873	0.000471	20.891900
939.282554	-3.008900	3.667600	-11.034000	25.328460	0.000471	20.871962
940.282940	-3.004900	3.668100	-11.021000	25.299156	0.000470	20.867670
941.281215	-3.020900	3.667500	-11.078000	25.261651	0.000470	20.862731
942.280250	-2.998800	3.667300	-10.996000	25.245100	0.000468	20.878829
943.279181	-2.989700	3.667000	-10.962000	25.236197	0.000468	20.875582
944.284338	-3.018200	3.667000	-11.066000	25.272090	0.000468	20.864677
945.281000	-3.026600	3.666000	-11.095000	25.309348	0.000469	20.895919
946.282207	-3.019900	3.664500	-11.066000	25.317055	0.000468	20.873313
947.281698	-2.986400	3.665200	-10.945000	25.314225	0.000469	20.879006
948.283344	-2.989400	3.665100	-10.955000	25.337389	0.000468	20.868126
949.283973	-2.982200	3.665900	-10.932000	25.316858	0.000469	20.877382
950.282710	-2.994700	3.666400	-10.978000	25.325834	0.000466	20.894454
951.282548	-3.010000	3.664400	-11.030000	25.326182	0.000467	20.899545
952.282255	-3.004100	3.665000	-11.009000	25.343306	0.000467	20.878808
953.282553	-3.008100	3.663500	-11.019000	25.360137	0.000466	20.881008
954.281011	-3.003100	3.663700	-11.002000	25.320420	0.000466	20.901820
955.288874	-3.001600	3.664000	-10.997000	25.309009	0.000466	20.893208
956.282498	-2.996400	3.663800	-10.977000	25.307247	0.000465	20.881956
957.283805	-3.003200	3.663300	-11.000000	25.296261	0.000464	20.880884
958.282907	-2.995200	3.663300	-10.972000	25.269840	0.000464	20.893236
959.283746	-3.004800	3.663400	-11.006000	25.300336	0.000463	20.905835
960.285324	-2.986600	3.664300	-10.943000	25.314707	0.000463	20.896558
961.283998	-3.032600	3.661000	-11.101000	25.334315	0.000464	20.884953
962.284439	-2.997600	3.663000	-10.980000	25.364837	0.000463	20.892365
963.282746	-3.002600	3.661400	-10.992000	25.341998	0.000464	20.899303
964.286580	-3.038300	3.659600	-11.118000	25.344556	0.000462	20.898079
965.283518	-2.999700	3.661500	-10.982000	25.362628	0.000463	20.892991
966.285959	-2.992600	3.662200	-10.958000	25.327433	0.000463	20.874250
967.283678	-2.989000	3.660400	-10.940000	25.328476	0.000463	20.905640
968.285289	-3.008900	3.661100	-11.015000	25.347816	0.000461	20.908463
969.287037	-2.995100	3.661300	-10.965000	25.352736	0.000462	20.902498
970.288220	-3.007000	3.660600	-11.006000	25.299820	0.000464	20.901051
971.290573	-3.007300	3.659700	-11.005000	25.299774	0.000460	20.894367
972.288740	-3.008300	3.659500	-11.008000	25.296539	0.000460	20.898231
973.287727	-3.005500	3.659400	-10.998000	25.306136	0.000462	20.906443
974.286930	-2.995000	3.660000	-10.961000	25.340461	0.000462	20.893019
975.288680	-3.022300	3.657900	-11.055000	25.331214	0.000460	20.903648
976.294813	-2.996100	3.658100	-10.959000	25.318741	0.000459	20.899186
977.293108	-3.009800	3.658200	-11.009000	25.354159	0.000461	20.901082
978.290150	-2.994000	3.657600	-10.950000	25.350980	0.000462	20.883667
979.290962	-2.986800	3.658700	-10.927000	25.383387	0.000459	20.898662
980.292513	-2.988000	3.657500	-10.928000	25.416120	0.000462	20.895021
981.292511	-2.997000	3.657000	-10.958000	25.429493	0.000460	20.900862
982.295709	-3.001300	3.657900	-10.978000	25.447337	0.000458	20.881799
983.293939	-2.978800	3.658500	-10.897000	25.475072	0.000457	20.889735
984.290787	-3.026800	3.654400	-11.060000	25.432477	0.000457	20.884420
985.291250	-3.012900	3.655400	-11.013000	25.398729	0.000456	20.894628
986.292642	-3.026100	3.654700	-11.059000	25.389905	0.000461	20.914215
987.292565	-3.018700	3.654800	-11.031000	25.366295	0.000456	20.913741
988.292559	-3.006800	3.653800	-10.985000	25.334159	0.000457	20.880528
989.292257	-3.001400	3.655900	-10.972000	25.298046	0.000457	20.889313
990.289818	-2.993600	3.655000	-10.941000	25.312911	0.000454	20.891436
991.298194	-2.991900	3.653400	-10.930000	25.360853	0.000457	20.868452
992.292538	-3.001400	3.654000	-10.966000	25.384665	0.000457	20.870076
993.294186	-3.012000	3.653700	-11.004000	25.360681	0.000455	20.877287
994.291209	-3.014300	3.652400	-11.008000	25.348079	0.000456	20.892607
995.292741	-2.997000	3.653200	-10.947000	25.349693	0.000454	20.875263
996.290949	-3.006500	3.652700	-10.981000	25.366643	0.000453	20.869524
997.292130	-3.019300	3.652200	-11.026000	25.393584	0.000457	20.892307
998.298772	-2.997000	3.651000	-10.941000	25.441452	0.000453	20.889165
999.293348	-2.995600	3.653100	-10.942000	25.424129	0.000453	20.860866
1000.294793	-3.010600	3.651700	-10.993000	25.392742	0.000451	20.880556
1001.297188	-3.016000	3.651000	-11.010000	25.350964	0.000454	20.875592
1002.297070	-2.997000	3.652300	-10.944000	25.388986	0.000453	20.884371
1003.296445	-2.980700	3.653100	-10.888000	25.399701	0.000453	20.873321
1004.300525	-2.997800	3.651600	-10.946000	25.462129	0.000451	20.880531
1005.297797	-2.997700	3.649800	-10.940000	25.451862	0.000451	20.869273
1006.298553	-2.998800	3.651500	-10.949000	25.391149	0.000452	20.871371
1007.296732	-3.000700	3.650200	-10.952000	25.380733	0.000453	20.866128
1008.295168	-3.001800	3.650400	-10.958000	25.322053	0.000451	20.859366
1009.299363	-3.019400	3.649900	-11.019000	25.347399	0.000452	20.869642
1010.298691	-3.004400	3.650300	-10.965000	25.357344	0.000453	20.868722
1011.296294	-3.002500	3.649100	-10.954000	25.382445	0.000450	20.868796
1012.296463	-2.998300	3.648800	-10.940000	25.414802	0.000451	20.844863
1013.298297	-2.995600	3.649900	-10.933000	25.448102	0.000451	20.866921
1014.299180	-2.992300	3.648800	-10.917000	25.457666	0.000451	20.867990
1015.298329	-2.994300	3.648900	-10.925000	25.501084	0.000450	20.855641
1016.297847	-2.994100	3.649000	-10.924000	25.465820	0.000449	20.828764
1017.304244	-2.987100	3.647700	-10.895000	25.477223	0.000451	20.850171
1018.302310	-2.978900	3.648300	-10.866000	25.457441	0.000452	20.858755
1019.300129	-2.978300	3.647200	-10.862000	25.430600	0.000449	20.868786
1020.299558	-3.004100	3.647100	-10.956000	25.364069	0.000450	20.839440
1021.298814	-3.005600	3.647000	-10.960000	25.356165	0.000449	20.863744
1022.298505	-3.002600	3.646100	-10.947000	25.358924	0.000447	20.843757
1023.297775	-3.010500	3.646200	-10.975000	25.340831	0.000448	20.854987
1024.298426	-2.954900	3.647300	-10.777000	25.346970	0.000448	20.833651
1025.300799	-3.015700	3.643900	-10.988000	25.348458	0.000446	20.843679
1026.298494	-2.989600	3.645300	-10.897000	25.385192	0.000446	20.845002
1027.299391	-3.001700	3.645100	-10.941000	25.450778	0.000446	20.864392
1028.300236	-3.002100	3.645000	-10.942000	25.466286	0.000444	20.860999
1029.299394	-2.970200	3.644900	-10.826000	25.469640	0.000447	20.849669
1030.300405	-2.982800	3.644300	-10.869000	25.475680	0.000446	20.860949
1031.306251	-3.010200	3.643400	-10.967000	25.446408	0.000447	20.843884
1032.301345	-2.990400	3.643900	-10.896000	25.439699	0.000443	20.860853
1033.300468	-3.004300	3.642700	-10.943000	25.403111	0.000446	20.868210
1034.300560	-2.979800	3.642300	-10.852000	25.422548	0.000444	20.842210
1035.301966	-3.003500	3.642300	-10.938000	25.367254	0.000443	20.844535
1036.302149	-2.985300	3.643900	-10.877000	25.393124	0.000443	20.833527
1037.299424	-3.026000	3.640400	-11.014000	25.405028	0.000442	20.846902
1038.299763	-3.014700	3.641300	-10.977000	25.406420	0.000445	20.861101
1039.299634	-3.010100	3.641700	-10.960000	25.395439	0.000443	20.858136
1040.300377	-3.002900	3.641500	-10.934000	25.463283	0.000441	20.839967
1041.302234	-2.983200	3.640700	-10.860000	25.465323	0.000443	20.848653
1042.303224	-2.993200	3.639700	-10.893000	25.486694	0.000439	20.846406
1043.300586	-3.020600	3.639800	-10.994000	25.423076	0.000440	20.840844
1044.302447	-3.008500	3.640400	-10.951000	25.428771	0.000439	20.855096
1045.302788	-2.981000	3.640800	-10.853000	25.469082	0.000440	20.845790
1046.302796	-2.989300	3.640300	-10.881000	25.442714	0.000438	20.843968
1047.303760	-2.977300	3.640900	-10.839000	25.454843	0.000437	20.824853
1048.302337	-2.992100	3.639000	-10.886000	25.427953	0.000439	20.824404
1049.302451	-2.995000	3.639800	-10.900000	25.431832	0.000438	20.824981
1050.302165	-3.005300	3.638800	-10.935000	25.456164	0.000438	20.810533
1051.303009	-3.010500	3.637400	-10.950000	25.511108	0.000439	20.845793
1052.307986	-3.007900	3.637800	-10.942000	25.551441	0.000437	20.821339
1053.304094	-2.992000	3.637700	-10.884000	25.507609	0.000437	20.819520
1054.305980	-2.998700	3.637600	-10.907000	25.480671	0.000437	20.817599
1055.305378	-2.991400	3.637800	-10.880000	25.480893	0.000437	20.824934
1056.305554	-2.992800	3.637000	-10.884000	25.416306	0.000436	20.834994
1057.304266	-2.996800	3.636000	-10.895000	25.394084	0.000436	20.844448
1058.307622	-2.998200	3.635000	-10.898000	25.459870	0.000436	20.849342
1059.305463	-3.004500	3.635800	-10.923000	25.502115	0.000439	20.827280
1060.306080	-2.993300	3.635000	-10.880000	25.527066	0.000434	20.806818
1061.308636	-2.987300	3.635000	-10.858000	25.514194	0.000434	20.821392
1062.306826	-2.997300	3.635600	-10.896000	25.520678	0.000435	20.830748
1063.310338	-3.002800	3.634200	-10.911000	25.511710	0.000435	20.815579
1064.307878	-2.989900	3.634300	-10.866000	25.512873	0.000434	20.818643
1065.307596	-2.984600	3.634100	-10.845000	25.517320	0.000430	20.841126
1066.310186	-3.005000	3.633100	-10.917000	25.481492	0.000433	20.821742
1067.310313	-3.002600	3.634100	-10.911000	25.470878	0.000432	20.810611
1068.309844	-3.019400	3.632600	-10.967000	25.492898	0.000435	20.822291
1069.308934	-3.025600	3.632700	-10.990000	25.517221	0.000433	20.833915
1070.306288	-2.994400	3.631700	-10.874000	25.526868	0.000432	20.833645
1071.309506	-3.005900	3.632300	-10.917000	25.478655	0.000431	20.820317
1072.309452	-3.011900	3.631400	-10.936000	25.471175	0.000432	20.830348
1073.309937	-3.023900	3.631000	-10.979000	25.516428	0.000430	20.802299
1074.326157	-2.998300	3.631400	-10.887000	25.467795	0.000430	20.835015
1075.310400	-3.024400	3.630600	-10.980000	25.474254	0.000429	20.833915
1076.309843	-3.016900	3.630900	-10.953000	25.488046	0.000429	20.835436
1077.312408	-3.012200	3.630400	-10.933000	25.555412	0.000429	20.811103
1078.310102	-2.999100	3.630900	-10.889000	25.551833	0.000429	20.822681
1079.312711	-2.999100	3.629300	-10.883000	25.561874	0.000427	20.823282
1080.311679	-3.007200	3.629800	-10.915000	25.593454	0.000426	20.814695
1081.309409	-3.000900	3.629300	-10.890000	25.631618	0.000426	20.823152
1082.312061	-3.016000	3.628000	-10.941000	25.622327	0.000428	20.813347
1083.311602	-2.998000	3.630000	-10.882000	25.567561	0.000429	20.818562
1084.314809	-3.026700	3.628200	-10.980000	25.546608	0.000427	20.811270
1085.316649	-2.995400	3.629000	-10.869000	25.574862	0.000425	20.820205
1086.310514	-2.987600	3.627500	-10.836000	25.566734	0.000426	20.832430
1087.309886	-2.995100	3.628300	-10.865000	25.568478	0.000426	20.846983
1088.312015	-2.984000	3.627700	-10.824000	25.594241	0.000428	20.834925
1089.310031	-3.013600	3.626000	-10.925000	25.537091	0.000425	20.800765
1090.314673	-2.980100	3.627600	-10.809000	25.513607	0.000425	20.817010
1091.310043	-2.987500	3.626400	-10.833000	25.508185	0.000425	20.807771
1092.310750	-3.006100	3.627000	-10.902000	25.503541	0.000424	20.814487
1093.311357	-2.986700	3.626900	-10.832000	25.502442	0.000424	20.807220
1094.311088	-3.008300	3.626000	-10.907000	25.487336	0.000423	20.819077
1095.312662	-3.002400	3.625700	-10.885000	25.531765	0.000422	20.801580
1096.310848	-3.011600	3.625700	-10.918000	25.560368	0.000423	20.817976
1097.311061	-2.962300	3.625000	-10.737000	25.526222	0.000423	20.811661
1098.312899	-3.000000	3.623700	-10.871000	25.528034	0.000421	20.797833
1099.312833	-2.988400	3.625500	-10.833000	25.533974	0.000423	20.809488
1100.313908	-2.973700	3.624300	-10.776000	25.510638	0.000420	20.807390
1101.314181	-3.007000	3.624300	-10.897000	25.525398	0.000420	20.827428
1102.314861	-3.005100	3.623800	-10.889000	25.529672	0.000420	20.803746
1103.322084	-3.007800	3.622800	-10.896000	25.500849	0.000421	20.827905
1104.317601	-3.019400	3.623400	-10.940000	25.541624	0.000422	20.793463
1105.317105	-3.010700	3.623100	-10.907000	25.572637	0.000419	20.804694
1106.319283	-3.008500	3.623300	-10.900000	25.607648	0.000421	20.806665
1107.316108	-3.003200	3.621000	-10.873000	25.602751	0.000418	20.822135
1108.316685	-2.998100	3.621900	-10.857000	25.594327	0.000419	20.783329
1109.317838	-2.989200	3.622600	-10.827000	25.617905	0.000418	20.816966
1110.320958	-3.007000	3.621700	-10.889000	25.565302	0.000418	20.781680
1111.320854	-2.986400	3.620600	-10.812000	25.585131	0.000417	20.807759
1112.317922	-3.007900	3.619600	-10.886000	25.560951	0.000418	20.788216
1113.321065	-2.981900	3.621300	-10.797000	25.552650	0.000418	20.804536
1114.322580	-2.993500	3.621400	-10.839000	25.577947	0.000415	20.788690
1115.322482	-3.034100	3.618500	-10.978000	25.591118	0.000417	20.795279
1116.318433	-2.996100	3.620100	-10.845000	25.595638	0.000417	20.796026
1117.322229	-3.020900	3.618400	-10.930000	25.599464	0.000415	20.797498
1118.319731	-2.969400	3.620900	-10.751000	25.589525	0.000416	20.801740
1119.324302	-2.995300	3.618100	-10.837000	25.527799	0.000415	20.794278
1120.320045	-2.993800	3.617900	-10.831000	25.498547	0.000415	20.784816
1121.321083	-2.987200	3.617700	-10.806000	25.496189	0.000413	20.780078
1122.323482	-2.980900	3.617600	-10.783000	25.522183	0.000415	20.774887
1123.319185	-3.009200	3.617900	-10.886000	25.492807	0.000412	20.806553
1124.318900	-3.001100	3.617200	-10.854000	25.503664	0.000411	20.824093
1125.320356	-2.995300	3.616200	-10.831000	25.521436	0.000414	20.800690
1126.322382	-2.996000	3.617000	-10.835000	25.540889	0.000412	20.804579
1127.321846	-3.002400	3.616300	-10.857000	25.528688	0.000412	20.774307
1128.325682	-3.012100	3.615000	-10.887000	25.547897	0.000412	20.775581
1129.322418	-2.976000	3.616600	-10.762000	25.518575	0.000410	20.811567
1130.322457	-2.981600	3.615100	-10.778000	25.521359	0.000409	20.790655
1131.323408	-3.013800	3.614000	-10.891000	25.580647	0.000410	20.793298
1132.322160	-2.998900	3.614900	-10.840000	25.591781	0.000410	20.792626
1133.323452	-2.988000	3.614600	-10.799000	25.651686	0.000410	20.779297
1134.324946	-3.000700	3.614300	-10.844000	25.634863	0.000408	20.783264
1135.321582	-3.013700	3.613500	-10.889000	25.624977	0.000407	20.800361
1136.321708	-3.011100	3.613800	-10.881000	25.629352	0.000406	20.783419
1137.327404	-2.993300	3.614700	-10.820000	25.617997	0.000406	20.776282
1138.326973	-3.003000	3.612200	-10.847000	25.636631	0.000405	20.784091
1139.326062	-2.992100	3.613000	-10.810000	25.613748	0.000406	20.783868
1140.325743	-3.004600	3.612600	-10.853000	25.643639	0.000407	20.784965
1141.326229	-2.977800	3.611800	-10.754000	25.651365	0.000408	20.775655
1142.328727	-3.026200	3.610500	-10.926000	25.637079	0.000405	20.787386
1143.325202	-2.992400	3.611700	-10.808000	25.583008	0.000405	20.787609
1144.327708	-2.970500	3.611200	-10.725000	25.570313	0.000403	20.785765
1145.324451	-3.003000	3.611200	-10.844000	25.546311	0.000405	20.787739
1146.326341	-2.993000	3.611600	-10.809000	25.519174	0.000407	20.778029
1147.325887	-2.994300	3.611000	-10.812000	25.510798	0.000404	20.769144
1148.334420	-2.983500	3.610200	-10.770000	25.454117	0.000404	20.786667
1149.332079	-2.991600	3.610000	-10.798000	25.471436	0.000402	20.792205
1150.331354	-3.014100	3.610500	-10.881000	25.451259	0.000403	20.798022
1151.330989	-2.994200	3.609200	-10.806000	25.478472	0.000402	20.770347
1152.333916	-2.999100	3.609400	-10.824000	25.485030	0.000400	20.783571
1153.333245	-2.990700	3.609000	-10.792000	25.516245	0.000401	20.755173
1154.332005	-2.990600	3.608900	-10.792000	25.548456	0.000402	20.784677
1155.335267	-2.981200	3.608700	-10.757000	25.585825	0.000400	20.766256
1156.330103	-2.996700	3.607800	-10.811000	25.619420	0.000401	20.773443
1157.331301	-3.001900	3.607200	-10.827000	25.643895	0.000400	20.774317
1158.334265	-2.990100	3.607900	-10.788000	25.653386	0.000398	20.762038
1159.333790	-3.025800	3.605100	-10.907000	25.614773	0.000397	20.759292
1160.338901	-2.995500	3.606900	-10.803000	25.609357	0.000399	20.778984
1161.334957	-2.994500	3.605400	-10.795000	25.568656	0.000398	20.784575
1162.335787	-2.997600	3.605700	-10.807000	25.582524	0.000399	20.774320
1163.335783	-3.003600	3.605400	-10.828000	25.537745	0.000396	20.757799
1164.335523	-3.006100	3.604500	-10.835000	25.564904	0.000397	20.760417
1165.338349	-2.983700	3.605600	-10.757000	25.621336	0.000397	20.758297
1166.337647	-2.999000	3.605200	-10.811000	25.630031	0.000398	20.779359
1167.334642	-2.998600	3.604800	-10.808000	25.629507	0.000397	20.754176
1168.335388	-2.993500	3.604800	-10.789000	25.668617	0.000394	20.772594
1169.341187	-3.000100	3.603600	-10.810000	25.688046	0.000395	20.765556
1170.337842	-3.018300	3.602600	-10.872000	25.689613	0.000396	20.772820
1171.338448	-3.009200	3.603000	-10.840000	25.690956	0.000395	20.753305
1172.336569	-3.008900	3.601800	-10.837000	25.669363	0.000394	20.770499
1173.335626	-2.997900	3.603000	-10.800000	25.614029	0.000394	20.768503
1174.336222	-3.013900	3.602500	-10.857000	25.638005	0.000392	20.772194
1175.338370	-3.007000	3.602100	-10.830000	25.644787	0.000393	20.778057
1176.342518	-2.968600	3.603700	-10.697000	25.613057	0.000393	20.756147
1177.338970	-2.980800	3.601300	-10.733000	25.607244	0.000391	20.743195
1178.345538	-2.999000	3.600800	-10.799000	25.599714	0.000393	20.756971
1179.340385	-3.005700	3.599900	-10.820000	25.589501	0.000391	20.754774
1180.345582	-2.965600	3.602100	-10.681000	25.572131	0.000391	20.770520
1181.342882	-3.015600	3.600700	-10.857000	25.565024	0.000390	20.759590
1182.343386	-3.002300	3.599400	-10.805000	25.643515	0.000392	20.730786
1183.342022	-3.012500	3.599700	-10.843000	25.644784	0.000390	20.762407
1184.343758	-3.023400	3.598100	-10.878000	25.640806	0.000391	20.753670
1185.341373	-2.986100	3.600000	-10.749000	25.683371	0.000389	20.772714
1186.340773	-3.002400	3.597400	-10.800000	25.649202	0.000389	20.752145
1187.344224	-3.005500	3.598500	-10.813000	25.622444	0.000387	20.745659
1188.341321	-2.996400	3.597300	-10.778000	25.624628	0.000387	20.750698
1189.344053	-2.997300	3.598000	-10.784000	25.634493	0.000387	20.751597
1190.342911	-3.000000	3.597800	-10.793000	25.632481	0.000388	20.741989
1191.343143	-2.995200	3.598000	-10.776000	25.645897	0.000386	20.748352
1192.345525	-3.019300	3.597700	-10.860000	25.661152	0.000385	20.744233
1193.345581	-3.007100	3.595300	-10.811000	25.688262	0.000384	20.745857
1194.346425	-2.994300	3.597200	-10.769000	25.689354	0.000385	20.751222
1195.346254	-2.989800	3.596600	-10.752000	25.680533	0.000386	20.757535
1196.345950	-3.006900	3.595400	-10.809000	25.629001	0.000385	20.746555
1197.347044	-2.999000	3.593700	-10.777000	25.597122	0.000383	20.744884
1198.346317	-3.000000	3.594800	-10.784000	25.595953	0.000385	20.764099
1199.346511	-3.021100	3.594400	-10.858000	25.584298	0.000385	20.733901
1200.345397	-3.000200	3.593600	-10.780000	25.577886	0.000383	20.733150
1201.350410	-2.989600	3.594100	-10.744000	25.594388	0.000382	20.748777
1202.346274	-3.018600	3.593800	-10.847000	25.578234	0.000382	20.742510
1203.347003	-3.001700	3.594000	-10.788000	25.582557	0.000383	20.742110
1204.345282	-3.011700	3.593700	-10.822000	25.600026	0.000381	20.760603
1205.347166	-2.998400	3.592600	-10.772000	25.584967	0.000381	20.741686
1206.346222	-3.029700	3.591800	-10.881000	25.560988	0.000380	20.731353
1207.348454	-2.997600	3.592800	-10.768000	25.598286	0.000381	20.739888
1208.347639	-3.003900	3.591500	-10.787000	25.587850	0.000379	20.755012
1209.346377	-3.006000	3.591900	-10.797000	25.557510	0.000379	20.737344
1210.346086	-3.018300	3.590500	-10.835000	25.557112	0.000381	20.748798
1211.347800	-3.002800	3.591600	-10.785000	25.604472	0.000380	20.726187
1212.348006	-2.996100	3.591100	-10.758000	25.651707	0.000377	20.738066
1213.352267	-2.986800	3.590400	-10.723000	25.618984	0.000380	20.745978
1214.351331	-2.998800	3.591600	-10.770000	25.598930	0.000378	20.735794
1215.349940	-2.998200	3.590300	-10.764000	25.593540	0.000378	20.729906
1216.351715	-3.002000	3.589700	-10.776000	25.588618	0.000377	20.739188
1217.351091	-3.012200	3.589500	-10.811000	25.608002	0.000378	20.724516
1218.350662	-3.008100	3.587700	-10.791000	25.642910	0.000376	20.724014
1219.354844	-2.995500	3.588900	-10.750000	25.679363	0.000377	20.721745
1220.352580	-2.967000	3.590300	-10.652000	25.688805	0.000377	20.733126
1221.350341	-2.995500	3.588300	-10.748000	25.683365	0.000375	20.729084
1222.358746	-2.995700	3.587900	-10.747000	25.634666	0.000375	20.744184
1223.350911	-3.001400	3.586900	-10.765000	25.616948	0.000376	20.721172
1224.352852	-2.990300	3.588000	-10.729000	25.626189	0.000373	20.726187
1225.363663	-3.007000	3.586300	-10.782000	25.613520	0.000371	20.732428
1226.352568	-3.022500	3.585300	-10.836000	25.640630	0.000373	20.725991
1227.353871	-2.994600	3.585800	-10.737000	25.640229	0.000373	20.746452
1228.355986	-3.001100	3.585900	-10.761000	25.661695	0.000373	20.741459
1229.353883	-3.004000	3.585200	-10.769000	25.695139	0.000373	20.736643
1230.356505	-3.009700	3.585000	-10.789000	25.636727	0.000373	20.737245
1231.354354	-2.991600	3.586200	-10.727000	25.584498	0.000374	20.751172
1232.358269	-3.003100	3.584900	-10.765000	25.564518	0.000371	20.731105
1233.355272	-2.992400	3.584800	-10.726000	25.620151	0.000370	20.732924
1234.354498	-3.000300	3.584700	-10.755000	25.685176	0.000372	20.743232
1235.358036	-3.020100	3.582700	-10.819000	25.750346	0.000372	20.733773
1236.357908	-3.010400	3.582500	-10.783000	25.719091	0.000370	20.737942
1237.357154	-2.988400	3.582800	-10.706000	25.734197	0.000372	20.744580
1238.355117	-2.993600	3.583600	-10.726000	25.741306	0.000368	20.710467
1239.358904	-2.986800	3.583000	-10.700000	25.739439	0.000370	20.742259
1240.354848	-2.976400	3.582500	-10.662000	25.750300	0.000368	20.744633
1241.358243	-3.001800	3.581200	-10.749000	25.719289	0.000368	20.732924
1242.354569	-2.991200	3.581800	-10.713000	25.678573	0.000367	20.726168
1243.356870	-2.999200	3.581300	-10.741000	25.721208	0.000368	20.724420
1244.356503	-3.018500	3.581500	-10.810000	25.730745	0.000369	20.731155
1245.356240	-3.000600	3.581300	-10.746000	25.761974	0.000366	20.734548
1246.360869	-3.016100	3.578500	-10.792000	25.774522	0.000365	20.727711
1247.355171	-3.008700	3.579300	-10.769000	25.780236	0.000367	20.743409
1248.355179	-3.017500	3.579700	-10.800000	25.688262	0.000365	20.731158
1249.355485	-3.037100	3.578900	-10.868000	25.654222	0.000365	20.750549
1250.355621	-3.005000	3.577400	-10.749000	25.639066	0.000363	20.742913
1251.355706	-3.012600	3.577400	-10.776000	25.654198	0.000366	20.759060
1252.357324	-3.003700	3.578100	-10.747000	25.651612	0.000363	20.721373
1253.355397	-2.978900	3.579000	-10.661000	25.618966	0.000363	20.725096
1254.354270	-3.021500	3.576800	-10.806000	25.639936	0.000364	20.734303
1255.358994	-2.979500	3.578600	-10.661000	25.572769	0.000362	20.737970
1256.355944	-2.971400	3.577800	-10.630000	25.565363	0.000362	20.735748
1257.359010	-3.009500	3.577100	-10.764000	25.574189	0.000364	20.733231
1258.356778	-2.991000	3.577800	-10.700000	25.632330	0.000362	20.731406
1259.357092	-3.000100	3.576500	-10.729000	25.636082	0.000362	20.762676
1260.360353	-3.003300	3.575200	-10.736000	25.659165	0.000360	20.754566
1261.357460	-3.001000	3.575200	-10.728000	25.698098	0.000359	20.758108
1262.357366	-2.993100	3.574800	-10.699000	25.714772	0.000362	20.738345
1263.357948	-3.006300	3.575000	-10.746000	25.758022	0.000359	20.741484
1264.359416	-3.002800	3.574700	-10.733000	25.763144	0.000357	20.743784
1265.360219	-2.988900	3.575000	-10.685000	25.693029	0.000360	20.725040
1266.362198	-3.006100	3.574300	-10.744000	25.669699	0.000358	20.751870
1267.357759	-2.976100	3.574500	-10.636000	25.677197	0.000359	20.750391
1268.358553	-2.992500	3.572100	-10.688000	25.678018	0.000358	20.763070
1269.358978	-2.997600	3.573200	-10.710000	25.711538	0.000357	20.754538
1270.358410	-3.030800	3.572400	-10.825000	25.672924	0.000357	20.752737
1271.357513	-2.993800	3.574400	-10.700000	25.681893	0.000356	20.752737
1272.359638	-3.005800	3.572400	-10.737000	25.695287	0.000356	20.760027
1273.364523	-2.997300	3.572300	-10.707000	25.647107	0.000356	20.757154
1274.357919	-3.013100	3.572300	-10.762000	25.699335	0.000357	20.748445
1275.358116	-3.001000	3.572600	-10.721000	25.657866	0.000356	20.763693
1276.357833	-3.021400	3.571100	-10.788000	25.626881	0.000356	20.740158
1277.358825	-2.987500	3.571200	-10.668000	25.585288	0.000356	20.773777
1278.355786	-3.005100	3.570300	-10.729000	25.586158	0.000354	20.759004
1279.361327	-3.026300	3.569200	-10.800000	25.627754	0.000354	20.738664
1280.362840	-3.010800	3.570200	-10.748000	25.652204	0.000353	20.753264
1281.357563	-3.006100	3.570400	-10.732000	25.656530	0.000351	20.760454
1282.364484	-3.015900	3.568400	-10.761000	25.702368	0.000356	20.733947
1283.360943	-3.025600	3.568300	-10.796000	25.736681	0.000354	20.748023
1284.362142	-3.035700	3.567500	-10.829000	25.757923	0.000352	20.765094
1285.357696	-3.000000	3.567900	-10.703000	25.785425	0.000352	20.759528
1286.358302	-2.978400	3.567700	-10.626000	25.783414	0.000351	20.738540
1287.358520	-2.980800	3.568500	-10.636000	25.767787	0.000349	20.762673
1288.360290	-2.980400	3.567000	-10.631000	25.783290	0.000350	20.736994
1289.359535	-3.013800	3.566000	-10.746000	25.757874	0.000353	20.746551
1290.358734	-3.012700	3.565600	-10.741000	25.753601	0.000350	20.745104
1291.358806	-2.992700	3.565800	-10.670000	25.749328	0.000350	20.763098
1292.358853	-2.982300	3.565400	-10.632000	25.693800	0.000351	20.755688
1293.362344	-3.014200	3.565000	-10.745000	25.661621	0.000350	20.738066
1294.360628	-3.002400	3.565400	-10.704000	25.718823	0.000349	20.751423
1295.361226	-3.016500	3.564100	-10.750000	25.732433	0.000351	20.755610
1296.361292	-3.029600	3.565500	-10.802000	25.744237	0.000349	20.756562
1297.362999	-2.996800	3.564900	-10.683000	25.737928	0.000349	20.767768
1298.363470	-2.984200	3.564400	-10.636000	25.699987	0.000346	20.750047
1299.363155	-2.992100	3.563800	-10.662000	25.716386	0.000349	20.766045
1300.368869	-2.989500	3.564500	-10.655000	25.742599	0.000347	20.756339
1301.363595	-2.993400	3.563200	-10.664000	25.750053	0.000348	20.750549
1302.365647	-2.991700	3.562400	-10.657000	25.782004	0.000347	20.757987
1303.362249	-2.975200	3.564000	-10.602000	25.802974	0.000344	20.771466
1304.363498	-2.982100	3.564100	-10.627000	25.754206	0.000347	20.770843
1305.364490	-2.993800	3.561700	-10.662000	25.736243	0.000343	20.773189
1306.368054	-3.005400	3.561200	-10.702000	25.750729	0.000344	20.755022
1307.364305	-2.995400	3.561200	-10.667000	25.772344	0.000347	20.762035
1308.364656	-2.988100	3.561600	-10.641000	25.746878	0.000343	20.760163
1309.366595	-3.009500	3.560600	-10.715000	25.697463	0.000345	20.770747
1310.365218	-2.982300	3.561400	-10.620000	25.725389	0.000343	20.770347
1311.365844	-3.001800	3.560400	-10.687000	25.761737	0.000343	20.778882
1312.364963	-2.992500	3.560200	-10.652000	25.776074	0.000343	20.770049
1313.365905	-3.000200	3.560500	-10.681000	25.759038	0.000341	20.771903
1314.365466	-3.015700	3.558500	-10.730000	25.741720	0.000343	20.761146
1315.365606	-3.010100	3.558800	-10.711000	25.752228	0.000340	20.770753
1316.366548	-2.970800	3.559500	-10.574000	25.717521	0.000342	20.785204
1317.366238	-3.015300	3.559000	-10.729000	25.674069	0.000339	20.779493
1318.365577	-2.983800	3.558300	-10.616000	25.654238	0.000340	20.760997
1319.366430	-3.010900	3.557500	-10.710000	25.659508	0.000342	20.762971
1320.369569	-2.996200	3.556400	-10.654000	25.688009	0.000340	20.744655
1321.369441	-3.013500	3.557100	-10.719000	25.731986	0.000339	20.762748
1322.368753	-3.013200	3.555700	-10.713000	25.710348	0.000339	20.768990
1323.367579	-3.007100	3.555900	-10.691000	25.760809	0.000342	20.759457
1324.366169	-3.018500	3.556000	-10.732000	25.777380	0.000341	20.776102
1325.366919	-2.999700	3.555000	-10.662000	25.752093	0.000338	20.763979
1326.366706	-3.024900	3.555000	-10.752000	25.701209	0.000337	20.779725
1327.367455	-3.001700	3.555800	-10.672000	25.702153	0.000337	20.763604
1328.367488	-3.018700	3.553900	-10.727000	25.696837	0.000338	20.763005
1329.367933	-3.015600	3.555100	-10.719000	25.684045	0.000335	20.769597
1330.369621	-2.992700	3.555200	-10.639000	25.685788	0.000335	20.778935
1331.370374	-2.988800	3.554800	-10.624000	25.757390	0.000336	20.785421
1332.370739	-2.999400	3.553400	-10.657000	25.751303	0.000338	20.771246
1333.368150	-2.997700	3.553600	-10.651000	25.767078	0.000335	20.796101
1334.368860	-3.019100	3.552700	-10.725000	25.777864	0.000334	20.766158
1335.369810	-3.034100	3.552900	-10.779000	25.809318	0.000336	20.781631
1336.370257	-2.989100	3.553900	-10.622000	25.801966	0.000337	20.774720
1337.369625	-3.007800	3.552200	-10.684000	25.787756	0.000334	20.790318
1338.371228	-3.005800	3.552400	-10.677000	25.758887	0.000333	20.762268
1339.373958	-3.005900	3.551500	-10.675000	25.735087	0.000335	20.780088
1340.370821	-3.007900	3.550300	-10.678000	25.728651	0.000334	20.781684
1341.370191	-2.999900	3.551300	-10.652000	25.702166	0.000334	20.789695
1342.375025	-3.015500	3.550500	-10.706000	25.683780	0.000333	20.791143
1343.374339	-3.004000	3.550600	-10.665000	25.659780	0.000334	20.786004
1344.375924	-3.007500	3.550600	-10.678000	25.682814	0.000333	20.771680
1345.372626	-2.986000	3.548900	-10.596000	25.702740	0.000332	20.782685
1346.371471	-3.004500	3.548300	-10.660000	25.706242	0.000330	20.765814
1347.378016	-2.996600	3.548900	-10.633000	25.712428	0.000330	20.770131
1348.375522	-3.006100	3.548900	-10.667000	25.691185	0.000329	20.790045
1349.376649	-3.020800	3.548100	-10.717000	25.695162	0.000329	20.791195
1350.373598	-3.004600	3.546700	-10.656000	25.728235	0.000330	20.786482
1351.375182	-3.006300	3.547600	-10.665000	25.717846	0.000328	20.784582
1352.375629	-3.015500	3.546600	-10.694000	25.726445	0.000328	20.782313
1353.375291	-3.006800	3.548200	-10.668000	25.725624	0.000327	20.793343
1354.381701	-2.976600	3.547000	-10.557000	25.753550	0.000328	20.789150
1355.380923	-2.992200	3.545900	-10.609000	25.780404	0.000329	20.798106
1356.376093	-2.996300	3.545900	-10.623000	25.768081	0.000328	20.788099
1357.379867	-2.967200	3.545500	-10.519000	25.757823	0.000326	20.804348
1358.377604	-2.994200	3.545200	-10.614000	25.690367	0.000325	20.789224
1359.383744	-2.999200	3.545400	-10.633000	25.649496	0.000327	20.786107
1360.382532	-3.009700	3.544000	-10.665000	25.657445	0.000327	20.813530
1361.379650	-3.002100	3.544500	-10.640000	25.662517	0.000326	20.789228
1362.379821	-3.020000	3.541700	-10.694000	25.616023	0.000326	20.807490
1363.380743	-2.993800	3.543800	-10.609000	25.675387	0.000324	20.788877
1364.380949	-2.999500	3.543400	-10.627000	25.690839	0.000323	20.815777
1365.387975	-3.019100	3.542700	-10.695000	25.692604	0.000323	20.796687
1366.380075	-3.008700	3.542400	-10.658000	25.698914	0.000324	20.812033
1367.380656	-3.005200	3.542100	-10.644000	25.695141	0.000323	20.786906
1368.383076	-3.012400	3.541600	-10.668000	25.671589	0.000323	20.824417
1369.382445	-2.998800	3.542600	-10.623000	25.701055	0.000325	20.805175
1370.381709	-3.015900	3.541100	-10.679000	25.709007	0.000322	20.800834
1371.386333	-3.022300	3.541600	-10.703000	25.676955	0.000326	20.810366
1372.383978	-3.026800	3.540000	-10.714000	25.708238	0.000323	20.797217
1373.385266	-2.994100	3.539800	-10.598000	25.730225	0.000322	20.806024
1374.387405	-3.013500	3.539600	-10.665000	25.759869	0.000323	20.809248
1375.384546	-2.978700	3.539700	-10.543000	25.795913	0.000320	20.798038
1376.389625	-2.989100	3.539500	-10.578000	25.763592	0.000322	20.796393
1377.385081	-2.984100	3.538900	-10.559000	25.765857	0.000320	20.811470
1378.385256	-2.972100	3.540000	-10.520000	25.739151	0.000321	20.805507
1379.384947	-2.994100	3.539000	-10.595000	25.743797	0.000320	20.809226
1380.387129	-3.013600	3.538300	-10.662000	25.735800	0.000319	20.790762
1381.386961	-3.009200	3.537600	-10.645000	25.768869	0.000320	20.816391
1382.387038	-2.990000	3.536900	-10.575000	25.748250	0.000319	20.813698
1383.387191	-3.000200	3.538000	-10.614000	25.739157	0.000318	20.818316
1384.387351	-3.006000	3.537400	-10.632000	25.768798	0.000318	20.791664
1385.388708	-3.003700	3.536800	-10.622000	25.760653	0.000317	20.806716
1386.387911	-3.032300	3.535900	-10.721000	25.734887	0.000316	20.811656
1387.392973	-2.994600	3.536600	-10.590000	25.750740	0.000317	20.799604
1388.389373	-3.013100	3.535900	-10.653000	25.763809	0.000318	20.808938
1389.389152	-3.004400	3.534800	-10.619000	25.781574	0.000319	20.816351
1390.391583	-2.960500	3.536200	-10.467000	25.806598	0.000316	20.808297
1391.391955	-2.999100	3.535100	-10.601000	25.848312	0.000314	20.823647
1392.391110	-2.999900	3.534700	-10.603000	25.832633	0.000316	20.815958
1393.396285	-2.989200	3.534300	-10.563000	25.844187	0.000317	20.836098
1394.394184	-2.984100	3.535000	-10.548000	25.821438	0.000314	20.827945
1395.390860	-3.009000	3.533200	-10.630000	25.879738	0.000314	20.811595
1396.391479	-2.989200	3.533600	-10.562000	25.851964	0.000314	20.815936
1397.393149	-2.989100	3.532900	-10.559000	25.895666	0.000314	20.814793
1398.394999	-3.019900	3.531700	-10.665000	25.899914	0.000314	20.827595
1399.392010	-3.020000	3.531300	-10.663000	25.873707	0.000312	20.832088
1400.394413	-2.976300	3.531600	-10.510000	25.839230	0.000313	20.833964
1401.397104	-3.020100	3.529400	-10.659000	25.785965	0.000312	20.837357
1402.391331	-3.012200	3.531500	-10.636000	25.727829	0.000311	20.839653
1403.395557	-3.015600	3.530100	-10.644000	25.735533	0.000311	20.819891
1404.392654	-2.994600	3.529900	-10.569000	25.742093	0.000312	20.821738
1405.394097	-2.997800	3.528800	-10.578000	25.734762	0.000310	20.828125
1406.394061	-3.012400	3.530100	-10.633000	25.729995	0.000309	20.840881
1407.393019	-2.981700	3.530500	-10.526000	25.727934	0.000313	20.825535
1408.402371	-3.015700	3.528600	-10.640000	25.740483	0.000311	20.837190
1409.393606	-3.000500	3.528900	-10.588000	25.740060	0.000309	20.832498
1410.397223	-3.019400	3.528300	-10.653000	25.721276	0.000311	20.815528
1411.394719	-3.025300	3.526600	-10.668000	25.694643	0.000307	20.826235
1412.394635	-2.983300	3.529100	-10.527000	25.724933	0.000309	20.836744
1413.394261	-3.004900	3.527000	-10.597000	25.776112	0.000310	20.839313
1414.400024	-3.014500	3.526100	-10.629000	25.823842	0.000309	20.834153
1415.396122	-3.055300	3.524900	-10.769000	25.829630	0.000307	20.853243
1416.395549	-3.002100	3.527000	-10.587000	25.835963	0.000307	20.815510
1417.397755	-2.986500	3.525600	-10.528000	25.801136	0.000309	20.844535
1418.395830	-3.007500	3.525800	-10.603000	25.809756	0.000305	20.850348
1419.398441	-2.997700	3.525600	-10.567000	25.768618	0.000303	20.832260
1420.397415	-2.990000	3.524800	-10.538000	25.747524	0.000306	20.837150
1421.395932	-2.992700	3.523800	-10.545000	25.690161	0.000308	20.826949
1422.396934	-2.981800	3.524500	-10.508000	25.689241	0.000305	20.822706
1423.398090	-2.991500	3.525200	-10.544000	25.705119	0.000307	20.849559
1424.398712	-2.980800	3.524100	-10.504000	25.713715	0.000305	20.827848
1425.397794	-3.017000	3.523500	-10.630000	25.763481	0.000305	20.860290
1426.396889	-2.992600	3.524200	-10.545000	25.795932	0.000306	20.836463
1427.397694	-3.007100	3.523500	-10.594000	25.821767	0.000304	20.861939
1428.401413	-3.021100	3.521900	-10.638000	25.821915	0.000304	20.849760
1429.399514	-2.986700	3.523300	-10.522000	25.860373	0.000303	20.826280
1430.402308	-3.000900	3.522900	-10.571000	25.923101	0.000305	20.867009
1431.398407	-3.017500	3.521700	-10.626000	25.878728	0.000303	20.848511
1432.399261	-2.975700	3.522500	-10.481000	25.857816	0.000302	20.845521
1433.401146	-2.981200	3.520900	-10.496000	25.831806	0.000303	20.863489
1434.398699	-3.003900	3.520100	-10.573000	25.845473	0.000302	20.857303
1435.402433	-2.981300	3.521100	-10.497000	25.824556	0.000303	20.846724
1436.400939	-3.004100	3.520200	-10.574000	25.811463	0.000302	20.855382
1437.402557	-2.989700	3.519100	-10.519000	25.840703	0.000301	20.852987
1438.402214	-2.991800	3.518600	-10.525000	25.839488	0.000300	20.841809
1439.403478	-3.014800	3.517700	-10.604000	25.839213	0.000301	20.848171
1440.404974	-3.010100	3.517200	-10.586000	25.852578	0.000298	20.833622
1441.404686	-3.018400	3.517600	-10.617000	25.862986	0.000297	20.841707
1442.403387	-2.990800	3.518000	-10.520000	25.866590	0.000302	20.855283
1443.405221	-2.981600	3.518500	-10.490000	25.845349	0.000300	20.858602
1444.415763	-3.012100	3.516000	-10.589000	25.832013	0.000298	20.860378
1445.407522	-3.017900	3.517400	-10.614000	25.862366	0.000297	20.864316
1446.409042	-3.002300	3.516700	-10.557000	25.913317	0.000297	20.860024
1447.406692	-2.986500	3.517800	-10.505000	25.894215	0.000298	20.878292
1448.404903	-2.992600	3.516700	-10.522000	25.883437	0.000298	20.871258
1449.404431	-3.009200	3.515800	-10.579000	25.891735	0.000296	20.871060
1450.406023	-3.007800	3.515200	-10.572000	25.908279	0.000297	20.872507
1451.407502	-3.006500	3.515600	-10.569000	25.906469	0.000298	20.881593
1452.406991	-3.008400	3.514100	-10.571000	25.867047	0.000296	20.872337
1453.406522	-2.993200	3.514600	-10.519000	25.842774	0.000295	20.845584
1454.409317	-2.979300	3.514900	-10.471000	25.847519	0.000295	20.888754
1455.407282	-2.995900	3.514500	-10.528000	25.820889	0.000294	20.881918
1456.408069	-2.986400	3.513400	-10.491000	25.852393	0.000296	20.883694
1457.410666	-2.981800	3.514800	-10.479000	25.886127	0.000295	20.880124
1458.408170	-2.983900	3.513100	-10.482000	25.888663	0.000296	20.868922
1459.408170	-2.990200	3.510900	-10.497000	25.890752	0.000295	20.862486
1460.413606	-2.990200	3.511400	-10.499000	25.922547	0.000295	20.878305
1461.411593	-3.004600	3.511900	-10.551000	25.865965	0.000294	20.868405
1462.413873	-3.019200	3.510500	-10.598000	25.884771	0.000294	20.857426
1463.413465	-3.007900	3.510600	-10.559000	25.895201	0.000294	20.868851
1464.411637	-3.025000	3.510800	-10.619000	25.859706	0.000295	20.868281
1465.411389	-2.983600	3.511100	-10.475000	25.839508	0.000292	20.879285
1466.411185	-2.998300	3.509600	-10.522000	25.781600	0.000293	20.866636
1467.411781	-3.004200	3.510000	-10.543000	25.850318	0.000292	20.858852
1468.412350	-2.994800	3.508800	-10.507000	25.864426	0.000292	20.864962
1469.411300	-3.008500	3.507700	-10.553000	25.875408	0.000290	20.855607
1470.411860	-3.014000	3.507400	-10.571000	25.890019	0.000291	20.869335
1471.412207	-2.988000	3.509900	-10.487000	25.880410	0.000292	20.829812
1472.412990	-2.985300	3.508300	-10.472000	25.856088	0.000291	20.844259
1473.413698	-3.004100	3.507200	-10.535000	25.822994	0.000291	20.866965
1474.413345	-2.997700	3.505600	-10.508000	25.806702	0.000288	20.845859
1475.413816	-3.005200	3.507500	-10.540000	25.790378	0.000289	20.847953
1476.416908	-2.982900	3.506900	-10.460000	25.732968	0.000290	20.849082
1477.411573	-2.993700	3.507500	-10.500000	25.779775	0.000290	20.847260
1478.418088	-3.010900	3.505900	-10.555000	25.820443	0.000291	20.825998
1479.415747	-3.000100	3.507300	-10.521000	25.816819	0.000289	20.842745
1480.414937	-2.987200	3.505100	-10.469000	25.796275	0.000288	20.833014
1481.414713	-2.978300	3.505200	-10.439000	25.778267	0.000289	20.836736
1482.415664	-2.998400	3.504300	-10.505000	25.786587	0.000288	20.831818
1483.419440	-2.983300	3.505000	-10.456000	25.844699	0.000288	20.845147
1484.419658	-2.999900	3.505400	-10.514000	25.890486	0.000287	20.837564
1485.421051	-2.980500	3.504100	-10.442000	25.927128	0.000287	20.845451
1486.414651	-3.008100	3.502700	-10.535000	25.934933	0.000286	20.831956
1487.419104	-2.995800	3.502700	-10.493000	25.944989	0.000287	20.830678
1488.419449	-2.981600	3.503100	-10.444000	25.889102	0.000283	20.847553
1489.418564	-2.976900	3.502200	-10.425000	25.853607	0.000285	20.841767
1490.419665	-3.024800	3.500800	-10.588000	25.850003	0.000285	20.832458
1491.416898	-3.000300	3.501400	-10.505000	25.886125	0.000284	20.823700
1492.417135	-2.997300	3.502100	-10.496000	25.875072	0.000283	20.815916
1493.420237	-3.014300	3.500600	-10.551000	25.902750	0.000283	20.821436
1494.419243	-3.036700	3.500100	-10.628000	25.887671	0.000282	20.822409
1495.428103	-3.001100	3.500400	-10.504000	25.868171	0.000281	20.828424
1496.422197	-2.993400	3.500300	-10.476000	25.881345	0.000282	20.807045
1497.419772	-3.016200	3.499600	-10.555000	25.834542	0.000282	20.816453
1498.421224	-2.970900	3.499800	-10.397000	25.838269	0.000279	20.828731
1499.422041	-3.009500	3.498500	-10.529000	25.868576	0.000281	20.821244
1500.421418	-3.008600	3.498800	-10.525000	25.919209	0.000279	20.800987
1501.422526	-2.995000	3.498600	-10.477000	25.898019	0.000281	20.825218
1502.420644	-2.999300	3.498400	-10.492000	25.909875	0.000283	20.821007
1503.422440	-3.008400	3.497100	-10.520000	25.887667	0.000282	20.812922
1504.423207	-3.005200	3.497700	-10.511000	25.857808	0.000282	20.811375
1505.420277	-2.999000	3.496200	-10.484000	25.851922	0.000280	20.789341
1506.421987	-2.998300	3.496200	-10.482000	25.844472	0.000278	20.798927
1507.420785	-3.014300	3.496000	-10.537000	25.839674	0.000278	20.805013
1508.422386	-3.001100	3.495900	-10.491000	25.868248	0.000280	20.821389
1509.422167	-2.995600	3.495800	-10.470000	25.811335	0.000278	20.810211
1510.423297	-2.998700	3.494700	-10.478000	25.844377	0.000279	20.815427
1511.424402	-2.978300	3.495900	-10.411000	25.845697	0.000277	20.808693
1512.424957	-2.985200	3.495900	-10.435000	25.851809	0.000279	20.806771
1513.421559	-2.981200	3.495600	-10.420000	25.859910	0.000277	20.816332
1514.422343	-2.988500	3.494200	-10.442000	25.879312	0.000274	20.807373
1515.421885	-2.982200	3.493900	-10.418000	25.893130	0.000276	20.795650
1516.423717	-3.011600	3.492100	-10.516000	25.909427	0.000275	20.805384
1517.427675	-2.996100	3.492300	-10.462000	25.907564	0.000275	20.806357
1518.422869	-3.021800	3.491900	-10.550000	25.933523	0.000273	20.799719
1519.425753	-2.994100	3.492100	-10.455000	25.942768	0.000276	20.780558
1520.427417	-3.005100	3.491500	-10.492000	25.944783	0.000275	20.790169
1521.425468	-2.979800	3.491200	-10.402000	25.986364	0.000275	20.813452
1522.427925	-2.964500	3.493200	-10.355000	25.966422	0.000275	20.792943
1523.424657	-2.975700	3.491900	-10.390000	25.958075	0.000273	20.794988
1524.423295	-2.996700	3.490700	-10.460000	25.897194	0.000274	20.786931
1525.425541	-3.013000	3.489900	-10.513000	25.881992	0.000273	20.803901
1526.428356	-2.985100	3.488700	-10.413000	25.897546	0.000273	20.813837
1527.426985	-3.011000	3.489500	-10.505000	25.908226	0.000270	20.830730
1528.426229	-2.985000	3.488400	-10.412000	25.856909	0.000271	20.782023
1529.427384	-2.995900	3.488700	-10.450000	25.855817	0.000272	20.801315
1530.426022	-2.978400	3.488500	-10.389000	25.835126	0.000270	20.808979
1531.426588	-2.980400	3.488900	-10.398000	25.845859	0.000270	20.796053
1532.427515	-2.995200	3.488900	-10.450000	25.855500	0.000270	20.793884
1533.426941	-2.988000	3.487000	-10.419000	25.887296	0.000271	20.809704
1534.426542	-2.993800	3.487000	-10.439000	25.901604	0.000272	20.796577
1535.430809	-2.971300	3.486800	-10.360000	25.906303	0.000268	20.777115
1536.431530	-2.997400	3.487100	-10.451000	25.841865	0.000268	20.802472
1537.427513	-2.998100	3.486500	-10.452000	25.850882	0.000269	20.768856
1538.429956	-2.993900	3.485800	-10.435000	25.846511	0.000270	20.777267
1539.429275	-2.984600	3.486400	-10.405000	25.776655	0.000269	20.809039
1540.430250	-2.982600	3.485600	-10.395000	25.803561	0.000269	20.791021
1541.429183	-2.984800	3.484500	-10.400000	25.824330	0.000268	20.775848
1542.427647	-3.014600	3.482800	-10.498000	25.817549	0.000268	20.795589
1543.431762	-2.999300	3.483600	-10.447000	25.828976	0.000266	20.786205
1544.428413	-2.994700	3.484500	-10.434000	25.842717	0.000267	20.789578
1545.430814	-2.978100	3.484300	-10.375000	25.870815	0.000266	20.784139
1546.431719	-2.991200	3.485000	-10.423000	25.858765	0.000265	20.769663
1547.440907	-3.022900	3.482700	-10.527000	25.890815	0.000267	20.772936
1548.430741	-3.000900	3.481400	-10.447000	25.930535	0.000265	20.774433
1549.432570	-3.016600	3.480300	-10.497000	25.965908	0.000264	20.771563
1550.430990	-3.020900	3.482000	-10.518000	25.967799	0.000264	20.777257
1551.431210	-3.010000	3.480600	-10.475000	25.944899	0.000261	20.773216
1552.432082	-3.015800	3.481600	-10.499000	25.931088	0.000263	20.786842
1553.430898	-2.996200	3.480700	-10.428000	25.945374	0.000265	20.763736
1554.434396	-3.005200	3.481600	-10.462000	25.928929	0.000265	20.781828
1555.431540	-3.024700	3.478700	-10.521000	25.905087	0.000264	20.780636
1556.434210	-3.018600	3.479100	-10.501000	25.912565	0.000263	20.781984
1557.432870	-2.996400	3.479700	-10.426000	25.872171	0.000262	20.758000
1558.434414	-2.992600	3.478600	-10.409000	25.879970	0.000262	20.762515
1559.434261	-3.011900	3.478400	-10.476000	25.875430	0.000260	20.763170
1560.437812	-2.998900	3.479300	-10.433000	25.926432	0.000261	20.775526
1561.434545	-2.995200	3.478500	-10.418000	25.914383	0.000260	20.787603
1562.434916	-2.986800	3.477800	-10.386000	25.924791	0.000263	20.753014
1563.436559	-3.016300	3.477100	-10.487000	25.881146	0.000261	20.764645
1564.436575	-3.005600	3.477500	-10.451000	25.861227	0.000260	20.777826
1565.439898	-3.000400	3.475800	-10.428000	25.845922	0.000260	20.770512
1566.437406	-3.004000	3.476200	-10.442000	25.837528	0.000261	20.760183
1567.438377	-2.982400	3.476400	-10.366000	25.800214	0.000258	20.781496
1568.444214	-2.978700	3.477200	-10.356000	25.842573	0.000260	20.785165
1569.439132	-2.972300	3.477000	-10.334000	25.857726	0.000257	20.748704
1570.442904	-2.991800	3.475800	-10.398000	25.872732	0.000259	20.769468
1571.458768	-3.021200	3.474200	-10.496000	25.908258	0.000259	20.767225
1572.440756	-3.007100	3.474800	-10.448000	25.942962	0.000256	20.748035
1573.443631	-3.022100	3.473700	-10.497000	25.925302	0.000257	20.753053
1574.445244	-3.014000	3.474700	-10.472000	25.961967	0.000257	20.775664
1575.441294	-3.002300	3.474000	-10.429000	25.990809	0.000257	20.761967
1576.444730	-3.006900	3.472900	-10.442000	25.939070	0.000254	20.767360
1577.442275	-3.010700	3.473000	-10.455000	25.895895	0.000256	20.762391
1578.440979	-3.034000	3.471800	-10.533000	25.895993	0.000256	20.769129
1579.440627	-3.020400	3.471900	-10.486000	25.888617	0.000256	20.758874
1580.442050	-2.986600	3.472700	-10.371000	25.888670	0.000254	20.764143
1581.443409	-2.964600	3.473700	-10.297000	25.843457	0.000254	20.741956
1582.442384	-2.982700	3.472300	-10.356000	25.853795	0.000254	20.740488
1583.442015	-3.000600	3.470800	-10.413000	25.867212	0.000253	20.761079
1584.441908	-2.996200	3.471200	-10.399000	25.885571	0.000254	20.765771
1585.444077	-3.005000	3.470600	-10.428000	25.883637	0.000254	20.753871
1586.441785	-3.006700	3.469300	-10.430000	25.923682	0.000253	20.745735
1587.444923	-3.005800	3.471200	-10.432000	25.914267	0.000253	20.751450
1588.442685	-3.003300	3.469700	-10.420000	25.901700	0.000251	20.743092
1589.443457	-2.984700	3.470600	-10.357000	25.928951	0.000251	20.746288
1590.445685	-3.006200	3.469400	-10.429000	25.951856	0.000253	20.761712
1591.442265	-2.987000	3.469300	-10.362000	25.961795	0.000251	20.756051
1592.447261	-2.993600	3.467900	-10.380000	25.990211	0.000251	20.769426
1593.444051	-2.992700	3.468500	-10.379000	25.985023	0.000252	20.749989
1594.443749	-2.980100	3.468900	-10.336000	25.982984	0.000252	20.733241
1595.443358	-2.984200	3.467200	-10.346000	25.996325	0.000253	20.748068
1596.443092	-3.003000	3.466200	-10.408000	26.008624	0.000250	20.750467
1597.446095	-2.982700	3.468000	-10.343000	25.918878	0.000249	20.754660
1598.446583	-3.004700	3.466500	-10.415000	25.896843	0.000249	20.742480
1599.442804	-3.007000	3.465300	-10.419000	25.873049	0.000250	20.745131
1600.447006	-3.012500	3.466000	-10.440000	25.852704	0.000250	20.761203
1601.447090	-2.977700	3.466400	-10.320000	25.831664	0.000246	20.756663
1602.450108	-3.017800	3.464000	-10.453000	25.837057	0.000249	20.758762
1603.447633	-2.995500	3.464600	-10.378000	25.873750	0.000248	20.743938
1604.447553	-2.965700	3.464600	-10.274000	25.867717	0.000248	20.756370
1605.449513	-2.993700	3.464100	-10.369000	25.910220	0.000249	20.743118
1606.450702	-3.008200	3.465100	-10.423000	25.912034	0.000248	20.752527
1607.445867	-2.996400	3.463100	-10.376000	25.957474	0.000245	20.762615
1608.448718	-3.000000	3.464000	-10.391000	25.924010	0.000248	20.734685
1609.445889	-2.992700	3.463900	-10.366000	25.958066	0.000248	20.759416
1610.446047	-3.000100	3.462200	-10.386000	25.961845	0.000248	20.736660
1611.448179	-3.020000	3.461700	-10.453000	25.924855	0.000247	20.746440
1612.445434	-3.010800	3.460500	-10.418000	25.860891	0.000246	20.740029
1613.445694	-2.991400	3.461300	-10.352000	25.906899	0.000245	20.753058
1614.448970	-3.014400	3.460600	-10.431000	25.895917	0.000245	20.735860
1615.445437	-3.005500	3.460400	-10.399000	25.887970	0.000245	20.736886
1616.459671	-2.986200	3.460600	-10.332000	25.865589	0.000243	20.749965
1617.447095	-2.977500	3.461000	-10.305000	25.836153	0.000244	20.721815
1618.445862	-3.007000	3.459100	-10.401000	25.810466	0.000244	20.723040
1619.450663	-2.986800	3.459000	-10.330000	25.795111	0.000244	20.734169
1620.445840	-2.996800	3.459800	-10.368000	25.791582	0.000243	20.731097
1621.447623	-2.998300	3.459500	-10.371000	25.823905	0.000243	20.725159
1622.452093	-3.018300	3.458000	-10.435000	25.831309	0.000242	20.743978
1623.446791	-2.973300	3.459400	-10.285000	25.812129	0.000241	20.737513
1624.456009	-2.999500	3.459500	-10.376000	25.785494	0.000242	20.734466
1625.446846	-2.998900	3.458100	-10.370000	25.843212	0.000246	20.746926
1626.449972	-2.994600	3.459100	-10.358000	25.862863	0.000244	20.737743
1627.448727	-3.005900	3.457200	-10.391000	25.893990	0.000242	20.732028
1628.451587	-3.021100	3.456700	-10.442000	25.943971	0.000243	20.728185
1629.453110	-3.015100	3.455600	-10.418000	25.945415	0.000242	20.724894
1630.450864	-3.009800	3.456000	-10.401000	25.949983	0.000241	20.729010
1631.449930	-3.005800	3.455500	-10.386000	25.914634	0.000241	20.713885
1632.450477	-3.016700	3.454800	-10.421000	25.881127	0.000240	20.748030
1633.450051	-3.004700	3.455900	-10.383000	25.914835	0.000238	20.727364
1634.449950	-3.014400	3.454700	-10.412000	25.972489	0.000238	20.735499
1635.454634	-3.028500	3.454900	-10.462000	25.987193	0.000240	20.732729
1636.450265	-3.029900	3.453300	-10.463000	25.984587	0.000237	20.725368
1637.451484	-2.992300	3.454000	-10.334000	26.013897	0.000238	20.742488
1638.459743	-2.991000	3.453100	-10.327000	26.007314	0.000237	20.731133
1639.450667	-2.975400	3.454100	-10.276000	26.022195	0.000238	20.741816
1640.454341	-3.017600	3.452700	-10.418000	26.023212	0.000237	20.730510
1641.451640	-2.989700	3.453400	-10.324000	25.932520	0.000236	20.737545
1642.457047	-2.987800	3.453900	-10.318000	25.895755	0.000239	20.713411
1643.449693	-2.983200	3.452200	-10.298000	25.885646	0.000236	20.716532
1644.449727	-3.008700	3.451700	-10.384000	25.855364	0.000236	20.731632
1645.454989	-2.985500	3.452000	-10.305000	25.878489	0.000235	20.738267
1646.456194	-3.011400	3.450000	-10.388000	25.933070	0.000233	20.716285
1647.451981	-2.998700	3.451100	-10.348000	25.947729	0.000236	20.712520
1648.452814	-2.996800	3.451900	-10.343000	25.996115	0.000236	20.725096
1649.455033	-2.984800	3.451000	-10.299000	25.987993	0.000234	20.716462
1650.453129	-3.011400	3.449100	-10.386000	26.009854	0.000236	20.722778
1651.459167	-3.007200	3.449300	-10.372000	26.017528	0.000234	20.717212
1652.454848	-3.001400	3.449600	-10.352000	26.013482	0.000235	20.725001
1653.455609	-3.008300	3.448100	-10.372000	26.025033	0.000233	20.721908
1654.457891	-3.004100	3.447800	-10.357000	26.064752	0.000233	20.712976
1655.454214	-3.008800	3.447700	-10.373000	26.077614	0.000233	20.741073
1656.461679	-2.998800	3.447800	-10.338000	26.070038	0.000230	20.711175
1657.457220	-3.010600	3.448300	-10.381000	26.054719	0.000234	20.702420
1658.456297	-3.009500	3.446300	-10.370000	26.015451	0.000232	20.713228
1659.456007	-3.014700	3.447300	-10.391000	26.021811	0.000232	20.708712
1660.455647	-2.999600	3.447400	-10.340000	26.021515	0.000231	20.724537
1661.455210	-3.028700	3.444600	-10.430000	26.009467	0.000233	20.714328
1662.462941	-3.012200	3.446000	-10.379000	26.032247	0.000231	20.704972
1663.455720	-3.002100	3.445900	-10.342000	26.020350	0.000231	20.709141
1664.456831	-3.001300	3.445600	-10.340000	25.964963	0.000230	20.704229
1665.459935	-3.005700	3.445000	-10.354000	25.947296	0.000229	20.712559
1666.455341	-3.001800	3.444600	-10.339000	25.948121	0.000230	20.704378
1667.455838	-3.017100	3.444100	-10.389000	25.991417	0.000229	20.696667
1668.456839	-3.003300	3.444600	-10.344000	25.961265	0.000228	20.696246
1669.459195	-3.008200	3.443500	-10.357000	25.984493	0.000231	20.698720
1670.458456	-2.981400	3.444500	-10.268000	25.943010	0.000228	20.712521
1671.456425	-3.007900	3.443200	-10.355000	25.930464	0.000228	20.716512
1672.458269	-2.983800	3.443400	-10.274000	25.909176	0.000228	20.706979
1673.461033	-3.007300	3.442900	-10.353000	25.912434	0.000225	20.711675
1674.457756	-2.951400	3.443500	-10.162000	25.923713	0.000225	20.688390
1675.458331	-3.008800	3.441700	-10.354000	25.905453	0.000228	20.690435
1676.457369	-3.015800	3.441400	-10.377000	25.950044	0.000228	20.704888
1677.458821	-2.987400	3.442600	-10.284000	25.994161	0.000227	20.698001
1678.458782	-2.992400	3.441800	-10.298000	26.005513	0.000227	20.692810
1679.458742	-2.993500	3.440200	-10.297000	25.962220	0.000227	20.708586
1680.459032	-2.996200	3.440600	-10.308000	25.986064	0.000225	20.700772
1681.462048	-2.978100	3.440400	-10.245000	25.994736	0.000225	20.684353
1682.460629	-2.997700	3.440300	-10.312000	25.988924	0.000225	20.721191
1683.464757	-3.019700	3.439200	-10.384000	26.002734	0.000224	20.708986
1684.460413	-3.032900	3.438700	-10.429000	26.033262	0.000225	20.706941
1685.461315	-3.001100	3.439200	-10.320000	25.979235	0.000223	20.684427
1686.459265	-3.003400	3.439400	-10.329000	26.002762	0.000223	20.696211
1687.460843	-3.002900	3.438200	-10.324000	25.981747	0.000224	20.675095
1688.460430	-2.969400	3.437200	-10.206000	25.994912	0.000221	20.703972
1689.462652	-3.003400	3.436300	-10.319000	26.029564	0.000222	20.700380
1690.461606	-3.003300	3.438300	-10.325000	26.007806	0.000223	20.687053
1691.462761	-3.022700	3.435600	-10.384000	26.042130	0.000222	20.705419
1692.462584	-3.013800	3.436400	-10.356000	26.028071	0.000222	20.693189
1693.462506	-3.036200	3.435300	-10.429000	25.964559	0.000221	20.684855
1694.465442	-3.006000	3.436000	-10.328000	25.925612	0.000220	20.693617
1695.462549	-2.973200	3.437200	-10.218000	25.913935	0.000220	20.689473
1696.468970	-3.016300	3.435700	-10.362000	25.934505	0.000220	20.683585
1697.467159	-3.005000	3.434600	-10.320000	25.914978	0.000220	20.689572
1698.465905	-3.019500	3.433100	-10.366000	25.943744	0.000218	20.689073
1699.462844	-3.028400	3.433400	-10.397000	25.952789	0.000218	20.676822
1700.463950	-2.975900	3.435500	-10.223000	25.994173	0.000221	20.695167
1701.464967	-3.008100	3.432300	-10.323000	26.056069	0.000219	20.687180
1702.465352	-2.984700	3.434000	-10.248000	26.030512	0.000218	20.680467
1703.465503	-2.967900	3.434700	-10.192000	26.040595	0.000217	20.699609
1704.466341	-3.011700	3.432700	-10.337000	26.049114	0.000218	20.688253
1705.467714	-2.962800	3.433400	-10.172000	26.082873	0.000217	20.666220
1706.464144	-2.984900	3.432000	-10.243000	26.083641	0.000217	20.699711
1707.468250	-2.989600	3.431700	-10.257000	26.082824	0.000217	20.698890
1708.464876	-2.975200	3.431900	-10.210000	26.084338	0.000216	20.678599
1709.467018	-2.995400	3.432300	-10.280000	26.045765	0.000216	20.711916
1710.466398	-2.988300	3.430000	-10.249000	25.999167	0.000217	20.684537
1711.464609	-3.003900	3.431200	-10.306000	25.972668	0.000216	20.690157
1712.467995	-2.994500	3.430300	-10.271000	25.957540	0.000215	20.695348
1713.466966	-2.977900	3.429600	-10.212000	25.910171	0.000214	20.680001
1714.469381	-3.012300	3.428400	-10.325000	25.923612	0.000214	20.682598
1715.465207	-2.995400	3.429300	-10.271000	25.877431	0.000214	20.711124
1716.466197	-2.988200	3.428700	-10.244000	25.932107	0.000213	20.697772
1717.465464	-2.988500	3.428600	-10.245000	25.975306	0.000215	20.703240
1718.465403	-3.008600	3.428100	-10.313000	25.956280	0.000210	20.674165
1719.466469	-3.002000	3.428600	-10.292000	25.972847	0.000212	20.686070
1720.465723	-2.987600	3.428700	-10.243000	25.973841	0.000213	20.702716
1721.464484	-3.013200	3.427300	-10.326000	25.982266	0.000212	20.694584
1722.465473	-3.020000	3.426700	-10.347000	26.014530	0.000213	20.697603
1723.466031	-2.999400	3.426100	-10.275000	26.029755	0.000214	20.692036
1724.470126	-2.978900	3.426100	-10.205000	26.071087	0.000211	20.672396
1725.472097	-3.006100	3.424400	-10.293000	26.057377	0.000211	20.681381
1726.470832	-2.992100	3.424900	-10.247000	26.019102	0.000211	20.678486
1727.470719	-2.994600	3.423700	-10.252000	26.035373	0.000211	20.692939
1728.468712	-2.988400	3.424900	-10.234000	26.042825	0.000212	20.704695
1729.468563	-2.997900	3.424400	-10.265000	26.059244	0.000211	20.693215
1730.471159	-3.003100	3.423700	-10.281000	26.000901	0.000211	20.686279
1731.469653	-3.000200	3.423100	-10.269000	26.011086	0.000206	20.672329
1732.468453	-2.982200	3.424700	-10.213000	26.029865	0.000208	20.676498
1733.468643	-2.976300	3.423900	-10.190000	26.046058	0.000209	20.700831
1734.472898	-2.999400	3.422100	-10.263000	26.053958	0.000209	20.671781
1735.472841	-3.004100	3.421400	-10.277000	25.971122	0.000209	20.690975
1736.471802	-3.011200	3.423300	-10.307000	26.007610	0.000209	20.686382
1737.473560	-3.021200	3.421200	-10.335000	26.015112	0.000209	20.714784
1738.469529	-2.980200	3.422500	-10.198000	25.992931	0.000207	20.693445
1739.471680	-3.019500	3.420100	-10.326000	25.981558	0.000208	20.696719
1740.471902	-3.006600	3.420400	-10.283000	25.985105	0.000204	20.695066
1741.474088	-3.001300	3.420300	-10.265000	25.947253	0.000206	20.701135
1742.471104	-3.023900	3.419500	-10.339000	25.884850	0.000207	20.705300
1743.473607	-2.982600	3.420600	-10.201000	25.919083	0.000205	20.697965
1744.472502	-3.000800	3.420900	-10.264000	25.962578	0.000206	20.707997
1745.473301	-3.024500	3.418300	-10.338000	25.952987	0.000206	20.686980
1746.475898	-3.027600	3.417400	-10.345000	25.975046	0.000206	20.697763
1747.470360	-2.995900	3.418100	-10.239000	26.000211	0.000205	20.703605
1748.470534	-3.009600	3.417200	-10.283000	26.082420	0.000204	20.702752
1749.470114	-3.000000	3.417700	-10.252000	26.112819	0.000203	20.702476
1750.473844	-3.011400	3.417000	-10.289000	26.126356	0.000206	20.689524
1751.472195	-3.022400	3.416200	-10.324000	26.085547	0.000205	20.713482
1752.475884	-2.982900	3.417400	-10.193000	26.073401	0.000201	20.725460
1753.472351	-3.005600	3.417500	-10.271000	25.988873	0.000201	20.702646
1754.473325	-3.003400	3.416500	-10.259000	25.965201	0.000202	20.693088
1755.472489	-3.023000	3.416600	-10.328000	25.962644	0.000202	20.686725
1756.476778	-3.016100	3.416000	-10.302000	25.980800	0.000202	20.687422
1757.474450	-3.002300	3.415100	-10.252000	26.015745	0.000201	20.700720
1758.474283	-2.985000	3.415800	-10.195000	25.975457	0.000202	20.693908
1759.475352	-2.988900	3.414700	-10.206000	25.973278	0.000200	20.703573
1760.473191	-3.029600	3.414900	-10.344000	25.999104	0.000200	20.711503
1761.477611	-3.022300	3.414000	-10.317000	25.977243	0.000199	20.688115
1762.474522	-2.994700	3.413500	-10.222000	25.946048	0.000199	20.696605
1763.475965	-2.990300	3.414700	-10.210000	26.017584	0.000197	20.713948
1764.477812	-2.971800	3.413700	-10.144000	26.047364	0.000201	20.677011
1765.475996	-2.993200	3.413200	-10.216000	26.071883	0.000198	20.704967
1766.481164	-2.996800	3.412100	-10.224000	26.027494	0.000200	20.689764
1767.477337	-3.002400	3.412100	-10.243000	26.039042	0.000198	20.699945
1768.477931	-2.984600	3.412500	-10.183000	26.065994	0.000197	20.699050
1769.479657	-2.997600	3.412200	-10.227000	26.046720	0.000198	20.684899
1770.483178	-3.015900	3.412300	-10.290000	26.038221	0.000197	20.711450
1771.480541	-2.997600	3.411900	-10.226000	26.022299	0.000201	20.714419
1772.483664	-3.016100	3.410100	-10.285000	26.055933	0.000200	20.710279
1773.480628	-3.013800	3.410800	-10.279000	26.000541	0.000197	20.719111
1774.481514	-3.008700	3.410700	-10.260000	25.995029	0.000196	20.698873
1775.482185	-2.996200	3.409900	-10.215000	26.000869	0.000195	20.711379
1776.484317	-3.000500	3.408900	-10.227000	26.055584	0.000194	20.706609
1777.485728	-3.008900	3.409300	-10.258000	26.079553	0.000196	20.689913
1778.480620	-3.010400	3.409100	-10.261000	26.093960	0.000196	20.713400
1779.480190	-3.000900	3.408700	-10.228000	26.117428	0.000195	20.711375
1780.481745	-3.014600	3.407700	-10.272000	26.111769	0.000195	20.717069
1781.480363	-3.017700	3.406300	-10.278000	26.093115	0.000194	20.732466
1782.480095	-3.028400	3.406100	-10.313000	26.067886	0.000194	20.751688
1783.480122	-2.988900	3.407100	-10.182000	26.040261	0.000191	20.697376
1784.481076	-2.980700	3.407600	-10.156000	26.019647	0.000191	20.729299
1785.480866	-3.001800	3.405700	-10.223000	26.012322	0.000191	20.710558
1786.479634	-3.007300	3.405400	-10.240000	25.974985	0.000194	20.728998
1787.479363	-3.006800	3.404800	-10.237000	26.025659	0.000194	20.719218
1788.483724	-2.979000	3.406400	-10.146000	26.034852	0.000189	20.725134
1789.482836	-2.994200	3.405200	-10.194000	26.018510	0.000192	20.704447
1790.482731	-3.009200	3.404800	-10.244000	26.042702	0.000190	20.746299
1791.483761	-3.002000	3.404500	-10.220000	26.026184	0.000192	20.721642
1792.485140	-2.999300	3.403100	-10.205000	26.059395	0.000191	20.710438
1793.487727	-2.989900	3.403800	-10.177000	26.117735	0.000192	20.733022
1794.484807	-2.990300	3.403300	-10.176000	26.119823	0.000191	20.736543
1795.485632	-3.008500	3.403300	-10.238000	26.127771	0.000190	20.735046
1796.486065	-3.004800	3.402900	-10.223000	26.098961	0.000189	20.723167
1797.489310	-2.992100	3.403300	-10.181000	26.050929	0.000189	20.721373
1798.488266	-3.001900	3.403100	-10.215000	26.048492	0.000188	20.717027
1799.490124	-3.006200	3.403000	-10.229000	26.022092	0.000189	20.730807
1800.486137	-2.976200	3.403100	-10.127000	25.951748	0.000187	20.744534
1801.487875	-3.012200	3.402100	-10.248000	25.951177	0.000190	20.740641
1802.485973	-2.986200	3.402000	-10.159000	25.952667	0.000186	20.733603
1803.487224	-2.995300	3.400100	-10.183000	25.934609	0.000189	20.739643
1804.490417	-3.019800	3.398900	-10.263000	26.018863	0.000186	20.734675
1805.488177	-3.001100	3.398800	-10.200000	26.100529	0.000187	20.729010
1806.487954	-2.990900	3.401100	-10.172000	26.072218	0.000185	20.736126
1807.488977	-3.011300	3.399100	-10.235000	26.051922	0.000184	20.733277
1808.486929	-2.992800	3.399000	-10.172000	26.070031	0.000185	20.715910
1809.490303	-3.004600	3.400600	-10.217000	26.115309	0.000185	20.721101
1810.489918	-3.009000	3.398800	-10.226000	26.101673	0.000185	20.723995
1811.492818	-2.995800	3.397500	-10.178000	26.068816	0.000185	20.717534
1812.488794	-3.004000	3.398500	-10.208000	26.101525	0.000186	20.721950
1813.487544	-3.022800	3.398300	-10.271000	26.141932	0.000184	20.720825
1814.489614	-3.021800	3.397000	-10.264000	26.109449	0.000184	20.735128
1815.493197	-3.005000	3.397200	-10.208000	26.111340	0.000184	20.734658
1816.489876	-3.009100	3.396200	-10.219000	26.124373	0.000185	20.722622
1817.490367	-3.008000	3.395400	-10.212000	26.048422	0.000182	20.721699
1818.492154	-2.998300	3.396200	-10.181000	26.036677	0.000182	20.726494
1819.489715	-3.011700	3.395200	-10.223000	26.040226	0.000182	20.735751
1820.493276	-3.005000	3.395500	-10.202000	26.076638	0.000183	20.721600
1821.491812	-2.996800	3.395400	-10.174000	26.089055	0.000184	20.747828
1822.492968	-2.996100	3.394700	-10.170000	26.105128	0.000181	20.740744
1823.492746	-2.992800	3.393600	-10.155000	26.175290	0.000182	20.760037
1824.490089	-2.998300	3.394700	-10.178000	26.116154	0.000182	20.734753
1825.499693	-2.981600	3.394500	-10.120000	26.060568	0.000184	20.744336
1826.493237	-2.982000	3.393800	-10.119000	26.051253	0.000179	20.742563
1827.495631	-2.995400	3.394200	-10.166000	26.046784	0.000180	20.752297
1828.498205	-2.999900	3.393600	-10.180000	26.103712	0.000183	20.734106
1829.494534	-3.020500	3.392500	-10.246000	26.116380	0.000180	20.754895
1830.499791	-2.995600	3.393100	-10.163000	26.158944	0.000181	20.742188
1831.498300	-3.014300	3.391600	-10.222000	26.142403	0.000178	20.755914
1832.494493	-3.007900	3.391700	-10.201000	26.158324	0.000179	20.727339
1833.494310	-3.012500	3.391100	-10.214000	26.189393	0.000179	20.749077
1834.497136	-2.977900	3.392700	-10.102000	26.246314	0.000179	20.734205
1835.498607	-2.979100	3.391300	-10.102000	26.251381	0.000179	20.733607
1836.499158	-2.977300	3.391700	-10.097000	26.121169	0.000178	20.752595
1837.497260	-2.977000	3.390100	-10.091000	26.088636	0.000177	20.754520
1838.496121	-2.990900	3.390000	-10.138000	26.069235	0.000178	20.744983
1839.502701	-3.005000	3.389700	-10.185000	26.081649	0.000177	20.743231
1840.496274	-2.995100	3.389100	-10.150000	26.096011	0.000180	20.783741
1841.503779	-3.009700	3.389500	-10.201000	26.077282	0.000177	20.749275
1842.496722	-2.988900	3.388600	-10.127000	26.085157	0.000177	20.769042
1843.497991	-3.003800	3.388100	-10.176000	26.087168	0.000178	20.751147
1844.495359	-3.002400	3.388000	-10.171000	26.109224	0.000177	20.750549
1845.500306	-3.024300	3.387900	-10.245000	26.157032	0.000176	20.756388
1846.502543	-3.011100	3.388600	-10.202000	26.100057	0.000174	20.756512
1847.499603	-3.014500	3.387300	-10.210000	26.099778	0.000175	20.760499
1848.498685	-3.000600	3.385900	-10.159000	26.106409	0.000176	20.739661
1849.498623	-3.006600	3.385700	-10.178000	26.109688	0.000174	20.762396
1850.499163	-3.014600	3.386100	-10.207000	26.114879	0.000172	20.770457
1851.498721	-3.001300	3.385000	-10.159000	26.102955	0.000174	20.767010
1852.498480	-3.002300	3.386500	-10.166000	26.070446	0.000171	20.749519
1853.498010	-2.999300	3.385600	-10.154000	26.076852	0.000173	20.755482
1854.500213	-3.007200	3.383200	-10.173000	26.131420	0.000171	20.778068
1855.499815	-2.995800	3.384400	-10.138000	26.156552	0.000171	20.742155
1856.500449	-2.993700	3.384700	-10.132000	26.184167	0.000173	20.761844
1857.502681	-2.999000	3.384300	-10.148000	26.234384	0.000173	20.776745
1858.501329	-3.022500	3.384300	-10.228000	26.226986	0.000171	20.765043
1859.501313	-3.042700	3.382800	-10.291000	26.227130	0.000171	20.766610
1860.501544	-3.006300	3.384300	-10.174000	26.196513	0.000170	20.771405
1861.501730	-2.996500	3.382300	-10.134000	26.190502	0.000170	20.767736
1862.503790	-3.010100	3.382300	-10.180000	26.180716	0.000169	20.777343
1863.508519	-3.007200	3.381700	-10.169000	26.213499	0.000167	20.773302
1864.501803	-3.005700	3.381800	-10.163000	26.230486	0.000169	20.781837
1865.502318	-3.004900	3.381500	-10.160000	26.260134	0.000169	20.771327
1866.503815	-2.992500	3.381100	-10.117000	26.272549	0.000170	20.790442
1867.503842	-2.996400	3.381600	-10.131000	26.258841	0.000168	20.761968
1868.506077	-3.013000	3.379100	-10.180000	26.259038	0.000169	20.760269
1869.503055	-2.998700	3.379000	-10.131000	26.249824	0.000167	20.779458
1870.502827	-2.995100	3.380700	-10.124000	26.246619	0.000167	20.808007
1871.507169	-2.990000	3.379300	-10.104000	26.228961	0.000166	20.777459
1872.505178	-3.003300	3.379500	-10.148000	26.181603	0.000166	20.769225
1873.505790	-2.980900	3.379100	-10.072000	26.177906	0.000167	20.787795
1874.507191	-2.974900	3.377700	-10.047000	26.203009	0.000167	20.760863
1875.503367	-2.994400	3.378900	-10.117000	26.192977	0.000166	20.781603
1876.506511	-3.002600	3.377300	-10.140000	26.209812	0.000165	20.780028
1877.506260	-3.000300	3.376300	-10.129000	26.228091	0.000166	20.792232
1878.507189	-3.019000	3.378300	-10.199000	26.268073	0.000166	20.767452
1879.509122	-3.006600	3.376200	-10.150000	26.306688	0.000166	20.798672
1880.506961	-3.007400	3.377100	-10.156000	26.324490	0.000165	20.778630
1881.506186	-2.983300	3.376400	-10.072000	26.350118	0.000164	20.770722
1882.507774	-2.996900	3.376400	-10.118000	26.317938	0.000165	20.795753
1883.505797	-2.998000	3.375100	-10.118000	26.329310	0.000164	20.803863
1884.507975	-2.994300	3.374600	-10.104000	26.307730	0.000164	20.792133
1885.505790	-2.989500	3.375500	-10.090000	26.315177	0.000163	20.793453
1886.507989	-3.010300	3.374000	-10.156000	26.287242	0.000161	20.777707
1887.507996	-3.014100	3.373400	-10.166000	26.298463	0.000160	20.797518
1888.512149	-3.015500	3.373800	-10.172000	26.321089	0.000160	20.778531
1889.513010	-2.992200	3.374400	-10.096000	26.353442	0.000162	20.783071
1890.510108	-3.017500	3.372900	-10.177000	26.373954	0.000162	20.800841
1891.509094	-3.012000	3.372600	-10.157000	26.352773	0.000158	20.811322
1892.508937	-3.026800	3.371200	-10.204000	26.331148	0.000162	20.806659
1893.512760	-2.981100	3.373700	-10.056000	26.283422	0.000159	20.810378
1894.511636	-3.010300	3.372700	-10.152000	26.224415	0.000159	20.766252
1895.511295	-2.969400	3.372500	-10.013000	26.196702	0.000162	20.796726
1896.510311	-3.015700	3.371400	-10.167000	26.231619	0.000159	20.815218
1897.511868	-3.001300	3.371500	-10.119000	26.270035	0.000161	20.792183
1898.511814	-2.985400	3.372100	-10.066000	26.319156	0.000163	20.794607
1899.510662	-3.020300	3.369600	-10.176000	26.311283	0.000161	20.785272
1900.513735	-3.006800	3.371300	-10.135000	26.283746	0.000158	20.786047
1901.511966	-2.968000	3.370200	-10.002000	26.240982	0.000158	20.806609
1902.511913	-2.978800	3.370800	-10.040000	26.262788	0.000160	20.798177
1903.512617	-3.005600	3.369100	-10.125000	26.236514	0.000157	20.804490
1904.510774	-2.982800	3.370500	-10.052000	26.232070	0.000156	20.809981
1905.515092	-2.981500	3.369700	-10.046000	26.231077	0.000157	20.800923
1906.516002	-3.015200	3.368200	-10.155000	26.197428	0.000157	20.803145
1907.513438	-3.003100	3.369600	-10.118000	26.231323	0.000159	20.813499
1908.512578	-3.017500	3.368900	-10.164000	26.241310	0.000157	20.805516
1909.513519	-3.004100	3.368700	-10.118000	26.270288	0.000154	20.812352
1910.517450	-3.041500	3.366800	-10.239000	26.272725	0.000155	20.812904
1911.519777	-2.997800	3.368800	-10.097000	26.302499	0.000153	20.793039
1912.514778	-3.005200	3.366800	-10.117000	26.303837	0.000154	20.782530
1913.514712	-2.991400	3.366500	-10.070000	26.315467	0.000156	20.816503
1914.514910	-2.995300	3.366800	-10.083000	26.378957	0.000154	20.809189
1915.515442	-3.001700	3.365600	-10.102000	26.389783	0.000156	20.822915
1916.517286	-2.979100	3.367500	-10.031000	26.429735	0.000155	20.793843
1917.515982	-2.992900	3.366100	-10.073000	26.439293	0.000155	20.818148
1918.515386	-3.001500	3.365800	-10.101000	26.438153	0.000152	20.814157
1919.517665	-2.988900	3.365900	-10.059000	26.462360	0.000153	20.812409
1920.518013	-2.967900	3.365400	-9.986300	26.482172	0.000153	20.822840
1921.524804	-3.008400	3.364500	-10.120000	26.438600	0.000153	20.816503
1922.519929	-3.028400	3.364200	-10.187000	26.376373	0.000149	20.814652
1923.520853	-3.010600	3.362600	-10.122000	26.397385	0.000153	20.817752
1924.522240	-3.017800	3.362800	-10.147000	26.402820	0.000150	20.807569
1925.519982	-3.026400	3.361600	-10.173000	26.355052	0.000151	20.817406
1926.519538	-3.000100	3.362500	-10.087000	26.301636	0.000149	20.816829
1927.523990	-2.977100	3.362600	-10.010000	26.306084	0.000151	20.819875
1928.518953	-2.980500	3.361900	-10.018000	26.328184	0.000152	20.814111
1929.519844	-2.994200	3.361100	-10.063000	26.407513	0.000151	20.821768
1930.521119	-2.987900	3.361700	-10.043000	26.443962	0.000149	20.851289
1931.523873	-2.998000	3.361300	-10.076000	26.415710	0.000148	20.835695
1932.527098	-3.018600	3.360500	-10.143000	26.357284	0.000150	20.824864
1933.521752	-3.019600	3.359400	-10.144000	26.364311	0.000149	20.839513
1934.522317	-2.988900	3.360700	-10.044000	26.325005	0.000148	20.842684
1935.519869	-2.998200	3.358600	-10.069000	26.364758	0.000149	20.832376
1936.519429	-3.006500	3.359200	-10.099000	26.330667	0.000148	20.832727
1937.522255	-2.979300	3.360000	-10.009000	26.354626	0.000148	20.823141
1938.521533	-2.970300	3.359300	-9.977000	26.335110	0.000146	20.816330
1939.521548	-3.000300	3.358800	-10.077000	26.341169	0.000147	20.828109
1940.520942	-2.993900	3.357300	-10.051000	26.336476	0.000147	20.851841
1941.522679	-3.030600	3.355900	-10.170000	26.361111	0.000148	20.840564
1942.522861	-2.985700	3.357900	-10.025000	26.354010	0.000150	20.844333
1943.526688	-2.985100	3.356500	-10.018000	26.301616	0.000149	20.834351
1944.524233	-2.990900	3.357400	-10.041000	26.345271	0.000147	20.834602
1945.525345	-2.999300	3.356800	-10.067000	26.327963	0.000145	20.831432
1946.525506	-2.996500	3.357100	-10.059000	26.371966	0.000149	20.837249
1947.525122	-3.017000	3.355200	-10.122000	26.382443	0.000147	20.829762
1948.535945	-2.981400	3.356700	-10.007000	26.427412	0.000146	20.840345
1949.524953	-2.990400	3.354700	-10.030000	26.444769	0.000147	20.847358
1950.527176	-2.988500	3.355500	-10.027000	26.436847	0.000143	20.852673
1951.526719	-2.995000	3.356200	-10.051000	26.426571	0.000146	20.846612
1952.528352	-3.002900	3.354700	-10.073000	26.425578	0.000144	20.850830
1953.530550	-3.002300	3.354500	-10.070000	26.401219	0.000143	20.829193
1954.530074	-2.980600	3.353800	-9.996300	26.386102	0.000143	20.855723
1955.528263	-3.029800	3.351700	-10.154000	26.383817	0.000144	20.842522
1956.529355	-3.005200	3.352700	-10.074000	26.400255	0.000141	20.852404
1957.533027	-2.991200	3.352400	-10.027000	26.425582	0.000141	20.853678
1958.531081	-2.984400	3.352100	-10.003000	26.433729	0.000142	20.861866
1959.533761	-2.992000	3.352500	-10.030000	26.461833	0.000141	20.847440
1960.529369	-3.040200	3.351000	-10.186000	26.462153	0.000144	20.852977
1961.529039	-2.994900	3.351500	-10.037000	26.443115	0.000140	20.855179
1962.535420	-3.005900	3.350900	-10.071000	26.427301	0.000140	20.840707
1963.532053	-2.989500	3.352200	-10.021000	26.451733	0.000140	20.875219
1964.535336	-3.014000	3.348900	-10.091000	26.414288	0.000139	20.871249
1965.530396	-3.006000	3.350100	-10.070000	26.410465	0.000137	20.868355
1966.534350	-2.975500	3.350500	-9.968200	26.411930	0.000139	20.874094
1967.536495	-2.998600	3.349700	-10.043000	26.383057	0.000139	20.865939
1968.535276	-2.989000	3.350700	-10.014000	26.393883	0.000140	20.858328
1969.536526	-2.983100	3.348200	-9.987200	26.393662	0.000138	20.879915
1970.540067	-3.001000	3.348800	-10.049000	26.397460	0.000140	20.868561
1971.533823	-2.989000	3.348700	-10.008000	26.418964	0.000138	20.860777
1972.534523	-3.011700	3.347300	-10.080000	26.477985	0.000139	20.846132
1973.537441	-3.010400	3.348100	-10.078000	26.490373	0.000137	20.855738
1974.539895	-3.013900	3.346700	-10.086000	26.489705	0.000135	20.866919
1975.539473	-2.994300	3.346900	-10.021000	26.522155	0.000135	20.859708
1976.539716	-3.002300	3.346000	-10.045000	26.492243	0.000133	20.834859
1977.538943	-3.004100	3.346200	-10.051000	26.463513	0.000136	20.875680
1978.539053	-3.005400	3.345800	-10.055000	26.515206	0.000134	20.854146
1979.535910	-3.002200	3.346500	-10.047000	26.534472	0.000134	20.855020
1980.540527	-3.014200	3.345600	-10.083000	26.529386	0.000133	20.842322
1981.538758	-3.007500	3.343600	-10.054000	26.548926	0.000132	20.844894
1982.538033	-3.004600	3.345400	-10.050000	26.558610	0.000134	20.863162
1983.540016	-2.982600	3.345400	-9.977300	26.518216	0.000132	20.848638
1984.538888	-3.020200	3.344700	-10.100000	26.501161	0.000132	20.838133
1985.547748	-3.028800	3.343700	-10.126000	26.509434	0.000131	20.831750
1986.542027	-3.001600	3.344300	-10.037000	26.508191	0.000132	20.821018
1987.539773	-3.017400	3.342400	-10.085000	26.509261	0.000132	20.827783
1988.539884	-2.979300	3.342500	-9.957600	26.552387	0.000130	20.839365
1989.542298	-2.999600	3.343300	-10.027000	26.528704	0.000130	20.847800
1990.542058	-3.002100	3.341300	-10.030000	26.536670	0.000129	20.846798
1991.544988	-3.009700	3.341700	-10.057000	26.505791	0.000130	20.831407
1992.542401	-3.012100	3.340300	-10.060000	26.531238	0.000130	20.831856
1993.542811	-3.026800	3.340400	-10.110000	26.558277	0.000129	20.820629
1994.542521	-3.002900	3.342100	-10.035000	26.557785	0.000128	20.849057
1995.542329	-3.008400	3.339700	-10.046000	26.560935	0.000128	20.837051
1996.548538	-3.003700	3.340800	-10.034000	26.554827	0.000125	20.837550
1997.543128	-2.992200	3.339300	-9.991200	26.522632	0.000125	20.845016
1998.544554	-3.003900	3.340000	-10.032000	26.511336	0.000128	20.826550
1999.543801	-3.003900	3.338800	-10.029000	26.462149	0.000127	20.829267
2000.545308	-3.001700	3.339900	-10.025000	26.495400	0.000127	20.839928
2001.549800	-2.984500	3.338800	-9.963700	26.482335	0.000125	20.840073
2002.554093	-2.971300	3.339400	-9.922000	26.457559	0.000127	20.826075
2003.546773	-2.987700	3.337800	-9.971100	26.506819	0.000125	20.826277
2004.546733	-2.996000	3.336800	-9.996800	26.512205	0.000126	20.820786
2005.548930	-3.030100	3.337100	-10.110000	26.521865	0.000124	20.824805
2006.547414	-2.997800	3.337100	-10.002000	26.508210	0.000123	20.802545
2007.551099	-2.985100	3.338400	-9.964700	26.521672	0.000120	20.827456
2008.549763	-3.021400	3.335400	-10.076000	26.572489	0.000121	20.820690
2009.549728	-2.982600	3.337200	-9.951800	26.626760	0.000123	20.825935
2010.553002	-2.988500	3.336300	-9.969900	26.597463	0.000122	20.810709
2011.548212	-3.005300	3.335100	-10.021000	26.585646	0.000124	20.828227
2012.552794	-2.986900	3.335700	-9.962500	26.580113	0.000119	20.823613
2013.547496	-2.989000	3.334700	-9.966500	26.588878	0.000123	20.855657
2014.549292	-3.015100	3.335400	-10.056000	26.629643	0.000122	20.825514
2015.548711	-3.004600	3.333800	-10.016000	26.673609	0.000121	20.813763
2016.549774	-3.009000	3.334100	-10.032000	26.626419	0.000119	20.813264
2017.553889	-2.989200	3.334000	-9.965400	26.662761	0.000120	20.804754
2018.549321	-3.011800	3.333100	-10.038000	26.664225	0.000119	20.805278
2019.551960	-2.989500	3.334500	-9.967900	26.656954	0.000117	20.840166
2020.550971	-2.995400	3.333200	-9.982900	26.673067	0.000118	20.831236
2021.552266	-3.004300	3.331800	-10.009000	26.645064	0.000117	20.806403
2022.555389	-2.999200	3.332900	-9.995200	26.647574	0.000117	20.816513
2023.556013	-2.987100	3.333400	-9.955600	26.607331	0.000117	20.819205
2024.553961	-3.000000	3.330900	-9.991500	26.525063	0.000117	20.805735
2025.555498	-2.995600	3.330800	-9.977300	26.512897	0.000117	20.801093
2026.553485	-3.019200	3.330300	-10.053000	26.540408	0.000114	20.813573
2027.554190	-2.994700	3.330400	-9.972900	26.599594	0.000115	20.809058
2028.557414	-3.002900	3.331600	-10.004000	26.655403	0.000117	20.818693
2029.556543	-3.002900	3.329500	-9.996900	26.691994	0.000118	20.809486
2030.556161	-3.003600	3.329600	-9.998700	26.640256	0.000114	20.804890
2031.557993	-3.001600	3.329400	-9.992200	26.612309	0.000115	20.820417
2032.555180	-3.024100	3.327600	-10.062000	26.588922	0.000115	20.787424
2033.555709	-3.004200	3.329100	-10.001000	26.581580	0.000114	20.798535
2034.556749	-2.989500	3.328900	-9.950800	26.584927	0.000114	20.800478
2035.557220	-3.017700	3.327100	-10.040000	26.594812	0.000111	20.803302
2036.556001	-2.988500	3.327300	-9.942700	26.586694	0.000112	20.805099
2037.557047	-3.004300	3.327200	-9.995600	26.610729	0.000113	20.806501
2038.556305	-3.011800	3.326300	-10.017000	26.663478	0.000113	20.806897
2039.560390	-3.010300	3.327200	-10.015000	26.686617	0.000111	20.809770
2040.561198	-3.024800	3.326400	-10.061000	26.720754	0.000113	20.814219
2041.557928	-3.003700	3.325000	-9.986900	26.757446	0.000111	20.791364
2042.563161	-3.004100	3.325000	-9.987900	26.792221	0.000112	20.801198
2043.560113	-3.004900	3.324400	-9.988300	26.803371	0.000111	20.796761
2044.563270	-2.993800	3.325600	-9.954700	26.829435	0.000109	20.782190
2045.563017	-2.993000	3.324000	-9.948000	26.836811	0.000108	20.781546
2046.560356	-2.987600	3.324000	-9.929800	26.819187	0.000112	20.789904
2047.560423	-3.011700	3.323300	-10.008000	26.762283	0.000109	20.792435
2048.561757	-2.991400	3.325600	-9.947100	26.793831	0.000108	20.797601
2049.564125	-3.029200	3.322800	-10.065000	26.782439	0.000108	20.791363
2050.563373	-2.996400	3.323000	-9.956700	26.774278	0.000107	20.786477
2051.560378	-3.008000	3.323300	-9.995400	26.779519	0.000107	20.789375
2052.561167	-3.012400	3.322500	-10.007000	26.721466	0.000106	20.803080
2053.561888	-3.000900	3.321600	-9.966900	26.738870	0.000106	20.773637
2054.562749	-2.985400	3.322500	-9.918700	26.767294	0.000107	20.792257
2055.563141	-3.007800	3.320400	-9.986500	26.731902	0.000107	20.782279
2056.562263	-2.997600	3.320900	-9.953500	26.679010	0.000107	20.771303
2057.561456	-2.984400	3.321100	-9.910800	26.650743	0.000107	20.774655
2058.564765	-2.998700	3.320500	-9.956500	26.634633	0.000105	20.790702
2059.564252	-2.995100	3.321100	-9.946300	26.669786	0.000106	20.801859
2060.564711	-3.017200	3.319300	-10.015000	26.708296	0.000104	20.802168
2061.564173	-2.971200	3.320900	-9.865600	26.741190	0.000106	20.798255
2062.562493	-3.006400	3.318100	-9.974900	26.772689	0.000103	20.786302
2063.563604	-3.032600	3.318400	-10.062000	26.764602	0.000104	20.780068
2064.563876	-2.987100	3.317900	-9.910100	26.725392	0.000102	20.785217
2065.563574	-2.996600	3.317500	-9.940500	26.715714	0.000102	20.769322
2066.568849	-2.974900	3.318400	-9.871000	26.662521	0.000102	20.771322
2067.565293	-2.993700	3.318000	-9.931500	26.642839	0.000101	20.774769
2068.565136	-3.002600	3.316700	-9.957600	26.663940	0.000103	20.779387
2069.566509	-2.992200	3.317600	-9.926400	26.726479	0.000103	20.780145
2070.564355	-3.000700	3.316300	-9.950100	26.729239	9.978282E-5	20.775333
2071.569762	-2.995200	3.315600	-9.929500	26.739594	0.000100	20.770571
2072.564929	-3.000300	3.316000	-9.947500	26.719019	0.000101	20.793982
2073.565194	-2.985400	3.315300	-9.896300	26.754197	9.922178E-5	20.777667
2074.568563	-2.993500	3.315400	-9.923700	26.758302	0.000101	20.771837
2075.565071	-2.971100	3.315200	-9.848000	26.762099	9.968381E-5	20.778974
2076.567509	-3.008800	3.314400	-9.971600	26.702901	0.000100	20.764027
2077.567934	-3.027800	3.313800	-10.032000	26.763797	9.760466E-5	20.769775
2078.567741	-2.981400	3.314900	-9.882400	26.771843	9.816570E-5	20.775968
2079.567414	-3.004600	3.313800	-9.955500	26.780434	9.839671E-5	20.751414
2080.566528	-2.998500	3.312700	-9.932300	26.790022	9.532749E-5	20.772908
2081.570394	-3.000800	3.313200	-9.940600	26.776998	9.674659E-5	20.774038
2082.570131	-2.980200	3.313900	-9.875200	26.761833	9.780267E-5	20.773964
2083.568834	-3.000900	3.313300	-9.942100	26.716689	9.555851E-5	20.771251
2084.567656	-3.002700	3.312100	-9.944900	26.680701	9.595454E-5	20.764942
2085.569658	-3.021600	3.310900	-10.003000	26.722758	9.701061E-5	20.751748
2086.568508	-2.999000	3.311300	-9.930100	26.728693	9.575652E-5	20.774784
2087.568771	-3.017200	3.311200	-9.989200	26.693747	9.232427E-5	20.753401
2088.572415	-2.985200	3.310500	-9.880900	26.665006	9.314933E-5	20.749163
2089.570311	-2.969100	3.311200	-9.830600	26.682415	9.258829E-5	20.753863
2090.569700	-2.989100	3.309300	-9.890700	26.692447	9.344635E-5	20.758733
2091.570620	-2.994900	3.310000	-9.912300	26.745474	9.493146E-5	20.757517
2092.579862	-3.004000	3.308900	-9.939400	26.772807	9.295132E-5	20.760341
2093.576813	-3.007900	3.309200	-9.953200	26.766729	9.133420E-5	20.766559
2094.572150	-2.994700	3.308900	-9.908200	26.762739	9.120219E-5	20.745477
2095.572650	-2.991200	3.309800	-9.899800	26.775825	9.169723E-5	20.756263
2096.574955	-3.019300	3.307400	-9.985500	26.786450	8.833098E-5	20.766947
2097.571444	-3.013000	3.307600	-9.965400	26.799442	9.031112E-5	20.748714
2098.575322	-2.963900	3.308900	-9.805700	26.830915	8.909004E-5	20.748116
2099.575168	-2.970000	3.306800	-9.820500	26.818260	9.120219E-5	20.771429
2100.571919	-2.985200	3.307100	-9.871900	26.820897	8.991510E-5	20.738991
2101.576049	-2.989600	3.306600	-9.883800	26.903355	9.034413E-5	20.759789
2102.573823	-3.010400	3.306900	-9.953100	26.895269	8.905703E-5	20.761616
2103.574510	-3.002500	3.305700	-9.923700	26.897508	8.819897E-5	20.750591
2104.575866	-3.005000	3.306400	-9.934900	26.894334	8.862800E-5	20.757831
2105.574851	-3.011900	3.303900	-9.950600	26.910129	8.842999E-5	20.751902
2106.574872	-3.012500	3.305000	-9.955500	26.913406	8.876001E-5	20.725323
2107.574378	-2.974100	3.305900	-9.831500	26.942772	8.717590E-5	20.736362
2108.575960	-2.968100	3.305100	-9.809700	26.927884	8.829798E-5	20.744151
2109.577203	-2.992300	3.303200	-9.882800	26.968645	8.819897E-5	20.731084
2110.583273	-2.987200	3.303800	-9.868000	26.972745	8.615282E-5	20.745640
2111.576350	-2.993100	3.302800	-9.884200	26.929742	8.836398E-5	20.758822
2112.576555	-3.009300	3.302600	-9.937300	26.898084	8.562478E-5	20.732203
2113.576789	-3.020700	3.301900	-9.973000	26.907523	8.542677E-5	20.737901
2114.583954	-3.022000	3.300900	-9.974500	26.932047	8.539376E-5	20.748812
2115.579053	-3.006500	3.301400	-9.924800	26.963369	8.760493E-5	20.724831
2116.578381	-2.978900	3.302100	-9.835100	26.964120	8.658185E-5	20.742182
2117.578124	-2.994100	3.300200	-9.880500	26.986859	8.417268E-5	20.735177
2118.579321	-2.993100	3.300000	-9.875700	26.948273	8.512975E-5	20.737152
2119.578706	-2.994700	3.300500	-9.883300	26.893858	8.496473E-5	20.717995
2120.586595	-2.989500	3.301400	-9.868100	26.872717	8.328161E-5	20.730403
2121.578596	-2.979500	3.300200	-9.831000	26.858829	8.397466E-5	20.730189
2122.578211	-2.984300	3.300300	-9.848300	26.871393	8.305059E-5	20.740452
2123.585070	-3.000200	3.298600	-9.895200	26.853380	8.229154E-5	20.725658
2124.579356	-3.012200	3.298700	-9.934700	26.848496	8.219253E-5	20.727386
2125.586768	-3.018100	3.296800	-9.948500	26.893799	8.255556E-5	20.723152
2126.580886	-3.014700	3.296400	-9.936800	26.946640	8.014638E-5	20.727923
2127.579812	-3.029700	3.296500	-9.986600	26.912178	8.017938E-5	20.729779
2128.580317	-2.979200	3.296700	-9.820700	26.947305	8.090544E-5	20.730963
2129.580676	-3.006200	3.296300	-9.908600	26.944181	8.054241E-5	20.726399
2130.582884	-2.999900	3.295600	-9.886000	26.877129	7.859527E-5	20.699750
2131.581342	-2.993800	3.295000	-9.863500	26.883415	7.687914E-5	20.709865
2132.580788	-2.989800	3.296200	-9.854400	26.819163	7.757219E-5	20.716384
2133.579638	-2.981500	3.295300	-9.823900	26.807309	7.948633E-5	20.741925
2134.582979	-2.986600	3.295600	-9.841400	26.817791	7.707716E-5	20.711685
2135.582156	-3.008300	3.294900	-9.911500	26.839246	7.493200E-5	20.727569
2136.585351	-2.992200	3.294300	-9.855900	26.908525	7.730817E-5	20.696706
2137.593040	-2.985900	3.295600	-9.839100	26.938339	7.786921E-5	20.711040
2138.583807	-2.983800	3.293700	-9.826400	26.950882	7.529503E-5	20.706109
2139.585310	-3.007400	3.292400	-9.900700	26.938676	7.862827E-5	20.697153
2140.585269	-3.001700	3.293300	-9.884600	26.884203	7.790222E-5	20.697380
2141.585673	-3.009700	3.291700	-9.906600	26.876250	7.513001E-5	20.714988
2142.586377	-3.023200	3.290800	-9.947700	26.918025	7.727517E-5	20.696301
2143.584504	-3.004500	3.290900	-9.885800	26.906049	7.661512E-5	20.705597
2144.585918	-3.025200	3.290100	-9.951100	26.886130	7.463498E-5	20.695998
2145.585657	-3.001700	3.290600	-9.876600	26.931604	7.235781E-5	20.695731
2146.588590	-2.983800	3.290800	-9.818000	26.901159	7.308386E-5	20.715379
2147.589037	-2.997100	3.290100	-9.859900	26.953312	7.526202E-5	20.719459
2148.586229	-2.991500	3.290200	-9.842000	26.945207	7.423895E-5	20.690443
2149.586878	-2.996100	3.289500	-9.854900	26.939558	7.209379E-5	20.707997
2150.586699	-3.005000	3.288400	-9.880200	26.929714	7.404093E-5	20.693356
2151.590861	-2.998400	3.290300	-9.864200	26.930018	7.321587E-5	20.695084
2152.588196	-2.998700	3.288000	-9.858800	26.987827	7.305086E-5	20.708648
2153.588282	-3.003200	3.288200	-9.873600	27.035133	7.301786E-5	20.687941
2154.586108	-3.004400	3.288100	-9.878200	27.005016	7.116972E-5	20.707915
2155.587593	-3.007700	3.287200	-9.885500	27.004156	6.951960E-5	20.681918
2156.587078	-2.990600	3.286100	-9.826800	26.978532	6.981663E-5	20.694558
2157.587831	-3.000000	3.286100	-9.857800	26.982063	7.225880E-5	20.682934
2158.587783	-2.995100	3.286000	-9.840700	26.954208	6.932159E-5	20.715618
2159.586529	-2.997500	3.286300	-9.849400	26.947759	7.235781E-5	20.690165
2160.593660	-2.982900	3.285700	-9.799500	26.929585	7.107072E-5	20.679001
2161.590397	-3.003400	3.285000	-9.864500	26.952498	6.965161E-5	20.689714
2162.591872	-3.031300	3.284500	-9.955400	26.957689	6.925558E-5	20.701104
2163.590365	-2.988200	3.284000	-9.811300	26.969967	7.064169E-5	20.695428
2164.590825	-2.980100	3.283900	-9.785600	26.970198	6.767147E-5	20.676692
2165.590060	-2.994700	3.284300	-9.834800	26.961843	6.773747E-5	20.692305
2166.591782	-2.996900	3.282400	-9.836100	26.984514	6.816650E-5	20.691564
2167.596926	-3.003000	3.282300	-9.856200	26.993929	6.724244E-5	20.675426
2168.592966	-3.018500	3.282600	-9.907700	26.963929	6.747345E-5	20.665171
2169.594518	-3.005700	3.280500	-9.859900	26.967838	6.912357E-5	20.677638
2170.595036	-2.985700	3.283300	-9.801400	26.967475	6.691241E-5	20.680592
2171.594424	-3.003100	3.281700	-9.854000	26.991232	6.602135E-5	20.677455
2172.593468	-2.985600	3.282400	-9.798500	27.065319	6.786948E-5	20.695064
2173.593877	-3.027000	3.280300	-9.927900	27.068747	6.555931E-5	20.678121
2174.594444	-3.014600	3.279100	-9.884100	27.064690	6.720943E-5	20.665980
2175.596551	-2.989900	3.279900	-9.805800	27.111890	6.615336E-5	20.680260
2176.594337	-2.996400	3.279300	-9.825600	27.138968	6.463525E-5	20.669560
2177.596226	-3.005600	3.278500	-9.853300	27.081485	6.367818E-5	20.679553
2178.602106	-3.004400	3.279200	-9.850800	27.078195	6.483326E-5	20.670553
2179.598729	-3.050600	3.277300	-9.996400	27.093045	6.493227E-5	20.663677
2180.597883	-3.004200	3.276700	-9.842700	27.175356	6.334815E-5	20.669174
2181.597542	-2.981500	3.279200	-9.776000	27.196260	6.447023E-5	20.649421
2182.596061	-3.001800	3.277400	-9.836700	27.137116	6.417321E-5	20.670542
2183.598157	-3.000400	3.277600	-9.832400	27.113779	6.331515E-5	20.677893
2184.598138	-2.983600	3.278200	-9.779400	27.127932	6.272111E-5	20.683593
2185.596611	-2.989000	3.276000	-9.791200	27.150497	6.249009E-5	20.651757
2186.596469	-3.012800	3.275500	-9.867400	27.215116	6.344716E-5	20.645152
2187.602586	-2.987000	3.275400	-9.782800	27.163197	6.126900E-5	20.672592
2188.596939	-3.010800	3.275100	-9.859100	27.133378	6.008091E-5	20.666783
2189.600318	-2.994400	3.273800	-9.801200	27.144825	6.116999E-5	20.648422
2190.597338	-3.003700	3.274900	-9.835700	27.115115	6.070796E-5	20.655526
2191.596594	-3.000800	3.276500	-9.831400	27.060357	6.206106E-5	20.651189
2192.598226	-3.011100	3.273900	-9.857000	27.046674	5.691268E-5	20.654498
2193.598477	-3.013400	3.273300	-9.862800	27.081745	5.866181E-5	20.657527
2194.599941	-3.017900	3.271500	-9.872200	27.084215	5.836479E-5	20.641043
2195.597708	-3.010500	3.270700	-9.845100	27.057076	5.889283E-5	20.648838
2196.599229	-2.988500	3.271300	-9.775500	27.043315	5.846379E-5	20.649698
2197.600152	-3.002600	3.271200	-9.821700	27.039136	5.744072E-5	20.654030
2198.598946	-3.017500	3.269800	-9.865800	27.074354	5.707769E-5	20.655309
2199.600238	-2.979700	3.271600	-9.747600	27.091043	5.503154E-5	20.658817
2200.600711	-3.003300	3.269100	-9.816700	27.120258	6.077396E-5	20.659751
2201.601346	-2.991900	3.270700	-9.785000	27.165507	5.790275E-5	20.660216
2202.602810	-3.011800	3.268000	-9.841700	27.220795	5.661566E-5	20.651339
2203.600867	-3.020900	3.268400	-9.872300	27.250430	5.852980E-5	20.659337
2204.603791	-2.995400	3.268200	-9.787600	27.261581	5.499854E-5	20.645896
2205.602287	-3.007400	3.267900	-9.827100	27.251422	5.542757E-5	20.635202
2206.602488	-3.008100	3.268500	-9.831100	27.261155	5.648365E-5	20.633612
2207.604117	-3.016500	3.267900	-9.855600	27.259560	5.433849E-5	20.664728
2208.602554	-3.006000	3.266700	-9.819400	27.268526	5.463551E-5	20.634388
2209.606695	-2.996400	3.267100	-9.788500	27.265512	5.463551E-5	20.638469
2210.608551	-2.977400	3.268000	-9.728100	27.235849	5.608762E-5	20.632814
2211.604724	-2.991200	3.267800	-9.773900	27.149767	5.625263E-5	20.643909
2212.604381	-3.013800	3.265500	-9.840600	27.119286	5.638464E-5	20.630795
2213.606218	-2.972400	3.267300	-9.710500	27.177981	5.575760E-5	20.615383
2214.605102	-3.010500	3.263900	-9.824800	27.204660	5.463551E-5	20.637479
2215.607001	-2.987600	3.264000	-9.750000	27.242260	5.453651E-5	20.614129
2216.604926	-2.979800	3.263500	-9.724400	27.251576	5.338142E-5	20.614491
2217.604827	-2.978900	3.265200	-9.725600	27.235136	5.186331E-5	20.632571
2218.607360	-3.000300	3.262700	-9.788300	27.245022	5.084024E-5	20.644412
2219.607865	-2.994900	3.263300	-9.772000	27.209206	5.453651E-5	20.624506
2220.610101	-3.019600	3.261800	-9.848500	27.138233	5.361244E-5	20.612863
2221.607441	-3.019600	3.264200	-9.856000	27.160548	5.107125E-5	20.624877
2222.611801	-2.988700	3.260700	-9.744500	27.136338	4.902510E-5	20.629452
2223.608821	-3.024700	3.260100	-9.860100	27.179053	4.773801E-5	20.645863
2224.610013	-3.000700	3.262100	-9.787500	27.218986	5.031220E-5	20.639561
2225.609245	-2.989000	3.260200	-9.744500	27.211773	4.988317E-5	20.629459
2226.611911	-2.996400	3.260500	-9.768300	27.175643	4.968515E-5	20.631051
2227.611621	-3.001500	3.259900	-9.783600	27.164584	5.037820E-5	20.636051
2228.610472	-3.006500	3.258500	-9.796200	27.158363	4.856307E-5	20.599442
2229.617650	-3.000800	3.259700	-9.781100	27.178994	5.041120E-5	20.622093
2230.613920	-3.013100	3.258200	-9.816600	27.225777	4.905810E-5	20.607506
2231.612823	-3.013200	3.256400	-9.811200	27.197449	5.004818E-5	20.620267
2232.612916	-2.999800	3.256300	-9.767000	27.194141	4.740798E-5	20.626423
2233.615002	-3.002600	3.258400	-9.782900	27.188544	4.780401E-5	20.639761
2234.613775	-3.001900	3.256400	-9.774500	27.251919	4.770501E-5	20.639021
2235.613885	-3.008500	3.255900	-9.794600	27.316960	4.691295E-5	20.630003
2236.614119	-2.994700	3.256300	-9.750400	27.262360	4.783702E-5	20.635773
2237.614471	-2.996000	3.256400	-9.755800	27.287910	4.522982E-5	20.629229
2238.615510	-3.013000	3.254700	-9.804400	27.251019	4.592287E-5	20.613931
2239.617001	-3.018400	3.253700	-9.819800	27.240371	4.750699E-5	20.603218
2240.617081	-2.996400	3.255400	-9.753500	27.234866	4.529583E-5	20.612382
2241.615561	-2.998700	3.253900	-9.756800	27.232128	4.555985E-5	20.634761
2242.615578	-3.001500	3.254400	-9.766800	27.211073	4.489980E-5	20.626384
2243.615166	-2.966500	3.253000	-9.648800	27.239992	4.575786E-5	20.618487
2244.615193	-2.989200	3.252200	-9.720300	27.270068	4.687994E-5	20.616022
2245.618130	-2.974500	3.254200	-9.678900	27.309282	4.443777E-5	20.615639
2246.617338	-2.997900	3.253500	-9.752800	27.317924	4.414074E-5	20.616272
2247.620765	-2.994600	3.252600	-9.739300	27.327987	4.414074E-5	20.633034
2248.618193	-3.020900	3.250600	-9.818900	27.349031	4.255663E-5	20.612950
2249.616346	-3.007500	3.250300	-9.774500	27.343588	4.447077E-5	20.641617
2250.616473	-3.010500	3.250300	-9.783900	27.376623	4.202859E-5	20.619370
2251.616331	-2.973300	3.251500	-9.666400	27.344852	4.252363E-5	20.610168
2252.616412	-3.013000	3.249300	-9.789400	27.318536	4.130254E-5	20.606928
2253.619071	-3.000400	3.249500	-9.748600	27.327881	4.249062E-5	20.620124
2254.618244	-2.994700	3.248000	-9.726000	27.281031	4.136854E-5	20.618516
2255.617036	-3.000600	3.247400	-9.743600	27.277168	4.334869E-5	20.629330
2256.619589	-2.988800	3.249000	-9.709800	27.297900	4.288665E-5	20.619363
2257.616364	-2.989700	3.246300	-9.704400	27.286850	4.186358E-5	20.607771
2258.620461	-2.995300	3.246300	-9.722400	27.314225	4.117053E-5	20.613498
2259.616879	-2.998900	3.247200	-9.737200	27.330268	4.173157E-5	20.622051
2260.617355	-3.017800	3.245400	-9.793100	27.328216	4.140154E-5	20.624255
2261.619184	-3.000700	3.247100	-9.741900	27.361723	4.090651E-5	20.628565
2262.618429	-3.007100	3.247200	-9.763600	27.334170	4.140154E-5	20.627874
2263.621337	-2.993800	3.245200	-9.715400	27.367206	3.889336E-5	20.617957
2264.618169	-3.005000	3.245000	-9.750400	27.409986	3.899237E-5	20.611681
2265.619694	-2.997600	3.242600	-9.718500	27.444752	4.077450E-5	20.625795
2266.622016	-2.981700	3.243900	-9.670800	27.490043	4.146755E-5	20.610668
2267.622310	-2.982700	3.243600	-9.674400	27.494841	3.935539E-5	20.633516
2268.619634	-2.975400	3.243300	-9.648300	27.457094	3.836532E-5	20.634421
2269.626425	-2.987300	3.242100	-9.684400	27.433522	4.110452E-5	20.614496
2270.619464	-3.012600	3.241300	-9.764100	27.428398	3.823331E-5	20.602227
2271.620606	-2.991900	3.240500	-9.694800	27.347843	4.004844E-5	20.602269
2272.623495	-2.993200	3.240300	-9.698200	27.364724	3.862934E-5	20.616883
2273.624809	-2.997600	3.240200	-9.712100	27.446691	3.862934E-5	20.620634
2274.622939	-2.996800	3.239600	-9.707700	27.446861	3.876135E-5	20.618434
2275.622221	-2.988400	3.239300	-9.679500	27.426582	3.701222E-5	20.631699
2276.622738	-2.995300	3.239400	-9.702300	27.393975	3.529610E-5	20.637303
2277.623398	-2.998900	3.240000	-9.715500	27.324503	3.655019E-5	20.629530
2278.626577	-3.010600	3.237600	-9.746100	27.347372	3.592314E-5	20.625981
2279.645412	-2.993000	3.239500	-9.695400	27.365687	3.658319E-5	20.615006
2280.624714	-3.017700	3.237500	-9.768700	27.361909	3.490007E-5	20.618793
2281.625306	-3.010100	3.235800	-9.738900	27.434315	3.529610E-5	20.611026
2282.632320	-3.009800	3.235700	-9.738500	27.449084	3.684721E-5	20.608814
2283.626805	-3.010600	3.235600	-9.740400	27.463033	3.562612E-5	20.622376
2284.624812	-3.015400	3.235300	-9.754400	27.486749	3.384399E-5	20.638178
2285.624767	-3.005300	3.233700	-9.717600	27.473338	3.615416E-5	20.632271
2286.623902	-3.000000	3.236100	-9.707800	27.500513	3.542810E-5	20.613142
2287.628325	-2.999800	3.234500	-9.701600	27.516903	3.631917E-5	20.635799
2288.625370	-2.976400	3.235400	-9.628700	27.549616	3.661619E-5	20.606120
2289.629314	-2.986300	3.236200	-9.662500	27.577383	3.400900E-5	20.617464
2290.626223	-3.003800	3.233900	-9.713400	27.570877	3.473505E-5	20.621824
2291.626924	-3.014000	3.233000	-9.742700	27.561249	3.311794E-5	20.633950
2292.627905	-3.004300	3.233300	-9.713100	27.512072	3.344796E-5	20.630938
2293.631165	-2.969700	3.232700	-9.599700	27.494947	3.536210E-5	20.621293
2294.627625	-3.013200	3.231200	-9.735400	27.481892	3.483406E-5	20.614795
2295.630599	-2.972300	3.232800	-9.607500	27.469056	3.001571E-5	20.622746
2296.628790	-2.976800	3.232800	-9.622800	27.430208	3.331595E-5	20.631553
2297.627788	-3.019000	3.230500	-9.752400	27.457629	3.258990E-5	20.621206
2298.632045	-2.995300	3.230200	-9.675300	27.489689	3.232588E-5	20.613157
2299.627270	-2.982500	3.230600	-9.634800	27.521484	3.331595E-5	20.622388
2300.637142	-2.989600	3.229700	-9.653800	27.551706	3.136881E-5	20.620079
2301.635815	-2.990200	3.229600	-9.656500	27.554558	3.387699E-5	20.606351
2302.628305	-3.003600	3.228500	-9.696700	27.558390	2.892663E-5	20.614949
2303.628772	-3.009600	3.227000	-9.711500	27.536675	3.136881E-5	20.625345
2304.628966	-3.001700	3.226700	-9.684900	27.548622	3.011471E-5	20.611284
2305.629785	-2.987700	3.227500	-9.642000	27.559277	2.975169E-5	20.637182
2306.632850	-2.992000	3.226700	-9.653300	27.578984	2.849760E-5	20.637570
2307.630236	-3.029300	3.225600	-9.770200	27.476346	2.846459E-5	20.607793
2308.630001	-2.982600	3.225500	-9.619500	27.457556	2.813457E-5	20.631566
2309.632430	-3.000300	3.225400	-9.676800	27.531939	3.107178E-5	20.612991
2310.631508	-3.006300	3.225600	-9.696500	27.552215	3.031273E-5	20.627705
2311.634199	-2.997600	3.223300	-9.661400	27.556078	2.803556E-5	20.631591
2312.631715	-2.999100	3.223800	-9.668300	27.584518	2.820057E-5	20.636500
2313.630718	-2.990600	3.222900	-9.637600	27.657595	2.892663E-5	20.606661
2314.637210	-2.999700	3.222100	-9.664800	27.650564	2.717750E-5	20.626616
2315.631001	-2.972700	3.222400	-9.577900	27.680171	2.981769E-5	20.630804
2316.633758	-2.996600	3.220600	-9.650200	27.657198	2.714450E-5	20.627602
2317.631569	-2.975800	3.221800	-9.585900	27.651685	2.727651E-5	20.621105
2318.632046	-2.970900	3.220800	-9.567100	27.562317	2.582440E-5	20.612736
2319.631145	-2.992900	3.221500	-9.641000	27.538522	2.615442E-5	20.625780
2320.631952	-2.975200	3.220000	-9.579200	27.476228	2.740852E-5	20.625221
2321.632865	-2.991600	3.218400	-9.627700	27.493630	2.651745E-5	20.615700
2322.634854	-2.999900	3.219700	-9.657100	27.485766	2.595641E-5	20.624859
2323.633918	-3.024800	3.218100	-9.733100	27.488875	2.757353E-5	20.627988
2324.634873	-2.994200	3.219900	-9.639700	27.575876	2.595641E-5	20.614051
2325.634985	-2.991200	3.218000	-9.624400	27.589684	2.694648E-5	20.638379
2326.635251	-2.999900	3.217500	-9.651900	27.556360	2.513135E-5	20.629979
2327.638303	-3.005300	3.216600	-9.666100	27.572873	2.714450E-5	20.637586
2328.634951	-3.002600	3.216900	-9.658100	27.585439	2.641844E-5	20.625571
2329.636699	-2.979900	3.216400	-9.583400	27.586970	2.252416E-5	20.610988
2330.640745	-2.997600	3.215500	-9.637900	27.572845	2.400927E-5	20.643248
2331.636750	-2.996300	3.216400	-9.636000	27.519735	2.450430E-5	20.629638
2332.639090	-2.996700	3.213800	-9.629900	27.500945	2.268917E-5	20.636339
2333.637335	-2.983400	3.213700	-9.586800	27.472663	2.278818E-5	20.633489
2334.636807	-2.995400	3.214000	-9.626600	27.481062	2.189711E-5	20.635300
2335.637902	-2.998200	3.212100	-9.629700	27.485029	2.229314E-5	20.637870
2336.636794	-2.985600	3.212200	-9.589500	27.473236	2.018098E-5	20.637384
2337.640475	-2.984000	3.213400	-9.588300	27.497707	2.344822E-5	20.644936
2338.643426	-3.005200	3.210300	-9.647300	27.538898	1.994997E-5	20.627582
2339.637839	-2.987900	3.212300	-9.597100	27.601122	2.328321E-5	20.616220
2340.638108	-3.015300	3.210100	-9.678300	27.631141	2.308520E-5	20.639790
2341.638773	-2.994000	3.210400	-9.611000	27.637960	2.282118E-5	20.626261
2342.638957	-2.984500	3.209100	-9.576500	27.630556	2.235914E-5	20.633511
2343.639459	-3.013900	3.210000	-9.672800	27.607859	2.080803E-5	20.629638
2344.640273	-2.994500	3.209200	-9.608700	27.560448	2.202912E-5	20.635515
2345.641299	-3.012000	3.208700	-9.663700	27.548320	2.120406E-5	20.640382
2346.641914	-2.975200	3.208700	-9.545800	27.542029	2.239215E-5	20.656339
2347.641737	-3.019400	3.206900	-9.682000	27.519183	2.014798E-5	20.637145
2348.639528	-2.992000	3.207700	-9.596000	27.517514	2.173210E-5	20.626929
2349.639273	-2.989200	3.207300	-9.586300	27.580902	2.166609E-5	20.668901
2350.640654	-3.015900	3.205600	-9.667300	27.606314	2.090704E-5	20.635671
2351.637825	-2.989500	3.206100	-9.583900	27.658461	2.037900E-5	20.638832
2352.637577	-2.984800	3.205200	-9.566100	27.740640	2.120406E-5	20.646137
2353.639846	-3.001800	3.203400	-9.615000	27.692146	2.087404E-5	20.630526
2354.640500	-2.995400	3.203600	-9.596000	27.712183	1.935592E-5	20.655434
2355.639498	-2.975500	3.203400	-9.531000	27.729068	2.100605E-5	20.636387
2356.639504	-2.998100	3.202900	-9.602000	27.670525	2.051101E-5	20.653343
2357.641203	-2.996900	3.201600	-9.594600	27.664150	1.952094E-5	20.652144
2358.638506	-3.023000	3.201900	-9.678100	27.688366	1.938893E-5	20.666082
2359.644027	-2.989400	3.201700	-9.570300	27.738179	1.994997E-5	20.648877
2360.640663	-2.978900	3.200700	-9.534200	27.724957	2.018098E-5	20.643632
2361.639359	-2.988400	3.200000	-9.561700	27.730178	1.767280E-5	20.646041
2362.640862	-2.989200	3.200200	-9.565800	27.714974	1.919091E-5	20.643543
2363.641054	-3.003400	3.199300	-9.607400	27.725183	1.806883E-5	20.649075
2364.644166	-2.995900	3.198800	-9.582800	27.745886	1.641871E-5	20.642408
2365.646061	-2.996800	3.198100	-9.583700	27.684297	1.612169E-5	20.639225
2366.643991	-2.997000	3.198500	-9.585100	27.666136	1.635270E-5	20.646555
2367.643789	-2.982400	3.197500	-9.535700	27.679326	1.783781E-5	20.636593
2368.647662	-2.996700	3.197200	-9.580200	27.766588	1.823384E-5	20.649966
2369.644463	-2.999700	3.195600	-9.585200	27.783093	1.658372E-5	20.652825
2370.647220	-3.012400	3.196300	-9.627100	27.794275	1.770580E-5	20.624245
2371.645284	-2.997700	3.195600	-9.578600	27.847827	1.806883E-5	20.658231
2372.644057	-2.997800	3.195900	-9.580000	27.839741	1.622069E-5	20.643453
2373.648214	-2.998600	3.194200	-9.577400	27.817563	1.833285E-5	20.671870
2374.645217	-3.022700	3.193200	-9.651200	27.731013	1.612169E-5	20.654468
2375.648067	-3.031100	3.192700	-9.676300	27.699318	1.622069E-5	20.656713
2376.644772	-2.995800	3.192000	-9.561500	27.664261	1.381152E-5	20.641348
2377.646136	-2.990600	3.192100	-9.545100	27.715227	1.552764E-5	20.640003
2378.648282	-3.007600	3.191400	-9.597000	27.693915	1.549464E-5	20.653647
2379.646776	-2.994700	3.190100	-9.553000	27.697179	1.410854E-5	20.625633
2380.646347	-2.984800	3.191200	-9.524100	27.755828	1.424055E-5	20.667589
2381.650835	-3.020600	3.189800	-9.634200	27.802445	1.433956E-5	20.650015
2382.647255	-2.974500	3.189100	-9.484500	27.825967	1.490060E-5	20.646186
2383.647531	-3.004800	3.188000	-9.577500	27.817257	1.453757E-5	20.655439
2384.651561	-3.029300	3.187600	-9.654800	27.794817	1.506561E-5	20.634750
2385.649206	-3.010500	3.187000	-9.593800	27.796716	1.404253E-5	20.643300
2386.650288	-3.001700	3.187900	-9.568600	27.781978	1.417454E-5	20.653599
2387.649066	-3.009400	3.187500	-9.591800	27.728244	1.301946E-5	20.665908
2388.650094	-3.008000	3.185700	-9.581400	27.719086	1.219440E-5	20.653372
2389.649608	-2.965300	3.184900	-9.443700	27.713551	1.196338E-5	20.666296
2390.648931	-2.988500	3.183700	-9.514100	27.700655	1.466958E-5	20.645255
2391.648891	-2.995100	3.184800	-9.538100	27.702091	1.387752E-5	20.626783
2392.648605	-2.986800	3.184000	-9.508400	27.749352	1.037926E-5	20.652061
2393.649337	-2.994500	3.182700	-9.528800	27.779975	1.001624E-5	20.658223
2394.647734	-2.983600	3.182400	-9.494000	27.850514	1.325048E-5	20.655244
2395.649509	-3.005000	3.180600	-9.556300	27.841137	1.084130E-5	20.666672
2396.650054	-3.011700	3.180400	-9.577400	27.812371	1.282144E-5	20.646728
2397.650814	-2.996900	3.180300	-9.530200	27.757617	9.323186E-6	20.669863
2398.649629	-2.987500	3.180100	-9.500000	27.732066	1.169936E-5	20.656003
2399.651273	-2.988800	3.180900	-9.505700	27.725467	1.179837E-5	20.663588
2400.655400	-2.993800	3.179400	-9.517400	27.765644	1.265643E-5	20.660870
2401.651626	-2.992500	3.179000	-9.511800	27.856637	1.136934E-5	20.658089
2402.652882	-2.988900	3.178100	-9.498500	27.930030	1.156735E-5	20.658462
2403.651959	-2.996000	3.176500	-9.515200	27.955239	1.028026E-5	20.658706
2404.652362	-3.010100	3.175800	-9.558400	28.027350	1.127033E-5	20.672023
2405.651927	-2.987700	3.174500	-9.483000	28.053409	1.133633E-5	20.660794
2406.652853	-2.979600	3.175800	-9.460900	28.039097	1.216140E-5	20.668674
2407.652766	-2.986100	3.174800	-9.479200	27.913222	8.861152E-6	20.665728
2408.651799	-3.006700	3.173700	-9.540900	27.934858	1.008224E-5	20.664746
2409.650900	-2.968200	3.173700	-9.419400	27.965874	9.752218E-6	20.688380
2410.652910	-2.997800	3.172300	-9.509200	27.951244	9.950232E-6	20.650417
2411.652964	-2.985400	3.173000	-9.471900	27.982301	7.805075E-6	20.671722
2412.654630	-2.980100	3.172300	-9.453300	27.957950	7.904082E-6	20.666177
2413.654938	-2.997300	3.168800	-9.497200	27.924355	9.554203E-6	20.680254
2414.653051	-2.989000	3.169700	-9.472700	27.925766	9.092169E-6	20.681674
2415.655049	-3.012800	3.168800	-9.545900	27.875129	8.399118E-6	20.664372
2416.659111	-2.991700	3.169500	-9.481500	27.940180	1.001624E-5	20.680535
2417.656802	-2.966400	3.168900	-9.399900	27.963757	8.993162E-6	20.669177
2418.658850	-3.029700	3.166600	-9.592500	27.894554	9.554203E-6	20.669698
2419.659654	-3.031400	3.166900	-9.599100	27.791602	8.168101E-6	20.668028
2420.656384	-3.002400	3.166200	-9.505200	27.826011	6.848004E-6	20.673260
2421.662600	-3.017700	3.164200	-9.548000	27.866379	8.465123E-6	20.661256
2422.659058	-2.993100	3.165600	-9.474100	27.871057	1.087430E-5	20.673551
2423.663664	-2.980800	3.164600	-9.432300	27.918410	8.993162E-6	20.675692
2424.660426	-3.021800	3.162200	-9.554800	27.981037	8.036092E-6	20.668079
2425.656826	-2.991500	3.163900	-9.463700	28.020775	7.343041E-6	20.670146
2426.658103	-3.009100	3.161700	-9.512400	27.984893	6.319965E-6	20.666743
2427.658649	-2.973500	3.162400	-9.402100	27.979563	9.125172E-6	20.665646
2428.664187	-3.018900	3.160400	-9.540000	27.931951	6.682992E-6	20.666087
2429.661546	-2.987600	3.160300	-9.440500	27.839564	4.207810E-6	20.683108
2430.661134	-2.981600	3.159300	-9.418100	27.865093	6.947011E-6	20.669919
2431.660115	-2.973300	3.159500	-9.392900	27.878210	5.164880E-6	20.666525
2432.663816	-3.025100	3.157500	-9.550500	27.977210	2.821708E-6	20.681297
2433.660909	-3.004300	3.157400	-9.484000	27.980547	3.052725E-6	20.678492
2434.666897	-2.991900	3.156200	-9.441900	28.021074	6.088948E-6	20.684198
2435.660512	-2.969500	3.156200	-9.371900	27.997439	3.316744E-6	20.685538
2436.660003	-3.014300	3.153400	-9.504800	28.018814	5.923936E-6	20.673862
2437.662332	-2.991500	3.153200	-9.432000	28.012876	3.811781E-6	20.680214
2438.661493	-2.981600	3.153800	-9.401500	28.029037	2.920715E-6	20.693163
2439.664155	-3.016200	3.152500	-9.508000	28.009943	4.702846E-6	20.698125
2440.664545	-3.021000	3.151600	-9.519700	28.018957	2.359674E-6	20.661676
2441.665814	-3.005100	3.150900	-9.468100	28.010721	3.514759E-6	20.672353
2442.662672	-3.004600	3.149300	-9.461300	28.026086	2.293669E-6	20.666956
2443.662427	-3.002000	3.148300	-9.450400	27.965790	4.801853E-6	20.693037
2444.662332	-3.002300	3.147200	-9.447000	27.972027	2.359674E-6	20.684615
2445.668850	-3.007800	3.147300	-9.464700	27.905944	3.811781E-6	20.686855
2446.663437	-3.011000	3.147100	-9.474500	27.912953	4.009795E-6	20.687745
2447.663496	-2.999900	3.146700	-9.437800	27.915105	3.052725E-6	20.678056
2448.668559	-2.985500	3.145200	-9.388300	27.887058	2.821708E-6	20.684915
2449.669477	-3.006000	3.144200	-9.450100	27.866726	3.283742E-6	20.668718
2450.668250	-2.996700	3.143400	-9.419000	27.871502	3.316744E-6	20.705296
2451.665343	-2.999800	3.143500	-9.429000	27.960400	4.042798E-6	20.677653
2452.664106	-2.995200	3.142900	-9.412400	27.977651	8.415620E-7	20.678896
2453.664097	-3.000900	3.142300	-9.428700	28.000960	1.534613E-6	20.700463
2454.667923	-2.993200	3.140800	-9.400200	27.981532	2.920715E-6	20.672845
2455.668624	-2.994000	3.139800	-9.399400	28.003395	8.085595E-7	20.695328
2456.668600	-2.998500	3.138800	-9.410700	28.060529	2.260666E-6	20.699260
2457.664680	-3.019000	3.137800	-9.472100	28.050654	3.646768E-6	20.703070
2458.671050	-3.000500	3.137600	-9.413900	28.031706	1.815134E-7	20.695376
2459.667253	-2.992500	3.135400	-9.381700	28.035101	2.425679E-6	20.690732
2460.663549	-3.002200	3.135200	-9.411200	28.034045	1.600618E-6	20.700101
2461.666883	-3.011100	3.135000	-9.438300	28.067805	1.402603E-6	20.701368
2462.667273	-3.014200	3.134300	-9.445900	28.072709	-1.650122E-8	20.713893
2463.666399	-3.003600	3.132100	-9.405600	28.064020	1.039577E-6	20.706093
2464.666963	-2.986100	3.133800	-9.356600	28.058059	-7.755571E-7	20.709576
2465.669103	-3.003000	3.130000	-9.398600	28.055078	-5.115377E-7	20.706101
2466.668941	-2.991100	3.129800	-9.360900	28.059577	-3.465255E-7	20.699250
2467.666125	-3.005900	3.128200	-9.401300	28.089040	1.864637E-6	20.699985
2468.667560	-2.995900	3.127800	-9.369700	28.085759	-1.666623E-6	20.729401
2469.668841	-3.015900	3.126200	-9.427100	28.065887	1.155085E-7	20.694221
2470.667239	-2.999500	3.126700	-9.377500	28.047330	6.765498E-7	20.715372
2471.667433	-3.000200	3.125600	-9.376600	28.097007	-1.155085E-7	20.717489
2472.668662	-3.000800	3.125300	-9.377200	28.112834	3.795279E-7	20.701653
2473.667638	-3.007900	3.123900	-9.395100	28.181461	2.475182E-7	20.706730
2474.665961	-3.009600	3.122600	-9.396600	28.232317	-1.831635E-6	20.708144
2475.669633	-2.989700	3.122000	-9.333100	28.227754	-8.250608E-8	20.710188
2476.665516	-2.991900	3.121800	-9.339400	28.189687	-2.029649E-6	20.711218
2477.671250	-2.980500	3.121300	-9.301800	28.160803	-1.105581E-6	20.712960
2478.670564	-2.962700	3.121000	-9.246000	28.114182	1.996647E-6	20.700639
2479.668984	-2.998000	3.119600	-9.351600	28.069152	-2.656696E-6	20.713630
2480.668229	-2.992200	3.117400	-9.326800	28.104519	-2.656696E-6	20.719836
2481.668479	-2.995500	3.116800	-9.335500	28.151830	-2.227664E-6	20.709616
2482.672809	-3.002600	3.115000	-9.352400	28.227738	-4.570837E-6	20.706853
2483.670887	-3.010100	3.114900	-9.375200	28.188956	-2.260666E-6	20.711906
2484.670211	-2.992500	3.113500	-9.315500	28.167852	-1.699625E-6	20.717686
2485.672465	-2.993000	3.112700	-9.315000	28.177540	-6.435474E-7	20.718430
2486.675240	-2.999700	3.111800	-9.333600	28.198945	-1.270594E-6	20.729075
2487.672274	-3.009500	3.112400	-9.364700	28.144076	1.155085E-7	20.718880
2488.675989	-3.000200	3.109200	-9.327100	28.141713	-1.501611E-6	20.715553
2489.673075	-2.999300	3.108900	-9.323500	28.142793	-2.788705E-6	20.725650
2490.673322	-3.015500	3.108500	-9.372700	28.165311	-3.811781E-6	20.703747
2491.672327	-2.978100	3.109600	-9.260100	28.156606	-3.151732E-6	20.723909
2492.673779	-2.977400	3.107000	-9.249500	28.159351	-6.451975E-6	20.705334
2493.672543	-2.989100	3.105000	-9.280200	28.195528	-2.260666E-6	20.708090
2494.674793	-3.006600	3.105200	-9.335200	28.147504	-4.438827E-6	20.708106
2495.674566	-2.997700	3.103500	-9.302800	28.144922	-3.184735E-6	20.711671
2496.673620	-2.996800	3.104300	-9.302300	28.143323	-3.316744E-6	20.696784
2497.674753	-2.995800	3.102000	-9.292000	28.173060	-4.867859E-6	20.684046
2498.675681	-2.999400	3.100000	-9.297500	28.233588	-3.316744E-6	20.704682
2499.678890	-3.000600	3.099600	-9.299400	28.224851	-3.283742E-6	20.710585
2500.676492	-3.012000	3.099100	-9.333600	28.277987	-2.623693E-6	20.696752
2501.673483	-2.995300	3.098400	-9.280200	28.333199	-4.174807E-6	20.691651
2502.677234	-3.008200	3.096300	-9.313600	28.364417	-2.557688E-6	20.697481
2503.673482	-3.001800	3.096300	-9.293400	28.377522	-2.095654E-6	20.700719
2504.682319	-3.032300	3.093000	-9.377400	28.314227	-6.055946E-6	20.694833
2505.673932	-3.007100	3.093000	-9.299900	28.331066	-4.471829E-6	20.694245
2506.675364	-3.007400	3.091500	-9.295900	28.352371	-3.910788E-6	20.700050
2507.675389	-2.993500	3.091700	-9.253300	28.372588	-4.834856E-6	20.675834
2508.675149	-2.980300	3.090100	-9.209000	28.344050	-5.131878E-6	20.682187
2509.678994	-2.997400	3.089000	-9.257300	28.268614	-5.923936E-6	20.679252
2510.677404	-3.024500	3.087200	-9.336700	28.256662	-3.679771E-6	20.675280
2511.679833	-2.991200	3.086800	-9.232300	28.263020	-4.537834E-6	20.692114
2512.679521	-2.995300	3.086900	-9.244400	28.221707	-2.326671E-6	20.676122
2513.676661	-3.012800	3.083800	-9.290700	28.188789	-6.154953E-6	20.683760
2514.682643	-2.962000	3.085500	-9.138500	28.156430	-7.904082E-6	20.681528
2515.682217	-2.986800	3.083100	-9.207200	28.118020	-5.428900E-6	20.682690
2516.680434	-2.968800	3.082500	-9.150600	28.195628	-6.881007E-6	20.673100
2517.682290	-2.966000	3.081600	-9.139500	28.181483	-5.791927E-6	20.683991
2518.684562	-3.026900	3.079000	-9.319300	28.191391	-6.815002E-6	20.680214
2519.682642	-2.987100	3.079000	-9.195600	28.196401	-7.310038E-6	20.671981
2520.689796	-2.989000	3.077800	-9.198800	28.180949	-6.616987E-6	20.662588
2521.683966	-2.987300	3.077800	-9.193700	28.141175	-8.267109E-6	20.690354
2522.684596	-3.014100	3.074800	-9.266900	28.183678	-7.541055E-6	20.656800
2523.687177	-2.993300	3.074100	-9.201100	28.232026	-4.438827E-6	20.653318
2524.686454	-2.992700	3.071800	-9.191600	28.243240	-4.768851E-6	20.666981
2525.695722	-2.989100	3.071900	-9.181200	28.292803	-6.121951E-6	20.660931
2526.691813	-2.978400	3.072000	-9.148800	28.370414	-6.319965E-6	20.653729
2527.691857	-2.987000	3.071200	-9.172300	28.401583	-8.267109E-6	20.679901
2528.691138	-3.009800	3.068300	-9.233200	28.423333	-6.914009E-6	20.682362
2529.694265	-2.999900	3.067800	-9.201800	28.362598	-7.805075E-6	20.661032
2530.692746	-2.994700	3.066100	-9.180700	28.427093	-8.300111E-6	20.666706
2531.690338	-3.011100	3.065100	-9.228200	28.433897	-9.158175E-6	20.662178
2532.690377	-2.996400	3.063600	-9.178300	28.401472	-5.956939E-6	20.647069
2533.695035	-3.014800	3.061300	-9.228500	28.455955	-6.121951E-6	20.655467
2534.692476	-3.025200	3.061000	-9.259300	28.423125	-6.947012E-6	20.658443
2535.701685	-3.030900	3.059700	-9.272900	28.387413	-8.102097E-6	20.652827
2536.694255	-2.985900	3.058700	-9.132000	28.412403	-8.828150E-6	20.656180
2537.695112	-2.973300	3.058600	-9.092800	28.398017	-8.597133E-6	20.657816
2538.694445	-2.973400	3.056900	-9.088300	28.329405	-9.818223E-6	20.654636
2539.694573	-2.979500	3.056100	-9.104700	28.336803	-9.851226E-6	20.660189
2540.693779	-2.987700	3.054800	-9.126000	28.285985	-8.003089E-6	20.649798
2541.696501	-3.005600	3.052300	-9.172700	28.348820	-7.343041E-6	20.653796
2542.695643	-3.013900	3.052600	-9.199500	28.422669	-1.041227E-5	20.654664
2543.695493	-3.000000	3.050600	-9.150600	28.460802	-9.059167E-6	20.647070
2544.697179	-2.992500	3.050600	-9.127300	28.505695	-7.343041E-6	20.639647
2545.695565	-3.006900	3.047300	-9.161900	28.560513	-8.960160E-6	20.673520
2546.699356	-2.996800	3.048500	-9.134800	28.454293	-9.455196E-6	20.653318
2547.694893	-3.007700	3.046300	-9.161100	28.460675	-8.828150E-6	20.634612
2548.695529	-3.010200	3.044400	-9.163100	28.462819	-7.805075E-6	20.665698
2549.696826	-3.008000	3.044100	-9.156100	28.466400	-7.706068E-6	20.650336
2550.697764	-2.969900	3.042400	-9.035000	28.514880	-8.894155E-6	20.650795
2551.700664	-2.994000	3.040800	-9.101900	28.599343	-8.795148E-6	20.660468
2552.697142	-3.025400	3.039500	-9.194700	28.594076	-9.257182E-6	20.656111
2553.698642	-3.012800	3.037500	-9.150700	28.562094	-9.224179E-6	20.655670
2554.696409	-3.002400	3.037600	-9.118500	28.565204	-9.389192E-6	20.654534
2555.701391	-2.986900	3.035400	-9.065600	28.540090	-8.201104E-6	20.657217
2556.699457	-3.004600	3.033600	-9.114800	28.544685	-7.409046E-6	20.645248
2557.699073	-3.019100	3.031400	-9.150900	28.492951	-1.084130E-5	20.660955
2558.697499	-3.010500	3.031200	-9.124200	28.486693	-9.257182E-6	20.652755
2559.699924	-3.009100	3.031600	-9.120900	28.485955	-1.031326E-5	20.648218
2560.702292	-3.011100	3.029900	-9.122100	28.541148	-9.224179E-6	20.665396
2561.698177	-2.999100	3.027600	-9.078500	28.514742	-6.154953E-6	20.633109
2562.705137	-2.985500	3.027500	-9.037800	28.546702	-6.980014E-6	20.657713
2563.699686	-3.006000	3.025100	-9.092300	28.586900	-6.517980E-6	20.654099
2564.703681	-2.997800	3.023300	-9.062500	28.582346	-7.244034E-6	20.646194
2565.702101	-2.994000	3.022100	-9.046600	28.493346	-8.267109E-6	20.652343
2566.700158	-3.006700	3.022200	-9.085700	28.493379	-9.620209E-6	20.651428
2567.701642	-2.983700	3.021600	-9.014900	28.566016	-9.554204E-6	20.653930
2568.704435	-2.989000	3.019000	-9.023300	28.582658	-5.923936E-6	20.646033
2569.702934	-2.972000	3.019400	-8.972300	28.531844	-8.828150E-6	20.656973
2570.703681	-3.016800	3.016600	-9.098500	28.480507	-9.455196E-6	20.646051
2571.709576	-3.000100	3.014200	-9.042100	28.508572	-1.074229E-5	20.644441
2572.704842	-2.974200	3.013700	-8.961900	28.544363	-8.102097E-6	20.639233
2573.708421	-2.995500	3.012300	-9.022600	28.534257	-8.465124E-6	20.637116
2574.704393	-2.997300	3.009600	-9.020100	28.568076	-7.673065E-6	20.652211
2575.705287	-3.002900	3.009300	-9.035600	28.525833	-1.176537E-5	20.634322
2576.705515	-2.983500	3.009700	-8.977900	28.515053	-9.686214E-6	20.647175
2577.705482	-3.016300	3.007000	-9.069100	28.592438	-1.130333E-5	20.644977
2578.706190	-2.994900	3.005300	-8.999900	28.598883	-1.061028E-5	20.647676
2579.707185	-3.006300	3.004300	-9.029800	28.586497	-9.356189E-6	20.631405
2580.708087	-3.029500	3.002800	-9.095600	28.545652	-9.587206E-6	20.639583
2581.709790	-3.010500	3.001600	-9.034500	28.579607	-1.057728E-5	20.626363
2582.708974	-2.981200	2.999800	-8.941900	28.628821	-9.257182E-6	20.647956
2583.707683	-2.990100	2.999500	-8.968300	28.584600	-8.960160E-6	20.639454
2584.708550	-3.002900	2.997700	-9.001000	28.530791	-9.125172E-6	20.635996
2585.706245	-3.011200	2.996200	-9.020900	28.510879	-9.026165E-6	20.643920
2586.712271	-2.999000	2.995500	-8.982900	28.438500	-9.158175E-6	20.639309
2587.708257	-2.998400	2.992000	-8.970300	28.371863	-8.597133E-6	20.644755
2588.707859	-3.002200	2.990300	-8.977100	28.446343	-1.094031E-5	20.620652
2589.710456	-3.003900	2.990300	-8.981000	28.519925	-1.146834E-5	20.646391
2590.708659	-2.987400	2.989000	-8.928600	28.593380	-8.729143E-6	20.634545
2591.707501	-3.008400	2.986400	-8.983700	28.594306	-9.323187E-6	20.620777
2592.707643	-3.004300	2.986200	-8.970400	28.606410	-1.044527E-5	20.634391
2593.707946	-2.974800	2.985500	-8.880000	28.614941	-9.917231E-6	20.633027
2594.710434	-3.012100	2.982900	-8.983900	28.633651	-1.001624E-5	20.627213
2595.713512	-2.988800	2.981300	-8.908200	28.654738	-1.136934E-5	20.642291
2596.709593	-2.988200	2.980500	-8.905900	28.677198	-1.123733E-5	20.644049
2597.710285	-2.995400	2.979100	-8.922700	28.730425	-1.028026E-5	20.646454
2598.712724	-3.015900	2.975600	-8.973000	28.781433	-1.037926E-5	20.652790
2599.711093	-3.000700	2.974700	-8.925800	28.751559	-1.173236E-5	20.638343
2600.713411	-2.995600	2.974800	-8.910900	28.701573	-9.356189E-6	20.636357
2601.710975	-2.990700	2.972400	-8.889000	28.694196	-1.047827E-5	20.628452
2602.710779	-2.990300	2.972300	-8.886800	28.682558	-1.001624E-5	20.635222
2603.712449	-2.989600	2.969400	-8.876000	28.702460	-1.136934E-5	20.641518
2604.709455	-3.039400	2.968200	-9.020100	28.743016	-9.488199E-6	20.636850
2605.710434	-2.996400	2.966800	-8.888600	28.755036	-1.100631E-5	20.629990
2606.709516	-2.980600	2.966300	-8.840400	28.769695	-1.090730E-5	20.620099
2607.709806	-3.012900	2.963300	-8.926900	28.810792	-6.815002E-6	20.645853
2608.712717	-3.013900	2.961500	-8.925000	28.847864	-9.257182E-6	20.646214
2609.711776	-3.011100	2.960100	-8.912600	28.787891	-1.084130E-5	20.646018
2610.712709	-3.011600	2.958500	-8.908800	28.748278	-9.455196E-6	20.635986
2611.717576	-2.998000	2.957500	-8.865300	28.698860	-8.465124E-6	20.633624
2612.713148	-3.019000	2.955800	-8.922700	28.695914	-1.001624E-5	20.655316
2613.714408	-3.018600	2.954100	-8.916200	28.655137	-9.488199E-6	20.632734
2614.716261	-3.044400	2.951300	-8.984400	28.677078	-1.064328E-5	20.641083
2615.714200	-3.007600	2.951200	-8.875600	28.717164	-7.970087E-6	20.623136
2616.715494	-3.003200	2.950100	-8.859100	28.772345	-1.044527E-5	20.649325
2617.714012	-3.014000	2.948000	-8.884000	28.778774	-1.070929E-5	20.640152
2618.715476	-3.009700	2.946600	-8.867700	28.742650	-1.110532E-5	20.608976
2619.716375	-3.017500	2.945400	-8.886200	28.848218	-9.356189E-6	20.639458
2620.714004	-3.010200	2.944700	-8.862300	28.813363	-1.146834E-5	20.630423
2621.718003	-3.031300	2.941000	-8.914600	28.716152	-1.163336E-5	20.634921
2622.717641	-3.000200	2.940400	-8.820800	28.638113	-1.057728E-5	20.626966
2623.716516	-3.008200	2.939500	-8.842000	28.676342	-1.037926E-5	20.641290
2624.715638	-3.016500	2.937400	-8.859900	28.634453	-1.189738E-5	20.642248
2625.716526	-3.011900	2.936500	-8.843300	28.634380	-9.719216E-6	20.618937
2626.716110	-3.008600	2.934400	-8.827200	28.625371	-9.158175E-6	20.621718
2627.719021	-3.015500	2.931900	-8.840700	28.687090	-9.092170E-6	20.628881
2628.721441	-3.011000	2.931200	-8.824700	28.696025	-1.173236E-5	20.614171
2629.718331	-3.013700	2.929900	-8.829200	28.784750	-7.739070E-6	20.640008
2630.721305	-2.990200	2.927900	-8.754400	28.790830	-9.257182E-6	20.620051
2631.722978	-2.978900	2.926100	-8.715200	28.758180	-8.003089E-6	20.625570
2632.721166	-3.014100	2.924500	-8.813200	28.789897	-9.356189E-6	20.621008
2633.720585	-2.980200	2.923000	-8.710300	28.840456	-6.848004E-6	20.622627
2634.721893	-3.004300	2.920600	-8.773600	28.864266	-1.054428E-5	20.629544
2635.719767	-3.006900	2.919900	-8.779500	28.806624	-9.752218E-6	20.637860
2636.720033	-2.967300	2.918700	-8.659500	28.791139	-9.521201E-6	20.627002
2637.721328	-3.017600	2.915600	-8.796400	28.748492	-8.861153E-6	20.635253
2638.726588	-2.979600	2.914300	-8.682500	28.769204	-9.620209E-6	20.613913
2639.723689	-2.994300	2.913100	-8.722200	28.837373	-9.587206E-6	20.627583
2640.723582	-3.018100	2.910100	-8.782500	28.922281	-9.653211E-6	20.641525
2641.724624	-3.021900	2.908500	-8.787500	28.960306	-7.409046E-6	20.630046
2642.724320	-3.005500	2.907400	-8.737700	28.949156	-9.785221E-6	20.600316
2643.725446	-3.013300	2.905200	-8.753300	28.956768	-6.947012E-6	20.634069
2644.723413	-3.020700	2.903000	-8.767700	28.924401	-1.061028E-5	20.631331
2645.726801	-3.012500	2.901100	-8.738600	28.835275	-1.061028E-5	20.634953
2646.724881	-3.004400	2.898700	-8.708000	28.804015	-9.488199E-6	20.639974
2647.724334	-3.019100	2.898000	-8.748000	28.815612	-1.160035E-5	20.623679
2648.726632	-3.008100	2.896100	-8.710900	28.888941	-9.620209E-6	20.621210
2649.726054	-3.010900	2.894100	-8.712600	28.993528	-8.399119E-6	20.632224
2650.725287	-3.003900	2.892500	-8.687900	29.070691	-8.894155E-6	20.621301
2651.726667	-3.004100	2.890300	-8.681100	29.076095	-8.597133E-6	20.627221
2652.726887	-2.976900	2.890300	-8.603400	28.985789	-8.432121E-6	20.621106
2653.724881	-2.981800	2.888000	-8.609400	28.974081	-9.092170E-6	20.608359
2654.727055	-2.983900	2.885600	-8.609400	28.977952	-9.125172E-6	20.640714
2655.724925	-3.004700	2.884200	-8.665700	28.970286	-8.630136E-6	20.614019
2656.724787	-2.956300	2.882900	-8.522100	28.979082	-9.191177E-6	20.626202
2657.730391	-3.009900	2.880300	-8.668100	29.035798	-1.097331E-5	20.619808
2658.725639	-2.996200	2.877800	-8.621000	29.037373	-9.917231E-6	20.625664
2659.731020	-3.006200	2.876600	-8.646800	28.970595	-9.752218E-6	20.626661
2660.727841	-2.992700	2.874300	-8.601400	28.960129	-9.356189E-6	20.625600
2661.726223	-3.010500	2.871900	-8.644800	28.981875	-1.100631E-5	20.635656
2662.727862	-3.007000	2.871100	-8.632800	29.030624	-1.061028E-5	20.607955
2663.727210	-3.026400	2.867700	-8.677400	29.084741	-1.064328E-5	20.639254
2664.727546	-3.007300	2.865900	-8.617700	28.955781	-9.224179E-6	20.609837
2665.731283	-2.993900	2.864400	-8.575000	28.951724	-8.069094E-6	20.610017
2666.728841	-2.989600	2.862200	-8.555700	28.958532	-9.290184E-6	20.621145
2667.726914	-2.987500	2.861000	-8.546100	28.999761	-7.838077E-6	20.611948
2668.734454	-3.000100	2.858500	-8.574400	29.002983	-9.059167E-6	20.618988
2669.735869	-2.968500	2.857000	-8.479800	28.914407	-8.003089E-6	20.602766
2670.732626	-2.991500	2.854200	-8.537800	28.908419	-9.224179E-6	20.614753
2671.729506	-3.012500	2.851500	-8.589400	28.855525	-1.028026E-5	20.611253
2672.729942	-3.000300	2.849500	-8.547800	28.928933	-9.587206E-6	20.597959
2673.728933	-2.985500	2.848300	-8.503500	28.999251	-8.300111E-6	20.612856
2674.730272	-2.966500	2.846300	-8.443300	28.992826	-1.031326E-5	20.617290
2675.731154	-2.979900	2.844500	-8.475500	29.064406	-9.884228E-6	20.623504
2676.733217	-3.002100	2.842500	-8.532700	29.074759	-1.028026E-5	20.618761
2677.729110	-2.997000	2.840100	-8.510800	29.084999	-7.805075E-6	20.622916
2678.728856	-3.012200	2.837900	-8.547500	29.070135	-1.028026E-5	20.616473
2679.730908	-2.984000	2.835700	-8.460000	29.055532	-8.795148E-6	20.622148
2680.729997	-2.975700	2.834800	-8.435000	29.056725	-9.554204E-6	20.606278
2681.730884	-2.981100	2.832600	-8.442900	29.062712	-1.014825E-5	20.613260
2682.731386	-2.994300	2.827600	-8.466100	29.036432	-1.080830E-5	20.637045
2683.730596	-2.977100	2.826500	-8.414200	28.968609	-9.851226E-6	20.633670
2684.733788	-2.976600	2.825300	-8.408600	28.953127	-8.861153E-6	20.614276
2685.732143	-2.992900	2.822300	-8.446100	29.033651	-9.620209E-6	20.615748
2686.737261	-2.985500	2.819100	-8.415600	29.191046	-9.125172E-6	20.625462
2687.732255	-3.018000	2.815700	-8.496600	29.271634	-9.653211E-6	20.609944
2688.735476	-3.000700	2.814600	-8.445200	29.276169	-9.356189E-6	20.613092
2689.732463	-3.012800	2.812200	-8.471700	29.282033	-8.630136E-6	20.598611
2690.733716	-3.014900	2.809800	-8.470700	29.246843	-9.686214E-6	20.612936
2691.741948	-2.974500	2.808000	-8.351600	29.267927	-9.587206E-6	20.627074
2692.738150	-3.000900	2.804700	-8.415500	29.225015	-8.729143E-6	20.622234
2693.738896	-3.005000	2.801100	-8.416100	29.231732	-9.290184E-6	20.636118
2694.810662	-2.999900	2.800200	-8.399500	29.170856	-8.498126E-6	20.610329
2695.737057	-2.993500	2.795800	-8.368100	29.101296	-9.026165E-6	20.640288
2696.735906	-3.014600	2.794600	-8.424000	29.141148	-8.168102E-6	20.627811
2697.739408	-3.006300	2.791100	-8.389800	29.106976	-8.861153E-6	20.613765
2698.736538	-2.991300	2.788700	-8.340300	29.123170	-8.399119E-6	20.620126
2699.736316	-2.999400	2.785200	-8.352500	29.140109	-1.041227E-5	20.627713
2700.736883	-3.006000	2.781400	-8.359700	29.185160	-9.422194E-6	20.628065
2701.736771	-3.004700	2.779700	-8.351200	29.208477	-9.290184E-6	20.612679
2702.741101	-2.990600	2.776800	-8.303300	29.242247	-1.028026E-5	20.606407
2703.737525	-2.999300	2.773200	-8.316200	29.244949	-9.719216E-6	20.616717
2704.740118	-3.000300	2.771700	-8.315200	29.277161	-8.663138E-6	20.629268
2705.741180	-3.003600	2.767700	-8.311600	29.299113	-6.484978E-6	20.644280
2706.737201	-3.012400	2.765300	-8.329500	29.345577	-6.881007E-6	20.614765
2707.742509	-3.008600	2.762700	-8.311200	29.334845	-6.782000E-6	20.614854
2708.738334	-2.967000	2.759800	-8.187300	29.351878	-8.531128E-6	20.610684
2709.737980	-3.003300	2.755700	-8.275300	29.400571	-5.758924E-6	20.602387
2710.743626	-3.002800	2.752500	-8.265000	29.431051	-8.861153E-6	20.611773
2711.737356	-2.987200	2.750500	-8.215400	29.421027	-8.762145E-6	20.604987
2712.737593	-2.973500	2.747700	-8.169600	29.485425	-8.036092E-6	20.614423
2713.744096	-3.000400	2.743400	-8.230200	29.471580	-7.178029E-6	20.611372
2714.740066	-3.004800	2.739700	-8.230900	29.426997	-8.234107E-6	20.619541
2715.742429	-3.029900	2.735500	-8.287600	29.338529	-8.828150E-6	20.626156
2716.744674	-2.990300	2.733600	-8.173600	29.324595	-7.508053E-6	20.627759
2717.742288	-2.990800	2.730200	-8.163900	29.371519	-7.805075E-6	20.625266
2718.746125	-3.007100	2.725100	-8.194000	29.397864	-1.031326E-5	20.627637
2719.744609	-2.991300	2.722200	-8.141900	29.457170	-7.739070E-6	20.621506
2720.741095	-2.962800	2.720300	-8.058900	29.456147	-7.904082E-6	20.614310
2721.742763	-2.989000	2.715000	-8.114400	29.424760	-9.059167E-6	20.628194
2722.743598	-2.983400	2.711700	-8.089100	29.386606	-8.168102E-6	20.630990
2723.742459	-2.957300	2.709200	-8.010900	29.386097	-7.904082E-6	20.617198
2724.747836	-3.000900	2.705300	-8.116800	29.401166	-8.960160E-6	20.626223
2725.742619	-3.003500	2.700500	-8.110400	29.471631	-8.762145E-6	20.640352
2726.742459	-3.003800	2.695900	-8.096600	29.505029	-1.001624E-5	20.623280
2727.742371	-3.017200	2.692100	-8.121300	29.467106	-7.475051E-6	20.639584
2728.744052	-3.041100	2.687100	-8.170500	29.432539	-9.785221E-6	20.628922
2729.743358	-3.031900	2.684000	-8.136200	29.375243	-8.927158E-6	20.641824
2730.743417	-3.001200	2.679500	-8.040900	29.332538	-9.092170E-6	20.626282
2731.743183	-2.977700	2.676100	-7.967600	29.393357	-7.145026E-6	20.628784
2732.746382	-2.980500	2.671300	-7.960400	29.409473	-9.257182E-6	20.624639
2733.750969	-3.022700	2.666600	-8.059700	29.403129	-8.927158E-6	20.634842
2734.749845	-3.016400	2.662100	-8.029500	29.415458	-7.805075E-6	20.617394
2735.746146	-3.009300	2.658700	-7.999600	29.505776	-6.715995E-6	20.616445
2736.745806	-3.025200	2.653500	-8.026200	29.594253	-8.828150E-6	20.631195
2737.745438	-3.010600	2.648100	-7.971700	29.581108	-8.234107E-6	20.633116
2738.744334	-2.999900	2.644500	-7.932100	29.593370	-7.211031E-6	20.637418
2739.746084	-2.985400	2.639800	-7.879400	29.642131	-1.028026E-5	20.634891
2740.749856	-3.020500	2.633900	-7.954700	29.601746	-8.069094E-6	20.640172
2741.747960	-2.998500	2.628700	-7.881500	29.594229	-5.725922E-6	20.634490
2742.746335	-3.024900	2.623500	-7.934800	29.598453	-9.851226E-6	20.642068
2743.753388	-3.024600	2.618900	-7.919200	29.568675	-6.484978E-6	20.644293
2744.750924	-3.012900	2.614800	-7.876700	29.501979	-7.640063E-6	20.633009
2745.750021	-2.957100	2.610000	-7.717200	29.555360	-5.692919E-6	20.644146
2746.747574	-3.014000	2.603500	-7.846200	29.607860	-8.333114E-6	20.633058
2747.747460	-3.003800	2.598500	-7.804500	29.674744	-7.508053E-6	20.648331
2748.750667	-2.980500	2.594400	-7.731700	29.654204	-7.475051E-6	20.611024
2749.748106	-2.980300	2.587600	-7.711100	29.715936	-8.267109E-6	20.646238
2750.752861	-2.976500	2.581500	-7.682400	29.783583	-6.055946E-6	20.642371
2751.750618	-2.975400	2.576800	-7.665900	29.757937	-6.947012E-6	20.647334
2752.749324	-2.987600	2.570300	-7.678300	29.726428	-5.692919E-6	20.636427
2753.749994	-3.022600	2.563000	-7.746500	29.793101	-5.362895E-6	20.653866
2754.750118	-2.986400	2.558400	-7.639800	29.883444	-8.102097E-6	20.648233
2755.751632	-3.010100	2.551900	-7.680500	29.924149	-5.329893E-6	20.648502
2756.751039	-2.974300	2.545800	-7.570600	29.984357	-7.145026E-6	20.642362
2757.749061	-2.989900	2.540300	-7.594800	29.886906	-7.442048E-6	20.656466
2758.752861	-3.025000	2.533800	-7.662700	29.786396	-7.277036E-6	20.661805
2759.753998	-3.004300	2.526400	-7.588600	29.792979	-5.263888E-6	20.649475
2760.751466	-3.014500	2.522800	-7.604200	29.844212	-7.211031E-6	20.637121
2761.753637	-3.003200	2.515300	-7.553200	29.883508	-7.046019E-6	20.659679
2762.753246	-3.001600	2.511000	-7.536000	29.919180	-6.286963E-6	20.648233
2763.752962	-3.031600	2.503100	-7.587300	29.856860	-5.956939E-6	20.657938
2764.752878	-2.980600	2.497300	-7.443000	29.795331	-6.352968E-6	20.646630
