LabVIEW Measurement	
Writer_Version	2
Reader_Version	2
Separator	Tab
Decimal_Separator	.
Multi_Headings	No
X_Columns	One
Time_Pref	Absolute
Operator	admin
Description	Clolumns are: time, Current, Voltage, Power, Battery Temp, and Chamber Temp
Date	2024/08/16
Time	13:07:17.8513970375061035156
***End_of_Header***	
	
Channels	6						
Samples	1	1	1	1	1	1	
Date	2024/09/09	2024/09/09	2024/09/09	2024/09/09	2024/09/09	2024/09/09	
Time	23:57:01.9514689445495605469	23:57:01.9607071876525878906	23:57:01.9707398414611816407	23:57:01.9330353736877441406	23:57:01.9330353736877441406	23:57:01.9330353736877441406	
X_Dimension	Time	Time	Time	Time	Time	Time	
X0	0.0000000000000000E+0	0.0000000000000000E+0	0.0000000000000000E+0	0.0000000000000000E+0	0.0000000000000000E+0	0.0000000000000000E+0	
Delta_X	1.000000	1.000000	1.000000	1.000000	1.000000	1.000000	
***End_of_Header***							
X_Value	Untitled	Untitled 1	Untitled 2	Untitled 3	Untitled 4	Untitled 5	Comment
0.000000	0.016369	4.088800	0.066973	20.832916	0.000457	20.776966
0.996842	-2.989100	3.921900	-11.722000	20.833831	0.000457	20.777407
2.003661	-3.006100	3.914400	-11.766000	20.837968	0.000455	20.772061
2.995101	-2.987800	3.910600	-11.683000	20.837346	0.000455	20.785190
4.000605	-3.001900	3.907500	-11.729000	20.836275	0.000456	20.767049
5.006125	-3.007300	3.903000	-11.737000	20.856459	0.000453	20.761155
6.001340	-3.003600	3.902500	-11.720000	20.853516	0.000453	20.779075
6.997830	-3.010900	3.899400	-11.739000	20.860775	0.000452	20.786809
8.006249	-3.003500	3.896400	-11.701000	20.882789	0.000450	20.768521
9.001071	-2.997500	3.895700	-11.676000	20.847393	0.000450	20.776271
10.000492	-3.014400	3.892800	-11.734000	20.888143	0.000450	20.799006
11.001952	-2.991500	3.892200	-11.643000	20.893816	0.000450	20.800412
12.000196	-3.010500	3.891100	-11.713000	20.900814	0.000447	20.782754
13.005495	-2.999900	3.889600	-11.667000	20.891789	0.000449	20.796014
14.005227	-3.015100	3.887700	-11.720000	20.927290	0.000446	20.801173
15.003111	-2.999900	3.886900	-11.659000	20.912568	0.000448	20.793562
16.002281	-3.013500	3.887300	-11.713000	20.920751	0.000449	20.794633
17.004656	-2.984500	3.885800	-11.597000	20.925059	0.000447	20.807002
18.005765	-2.974400	3.884900	-11.554000	20.937614	0.000444	20.794428
19.011657	-2.976000	3.883500	-11.556000	20.951011	0.000444	20.799767
20.007074	-2.983000	3.882400	-11.580000	20.962463	0.000444	20.810746
21.005800	-3.014700	3.881900	-11.702000	20.974936	0.000443	20.788133
22.007023	-2.989600	3.881400	-11.603000	20.974855	0.000444	20.800380
23.005586	-3.012200	3.881200	-11.690000	20.990777	0.000442	20.805873
24.009158	-3.008400	3.881200	-11.675000	20.974675	0.000443	20.801148
25.006169	-2.998800	3.879800	-11.633000	20.981459	0.000443	20.812675
26.011252	-3.006100	3.878000	-11.657000	20.999678	0.000442	20.801500
27.011441	-2.998000	3.878200	-11.625000	21.028392	0.000442	20.817417
28.010923	-2.998600	3.878000	-11.626000	21.024698	0.000442	20.814670
29.009492	-3.008700	3.877000	-11.663000	21.035372	0.000441	20.811122
30.020805	-2.995800	3.877200	-11.614000	21.029504	0.000440	20.798140
31.012366	-2.998700	3.876100	-11.623000	21.046374	0.000440	20.796521
32.008292	-2.965100	3.876500	-11.493000	21.055920	0.000441	20.799432
33.011667	-3.021200	3.874900	-11.706000	21.067943	0.000440	20.802448
34.011794	-3.006500	3.874300	-11.646000	21.074530	0.000439	20.813305
35.015482	-3.005000	3.875400	-11.644000	21.085531	0.000441	20.788273
36.009501	-3.023500	3.873600	-11.711000	21.104738	0.000440	20.828347
37.016682	-2.989700	3.873600	-11.580000	21.113924	0.000440	20.794862
38.014410	-2.963600	3.873800	-11.480000	21.107680	0.000439	20.811376
39.009017	-2.987900	3.873900	-11.574000	21.132280	0.000438	20.822232
40.013426	-3.006800	3.871600	-11.640000	21.141981	0.000440	20.807754
41.015428	-2.998000	3.872200	-11.608000	21.147522	0.000438	20.803814
42.011117	-2.975400	3.872800	-11.523000	21.143485	0.000436	20.819690
43.007689	-2.979900	3.872600	-11.539000	21.153031	0.000437	20.811220
44.013871	-3.026900	3.869400	-11.711000	21.168616	0.000439	20.824914
45.010850	-2.998300	3.871300	-11.606000	21.173985	0.000439	20.817008
46.016880	-3.024000	3.868400	-11.696000	21.184241	0.000438	20.829638
47.014946	-3.012000	3.870800	-11.658000	21.181642	0.000440	20.814711
48.015887	-3.013400	3.870600	-11.663000	21.192700	0.000437	20.828617
49.018482	-3.016900	3.870300	-11.676000	21.211430	0.000439	20.820801
50.014008	-2.992000	3.870000	-11.579000	21.218589	0.000436	20.825592
51.020872	-3.002000	3.871000	-11.619000	21.225544	0.000437	20.823540
52.018221	-3.003500	3.868900	-11.619000	21.220330	0.000438	20.829704
53.014467	-3.003100	3.869600	-11.620000	21.231109	0.000438	20.835271
54.016675	-3.004200	3.868800	-11.621000	21.246047	0.000436	20.830301
55.012926	-2.997800	3.869800	-11.600000	21.257627	0.000438	20.830505
56.015197	-3.002900	3.868600	-11.616000	21.279494	0.000437	20.840528
57.016259	-2.981800	3.868900	-11.535000	21.280450	0.000436	20.812561
58.013628	-3.003900	3.867300	-11.617000	21.296540	0.000436	20.825339
59.017177	-3.005300	3.867800	-11.623000	21.316814	0.000435	20.839457
60.020577	-3.012500	3.866300	-11.646000	21.311600	0.000437	20.836612
61.023237	-2.996800	3.866300	-11.586000	21.304793	0.000436	20.843078
62.018978	-3.020900	3.866800	-11.680000	21.344016	0.000438	20.853395
63.018959	-3.016400	3.865600	-11.659000	21.341074	0.000434	20.831012
64.022429	-3.005200	3.865800	-11.617000	21.345912	0.000436	20.836326
65.015720	-3.013500	3.866100	-11.650000	21.369682	0.000437	20.820753
66.020703	-3.018200	3.866800	-11.670000	21.367810	0.000437	20.856812
67.022448	-3.006300	3.867000	-11.624000	21.380206	0.000436	20.834127
68.018380	-3.002000	3.863600	-11.598000	21.377109	0.000436	20.844779
69.019283	-2.965400	3.865300	-11.461000	21.404089	0.000436	20.851384
70.020162	-2.988100	3.866800	-11.553000	21.390428	0.000436	20.840086
71.021425	-2.987000	3.866100	-11.547000	21.429108	0.000438	20.846070
72.020790	-2.993100	3.864100	-11.565000	21.402210	0.000437	20.859461
73.023730	-2.999100	3.863900	-11.587000	21.436854	0.000436	20.826794
74.021686	-2.993300	3.865900	-11.571000	21.434811	0.000437	20.849880
75.021661	-3.016000	3.863300	-11.650000	21.422743	0.000438	20.852030
76.019638	-2.991300	3.863200	-11.555000	21.451471	0.000437	20.864652
77.024549	-2.989100	3.864400	-11.551000	21.477338	0.000436	20.846912
78.021477	-3.023400	3.863600	-11.681000	21.495721	0.000440	20.843021
79.022274	-2.998500	3.862800	-11.581000	21.480876	0.000437	20.864676
80.029550	-3.000000	3.863000	-11.587000	21.518785	0.000438	20.852349
81.025658	-3.002700	3.862500	-11.596000	21.497306	0.000439	20.852194
82.025647	-2.982400	3.863300	-11.520000	21.516857	0.000437	20.850420
83.029997	-2.999800	3.862100	-11.585000	21.536187	0.000436	20.857433
84.027900	-2.988400	3.862600	-11.542000	21.524896	0.000438	20.861782
85.026174	-3.006500	3.862900	-11.613000	21.525934	0.000435	20.851916
86.030025	-3.008000	3.862700	-11.617000	21.539863	0.000435	20.855896
87.023973	-3.015600	3.861400	-11.643000	21.560182	0.000436	20.867693
88.025745	-3.005800	3.863000	-11.611000	21.569111	0.000438	20.853395
89.033061	-2.986500	3.862300	-11.534000	21.559357	0.000437	20.870660
90.028773	-2.994400	3.863100	-11.567000	21.589739	0.000438	20.860286
91.029635	-2.996400	3.862400	-11.572000	21.587672	0.000435	20.865804
92.033867	-2.999500	3.861900	-11.583000	21.591634	0.000440	20.852226
93.030539	-3.001400	3.861000	-11.588000	21.628445	0.000437	20.884319
94.025563	-2.994100	3.860800	-11.558000	21.645380	0.000440	20.853853
95.031426	-2.994000	3.861300	-11.560000	21.632113	0.000440	20.866654
96.027045	-2.989100	3.861700	-11.543000	21.635438	0.000438	20.847697
97.026548	-2.984800	3.860900	-11.523000	21.676201	0.000438	20.870946
98.033165	-2.998300	3.860000	-11.572000	21.656032	0.000438	20.886796
99.028454	-3.008200	3.860100	-11.611000	21.659798	0.000440	20.865910
100.030987	-2.997400	3.860800	-11.571000	21.667910	0.000443	20.863123
101.028731	-2.987700	3.861200	-11.535000	21.698077	0.000440	20.859648
102.028476	-2.998300	3.860900	-11.574000	21.708059	0.000439	20.863948
103.025595	-3.001100	3.859400	-11.582000	21.723588	0.000439	20.849618
104.025974	-2.997300	3.858700	-11.565000	21.727574	0.000441	20.873521
105.029236	-2.980700	3.859200	-11.503000	21.729722	0.000442	20.850542
106.026469	-2.976100	3.859200	-11.484000	21.744581	0.000440	20.867782
107.027631	-3.010700	3.858800	-11.617000	21.741672	0.000444	20.877199
108.034143	-2.978300	3.860600	-11.497000	21.752912	0.000440	20.877068
109.026315	-3.003800	3.858200	-11.589000	21.743420	0.000442	20.866621
110.027996	-3.009700	3.858200	-11.611000	21.754113	0.000440	20.876373
111.033278	-2.982500	3.858100	-11.505000	21.758483	0.000440	20.888807
112.028088	-3.000500	3.857200	-11.573000	21.774860	0.000444	20.888602
113.030055	-2.971600	3.859300	-11.467000	21.764192	0.000442	20.885038
114.031049	-2.989300	3.858200	-11.532000	21.761219	0.000442	20.876373
115.033930	-3.006500	3.858200	-11.599000	21.804485	0.000440	20.886011
116.033663	-2.996500	3.857600	-11.558000	21.813184	0.000441	20.886657
117.032854	-2.992400	3.856600	-11.540000	21.815234	0.000443	20.888235
118.039958	-2.976800	3.857000	-11.481000	21.819612	0.000444	20.889771
119.033548	-2.994300	3.857600	-11.549000	21.845602	0.000443	20.880698
120.036838	-2.971000	3.856900	-11.458000	21.853010	0.000440	20.881948
121.032959	-2.999400	3.856400	-11.566000	21.895399	0.000443	20.873169
122.034168	-2.984500	3.857700	-11.512000	21.860442	0.000445	20.884172
123.030908	-2.991600	3.856000	-11.534000	21.851368	0.000446	20.879357
124.033177	-2.994500	3.857000	-11.549000	21.857878	0.000445	20.900095
125.033553	-3.005800	3.857400	-11.593000	21.900340	0.000446	20.896605
126.036343	-2.996200	3.855700	-11.552000	21.900070	0.000445	20.884482
127.036017	-2.996700	3.854800	-11.551000	21.908899	0.000445	20.904223
128.039256	-3.025000	3.855000	-11.661000	21.895635	0.000445	20.896637
129.038750	-3.015200	3.854500	-11.620000	21.927022	0.000445	20.904820
130.045635	-3.000700	3.854800	-11.566000	21.924956	0.000445	20.897537
131.042557	-3.013700	3.854400	-11.615000	21.913669	0.000447	20.879602
132.039130	-2.990900	3.854700	-11.528000	21.924531	0.000446	20.908490
133.046611	-3.018400	3.855400	-11.635000	21.943037	0.000447	20.894774
134.039175	-2.990600	3.854300	-11.526000	21.945030	0.000447	20.901035
135.039246	-2.988100	3.854000	-11.516000	21.978734	0.000445	20.892101
136.036193	-3.001900	3.853700	-11.568000	21.999706	0.000446	20.911196
137.037679	-2.983700	3.853900	-11.497000	22.003487	0.000446	20.888904
138.038768	-3.014900	3.853900	-11.617000	21.984794	0.000447	20.898166
139.042339	-2.988200	3.855700	-11.521000	21.997036	0.000446	20.891455
140.045573	-2.976600	3.853200	-11.468000	22.007930	0.000450	20.905678
141.041560	-2.987100	3.853700	-11.510000	22.000449	0.000447	20.900561
142.042833	-3.016900	3.853200	-11.623000	22.006509	0.000449	20.881498
143.043322	-2.993800	3.853300	-11.534000	22.028827	0.000450	20.890090
144.043622	-3.017700	3.852200	-11.624000	22.050615	0.000448	20.878237
145.042005	-3.007300	3.853000	-11.586000	22.036381	0.000450	20.903340
146.045124	-3.009200	3.852200	-11.592000	22.050313	0.000450	20.899744
147.047807	-2.987600	3.852500	-11.508000	22.060292	0.000449	20.898354
148.045004	-2.970700	3.853500	-11.445000	22.061982	0.000451	20.882978
149.042125	-2.995000	3.852300	-11.536000	22.074574	0.000451	20.905065
150.046052	-2.999800	3.851900	-11.554000	22.082977	0.000451	20.904942
151.046482	-3.013500	3.852200	-11.608000	22.086692	0.000451	20.899179
152.046872	-3.008900	3.852200	-11.590000	22.087762	0.000451	20.876544
153.050900	-3.008900	3.852300	-11.590000	22.071414	0.000452	20.876773
154.046381	-2.992600	3.850300	-11.521000	22.101603	0.000454	20.866694
155.048286	-2.970300	3.852400	-11.442000	22.138520	0.000454	20.875204
156.046317	-3.005800	3.850600	-11.573000	22.112700	0.000455	20.893449
157.049510	-2.994900	3.850800	-11.532000	22.121740	0.000455	20.871681
158.043898	-2.978900	3.851400	-11.472000	22.116261	0.000452	20.882790
159.044384	-2.989200	3.851200	-11.511000	22.141117	0.000455	20.891078
160.047392	-3.032600	3.848700	-11.670000	22.160265	0.000456	20.872318
161.048717	-3.009800	3.849200	-11.585000	22.149748	0.000456	20.886918
162.050394	-2.992100	3.849700	-11.518000	22.180727	0.000455	20.873838
163.049519	-2.979200	3.850000	-11.468000	22.175403	0.000455	20.874672
164.051422	-3.023600	3.849600	-11.639000	22.182629	0.000455	20.890915
165.047505	-3.026800	3.848500	-11.647000	22.182499	0.000457	20.869449
166.049730	-3.030300	3.848600	-11.662000	22.199294	0.000456	20.868247
167.051709	-3.015600	3.848700	-11.605000	22.213616	0.000457	20.878792
168.046421	-2.990200	3.848300	-11.506000	22.213020	0.000457	20.873928
169.049552	-2.989900	3.849100	-11.508000	22.228345	0.000458	20.876945
170.052129	-3.002800	3.847500	-11.552000	22.233015	0.000457	20.880672
171.047493	-2.991100	3.847600	-11.507000	22.241638	0.000457	20.873658
172.053059	-2.990800	3.848100	-11.507000	22.265576	0.000458	20.878187
173.054554	-3.002500	3.848200	-11.553000	22.283448	0.000458	20.855780
174.049021	-3.004000	3.847300	-11.557000	22.282852	0.000458	20.853761
175.053017	-3.004900	3.848200	-11.562000	22.258277	0.000457	20.855707
176.065704	-2.989200	3.847100	-11.499000	22.277399	0.000459	20.865843
177.052921	-2.986000	3.845900	-11.484000	22.304292	0.000458	20.861004
178.048798	-3.014400	3.845600	-11.590000	22.299687	0.000460	20.865876
179.055515	-3.001700	3.846600	-11.546000	22.311828	0.000461	20.857170
180.055204	-2.991700	3.847500	-11.510000	22.296087	0.000461	20.846150
181.048615	-2.988200	3.846800	-11.494000	22.304382	0.000462	20.855878
182.052643	-3.022400	3.845300	-11.621000	22.317143	0.000461	20.858224
183.055037	-2.992300	3.846900	-11.510000	22.344737	0.000460	20.860252
184.066318	-3.003700	3.845800	-11.551000	22.353212	0.000461	20.867789
185.054603	-3.006800	3.844800	-11.560000	22.358714	0.000462	20.856704
186.055863	-3.005500	3.845700	-11.557000	22.362184	0.000462	20.845954
187.054949	-3.014500	3.845200	-11.590000	22.352567	0.000463	20.844385
188.058310	-3.002800	3.844000	-11.541000	22.379858	0.000464	20.861756
189.053142	-3.030200	3.844600	-11.649000	22.358453	0.000464	20.856916
190.056779	-2.987400	3.844900	-11.486000	22.383703	0.000464	20.873666
191.050325	-3.015400	3.843100	-11.588000	22.375352	0.000465	20.849657
192.057377	-2.996100	3.843600	-11.514000	22.401770	0.000465	20.861887
193.062324	-3.009100	3.844500	-11.567000	22.395369	0.000465	20.857374
194.054038	-3.016400	3.843400	-11.592000	22.397533	0.000466	20.866652
195.056297	-3.025500	3.841500	-11.621000	22.426652	0.000464	20.864519
196.054001	-2.993900	3.844600	-11.510000	22.416758	0.000467	20.849396
197.062215	-2.983000	3.842500	-11.460000	22.425705	0.000463	20.850295
198.051993	-3.007500	3.844200	-11.561000	22.418203	0.000469	20.843730
199.053952	-2.991700	3.843600	-11.498000	22.419852	0.000465	20.863873
200.054359	-2.998000	3.843200	-11.521000	22.449207	0.000467	20.861502
201.052089	-3.002400	3.843100	-11.538000	22.460750	0.000466	20.842717
202.054145	-2.988000	3.843100	-11.482000	22.459477	0.000467	20.851872
203.055092	-3.006400	3.841300	-11.548000	22.475509	0.000467	20.867927
204.052857	-3.007300	3.843000	-11.556000	22.500023	0.000465	20.856916
205.052174	-3.001700	3.842200	-11.531000	22.489109	0.000467	20.867797
206.058080	-3.007700	3.841300	-11.551000	22.485550	0.000469	20.866129
207.052845	-2.980900	3.841100	-11.449000	22.505116	0.000468	20.852535
208.056802	-3.002200	3.842100	-11.533000	22.527572	0.000467	20.849894
209.055126	-3.017600	3.841300	-11.590000	22.540828	0.000468	20.842782
210.057887	-3.012400	3.840200	-11.568000	22.521262	0.000469	20.867756
211.055720	-2.998800	3.840800	-11.517000	22.521834	0.000471	20.846992
212.055529	-3.005200	3.840700	-11.541000	22.522740	0.000470	20.846951
213.063711	-2.991600	3.841400	-11.491000	22.537351	0.000470	20.827920
214.052321	-2.993900	3.840000	-11.495000	22.541587	0.000471	20.845913
215.056271	-3.007900	3.839500	-11.548000	22.552076	0.000472	20.848357
216.054448	-3.011300	3.839500	-11.561000	22.556786	0.000472	20.855919
217.070183	-2.987400	3.839000	-11.467000	22.539171	0.000472	20.848235
218.057769	-3.005100	3.839000	-11.535000	22.558761	0.000473	20.826604
219.057359	-3.001500	3.839800	-11.524000	22.544681	0.000473	20.826727
220.054377	-3.012600	3.837600	-11.560000	22.545391	0.000473	20.837869
221.058478	-3.001300	3.838200	-11.518000	22.564646	0.000470	20.842455
222.055884	-2.991500	3.838300	-11.481000	22.550574	0.000474	20.839267
223.059102	-2.994200	3.839600	-11.496000	22.584685	0.000475	20.841662
224.057950	-3.003900	3.837900	-11.528000	22.567716	0.000473	20.824667
225.055966	-2.995400	3.837100	-11.493000	22.596896	0.000472	20.846305
226.067310	-3.012400	3.836300	-11.556000	22.603295	0.000472	20.834223
227.072571	-3.003300	3.838100	-11.526000	22.646399	0.000476	20.846575
228.070149	-3.014300	3.836600	-11.562000	22.618199	0.000474	20.845357
229.059901	-3.004800	3.837300	-11.529000	22.622802	0.000477	20.837166
230.061865	-2.991500	3.836300	-11.475000	22.631862	0.000476	20.829645
231.072240	-2.981300	3.837500	-11.440000	22.638261	0.000476	20.845063
232.061318	-2.975800	3.837000	-11.417000	22.642350	0.000478	20.828296
233.059073	-3.009000	3.836000	-11.542000	22.636596	0.000474	20.820162
234.064038	-3.016500	3.835800	-11.569000	22.627202	0.000476	20.829719
235.062320	-3.013200	3.835400	-11.556000	22.649778	0.000476	20.835735
236.058657	-3.006500	3.836000	-11.533000	22.669088	0.000477	20.802447
237.068404	-3.012400	3.835300	-11.553000	22.681518	0.000477	20.836708
238.063558	-3.014200	3.834700	-11.558000	22.690488	0.000480	20.845692
239.071016	-3.010200	3.835000	-11.543000	22.698911	0.000480	20.826154
240.060089	-3.015800	3.834500	-11.563000	22.717747	0.000479	20.825582
241.069765	-3.006400	3.833700	-11.525000	22.747993	0.000480	20.835964
242.068629	-2.976500	3.834600	-11.413000	22.761736	0.000478	20.816541
243.071063	-2.970800	3.834500	-11.390000	22.801806	0.000480	20.813058
244.066761	-2.993700	3.834600	-11.479000	22.763980	0.000481	20.805039
245.059946	-3.027500	3.834300	-11.607000	22.766804	0.000481	20.847695
246.068817	-3.009600	3.832600	-11.534000	22.767922	0.000482	20.840280
247.062726	-3.027500	3.832100	-11.601000	22.754668	0.000482	20.827479
248.068026	-3.004400	3.832900	-11.515000	22.769317	0.000481	20.830299
249.067358	-3.013700	3.832000	-11.547000	22.784236	0.000482	20.845243
250.063622	-2.999800	3.832900	-11.497000	22.792511	0.000482	20.802799
251.062164	-2.994400	3.832400	-11.475000	22.813728	0.000482	20.835907
252.067403	-2.996800	3.833400	-11.487000	22.835150	0.000482	20.804736
253.068648	-2.986200	3.833900	-11.448000	22.799774	0.000481	20.830937
254.067150	-2.989200	3.833300	-11.456000	22.818878	0.000482	20.807401
255.071690	-3.004600	3.832200	-11.513000	22.815516	0.000484	20.835327
256.065010	-3.022100	3.831900	-11.579000	22.819955	0.000484	20.849730
257.066886	-2.998800	3.831100	-11.487000	22.861508	0.000485	20.827348
258.067289	-3.005000	3.831700	-11.514000	22.874230	0.000484	20.814489
259.068798	-2.992300	3.831300	-11.464000	22.896327	0.000484	20.818135
260.062859	-3.016700	3.830200	-11.554000	22.885670	0.000484	20.825950
261.069329	-2.987300	3.830700	-11.442000	22.855845	0.000487	20.823097
262.064803	-3.019100	3.829600	-11.561000	22.866037	0.000485	20.824773
263.066772	-3.001700	3.829400	-11.493000	22.866437	0.000485	20.842717
264.072054	-2.973400	3.829900	-11.386000	22.887980	0.000486	20.817832
265.069357	-2.985500	3.828000	-11.428000	22.906511	0.000487	20.828337
266.068007	-2.985100	3.830100	-11.432000	22.926511	0.000489	20.823244
267.070787	-2.974400	3.829800	-11.391000	22.945466	0.000487	20.814734
268.073503	-3.008600	3.829200	-11.519000	22.978814	0.000488	20.827283
269.071613	-3.013300	3.828100	-11.534000	22.931342	0.000489	20.815282
270.072454	-3.009400	3.828200	-11.520000	22.940358	0.000486	20.826212
271.070547	-2.979400	3.828800	-11.407000	22.956163	0.000489	20.813598
272.071985	-3.004100	3.827600	-11.498000	22.942374	0.000490	20.825386
273.073354	-2.982400	3.827300	-11.413000	22.971291	0.000489	20.836814
274.074084	-2.978200	3.828000	-11.399000	22.967628	0.000489	20.811333
275.078084	-2.986600	3.828000	-11.432000	22.943867	0.000489	20.828304
276.073505	-3.004500	3.827500	-11.499000	22.942561	0.000488	20.819884
277.075619	-3.006200	3.826600	-11.502000	22.928518	0.000490	20.820988
278.073130	-2.984800	3.827800	-11.425000	22.971658	0.000491	20.833863
279.074922	-2.996600	3.825800	-11.463000	22.965155	0.000492	20.816443
280.075585	-3.000500	3.825800	-11.479000	22.958260	0.000490	20.821863
281.074397	-3.008800	3.826400	-11.512000	22.961100	0.000489	20.822811
282.072876	-2.992600	3.826200	-11.450000	22.951382	0.000489	20.823980
283.072966	-2.989500	3.825000	-11.434000	22.998682	0.000491	20.818740
284.076446	-2.996800	3.825700	-11.464000	23.013532	0.000493	20.801850
285.078154	-2.987300	3.825500	-11.427000	23.021471	0.000493	20.823081
286.077646	-2.979100	3.825300	-11.395000	23.027525	0.000493	20.801172
287.076932	-3.023400	3.823400	-11.559000	23.002721	0.000493	20.805243
288.079287	-2.984500	3.824500	-11.413000	23.010619	0.000494	20.813631
289.077168	-2.995800	3.822800	-11.450000	23.008326	0.000496	20.820816
290.076034	-3.025800	3.823800	-11.569000	23.013687	0.000495	20.811015
291.082014	-2.980900	3.825200	-11.402000	23.025812	0.000495	20.822214
292.076377	-3.021800	3.823700	-11.554000	23.061531	0.000494	20.809167
293.078252	-3.019400	3.823600	-11.543000	23.061507	0.000494	20.808668
294.077109	-3.008100	3.822400	-11.497000	23.088969	0.000496	20.802521
295.079289	-3.001300	3.822800	-11.472000	23.098686	0.000496	20.801826
296.081813	-3.004900	3.822800	-11.486000	23.075254	0.000496	20.796839
297.077084	-3.011500	3.822000	-11.509000	23.087158	0.000495	20.808766
298.075606	-3.012000	3.821500	-11.510000	23.119033	0.000496	20.811783
299.080902	-2.998100	3.822100	-11.458000	23.129321	0.000496	20.816402
300.078194	-3.001400	3.822400	-11.471000	23.105564	0.000497	20.798760
301.081487	-3.005700	3.820400	-11.483000	23.135758	0.000499	20.789661
302.081154	-2.992400	3.821800	-11.435000	23.137071	0.000497	20.801409
303.089506	-2.995900	3.820400	-11.444000	23.169149	0.000498	20.792776
304.085182	-2.995500	3.819900	-11.440000	23.179339	0.000499	20.802512
305.083818	-2.992600	3.821000	-11.433000	23.176483	0.000499	20.788746
306.086810	-3.011400	3.819800	-11.502000	23.121913	0.000500	20.785745
307.082944	-3.021900	3.819900	-11.543000	23.166294	0.000499	20.778061
308.085756	-3.007600	3.819700	-11.487000	23.174109	0.000497	20.782573
309.084074	-2.983500	3.821000	-11.399000	23.171939	0.000499	20.788934
310.089044	-3.006200	3.819800	-11.481000	23.140384	0.000500	20.798090
311.085487	-3.011000	3.819400	-11.500000	23.150679	0.000500	20.788018
312.084602	-3.009800	3.818200	-11.491000	23.162786	0.000500	20.786874
313.084690	-3.041600	3.817200	-11.609000	23.189275	0.000501	20.802512
314.086723	-2.998000	3.817100	-11.443000	23.185253	0.000501	20.783783
315.086383	-3.002900	3.818700	-11.466000	23.217966	0.000501	20.794280
316.085735	-3.015500	3.819100	-11.515000	23.239241	0.000502	20.790471
317.085785	-2.999800	3.818000	-11.453000	23.247203	0.000500	20.770474
318.086105	-3.012700	3.817700	-11.500000	23.243173	0.000502	20.778764
319.088066	-3.021100	3.817800	-11.533000	23.280909	0.000503	20.798090
320.089631	-3.008900	3.816600	-11.483000	23.303341	0.000501	20.784061
321.091931	-3.004500	3.817300	-11.468000	23.274065	0.000501	20.790283
322.088192	-3.014800	3.816700	-11.506000	23.260524	0.000502	20.773393
323.088796	-2.988200	3.817900	-11.407000	23.273070	0.000502	20.771267
324.095245	-3.027300	3.814800	-11.547000	23.300135	0.000501	20.768520
325.088404	-3.037400	3.814900	-11.586000	23.307868	0.000504	20.785279
326.091520	-3.005900	3.816000	-11.470000	23.312126	0.000504	20.774374
327.093674	-3.012500	3.814700	-11.491000	23.309116	0.000503	20.763770
328.093003	-2.997500	3.815700	-11.437000	23.297517	0.000504	20.773483
329.093411	-3.004300	3.813900	-11.457000	23.316816	0.000504	20.784764
330.094750	-2.993800	3.815000	-11.421000	23.326825	0.000507	20.759707
331.092998	-2.979800	3.815200	-11.367000	23.362633	0.000504	20.780423
332.096831	-2.992600	3.814600	-11.415000	23.377005	0.000505	20.777758
333.099881	-3.006200	3.814400	-11.466000	23.375341	0.000506	20.775616
334.094354	-2.990200	3.814900	-11.406000	23.399720	0.000506	20.755955
335.099241	-3.028600	3.813100	-11.547000	23.351662	0.000505	20.762789
336.095345	-3.001700	3.814200	-11.449000	23.351320	0.000507	20.762920
337.097201	-3.000800	3.814000	-11.444000	23.353954	0.000505	20.761293
338.094425	-2.999800	3.813900	-11.439000	23.338766	0.000506	20.765986
339.096111	-3.030600	3.812700	-11.554000	23.337404	0.000506	20.735222
340.104139	-2.990800	3.813300	-11.404000	23.325479	0.000506	20.743659
341.097665	-2.983400	3.812300	-11.373000	23.354191	0.000508	20.756315
342.098631	-2.998100	3.812100	-11.428000	23.344558	0.000508	20.765626
343.100276	-2.994300	3.812500	-11.415000	23.324019	0.000506	20.760688
344.098629	-2.988900	3.813400	-11.398000	23.367861	0.000508	20.767645
345.099853	-3.007500	3.811300	-11.461000	23.361662	0.000508	20.760958
346.100092	-3.011400	3.811900	-11.478000	23.378416	0.000509	20.749300
347.098074	-3.007300	3.811900	-11.463000	23.376907	0.000510	20.751107
348.099200	-3.008100	3.811000	-11.463000	23.384134	0.000510	20.772101
349.104449	-2.984000	3.809900	-11.369000	23.382706	0.000508	20.746962
350.101419	-2.990800	3.810000	-11.394000	23.383930	0.000507	20.750085
351.100987	-3.001200	3.809200	-11.432000	23.396254	0.000509	20.757222
352.100064	-3.005600	3.810000	-11.451000	23.370659	0.000509	20.759070
353.103646	-2.985900	3.811400	-11.380000	23.381238	0.000509	20.752129
354.102061	-3.014200	3.808700	-11.480000	23.402526	0.000510	20.765880
355.100440	-3.014400	3.808100	-11.479000	23.454465	0.000509	20.749660
356.103208	-2.995400	3.809600	-11.410000	23.478443	0.000512	20.756151
357.100995	-3.015500	3.807900	-11.481000	23.484560	0.000511	20.747583
358.108622	-3.043100	3.807300	-11.584000	23.500072	0.000512	20.742269
359.103491	-3.020600	3.807700	-11.501000	23.509834	0.000511	20.747313
360.107360	-2.975900	3.808700	-11.333000	23.480033	0.000510	20.743994
361.105256	-2.989300	3.807700	-11.382000	23.485807	0.000510	20.760688
362.105261	-3.005200	3.807400	-11.442000	23.494200	0.000512	20.761040
363.103961	-3.018900	3.806900	-11.491000	23.489559	0.000513	20.750224
364.106802	-3.013300	3.807700	-11.473000	23.501409	0.000509	20.753568
365.109797	-3.023500	3.805500	-11.505000	23.466185	0.000510	20.745760
366.104404	-2.992900	3.804800	-11.386000	23.471062	0.000511	20.758236
367.104984	-2.991000	3.807600	-11.387000	23.457270	0.000511	20.757214
368.105071	-2.997300	3.806300	-11.408000	23.492495	0.000512	20.747003
369.105141	-3.009400	3.805800	-11.452000	23.485179	0.000511	20.748205
370.107821	-3.002500	3.804900	-11.423000	23.497845	0.000513	20.745253
371.107250	-3.025400	3.803300	-11.506000	23.511636	0.000511	20.738214
372.109747	-3.004500	3.805700	-11.433000	23.536037	0.000512	20.734225
373.104651	-3.011400	3.805100	-11.458000	23.584903	0.000512	20.743381
374.109019	-2.999600	3.804200	-11.410000	23.592544	0.000512	20.733023
375.106550	-2.987100	3.804500	-11.364000	23.620303	0.000512	20.733350
376.106000	-3.002800	3.804200	-11.422000	23.600781	0.000513	20.738909
377.103872	-2.994200	3.804200	-11.390000	23.572573	0.000513	20.722484
378.105887	-2.986100	3.803700	-11.357000	23.579292	0.000514	20.725428
379.105413	-2.972600	3.803600	-11.305000	23.603741	0.000515	20.733816
380.103690	-2.989200	3.804000	-11.369000	23.590399	0.000515	20.737037
381.110042	-2.989300	3.803700	-11.369000	23.592512	0.000513	20.731567
382.106386	-3.006800	3.801300	-11.429000	23.601947	0.000514	20.726327
383.107066	-3.027600	3.800600	-11.505000	23.614497	0.000515	20.723735
384.116584	-2.989400	3.802200	-11.365000	23.564809	0.000517	20.737462
385.104053	-2.996700	3.801300	-11.391000	23.560601	0.000513	20.733243
386.107575	-2.990400	3.801200	-11.366000	23.552951	0.000515	20.741223
387.108460	-2.996400	3.801800	-11.390000	23.587888	0.000514	20.731200
388.105419	-2.997700	3.800500	-11.391000	23.569465	0.000514	20.747820
389.106821	-2.987300	3.802000	-11.356000	23.563912	0.000516	20.730398
390.109481	-3.025600	3.798900	-11.494000	23.577009	0.000516	20.735467
391.110835	-2.981400	3.800400	-11.329000	23.627047	0.000516	20.719247
392.111198	-2.981500	3.800500	-11.330000	23.628963	0.000516	20.734919
393.110264	-2.987400	3.799900	-11.351000	23.662617	0.000517	20.694213
394.109501	-3.011300	3.798500	-11.437000	23.700306	0.000517	20.716827
395.107786	-3.010300	3.798700	-11.434000	23.694182	0.000516	20.721119
396.110755	-3.019100	3.797700	-11.464000	23.674474	0.000516	20.740716
397.108379	-3.002700	3.797900	-11.402000	23.657423	0.000516	20.728363
398.108469	-3.017700	3.799100	-11.464000	23.680899	0.000516	20.728665
399.107450	-2.992700	3.798200	-11.366000	23.685531	0.000516	20.723351
400.107257	-3.005200	3.797300	-11.411000	23.692568	0.000519	20.736571
401.109102	-2.988800	3.797800	-11.350000	23.672590	0.000516	20.716067
402.110379	-2.997600	3.797800	-11.383000	23.648942	0.000518	20.718438
403.108237	-2.995000	3.797800	-11.373000	23.687822	0.000516	20.725174
404.110246	-2.991700	3.798900	-11.364000	23.697534	0.000519	20.719737
405.108555	-2.985600	3.796600	-11.333000	23.709431	0.000517	20.705585
406.109050	-3.010700	3.796500	-11.429000	23.706446	0.000518	20.711603
407.112957	-2.983300	3.797400	-11.328000	23.675232	0.000518	20.724880
408.108459	-3.001900	3.796300	-11.396000	23.694990	0.000520	20.709600
409.112018	-3.007300	3.796000	-11.415000	23.728103	0.000517	20.716721
410.112852	-3.005600	3.795800	-11.407000	23.718221	0.000521	20.715821
411.111135	-2.998200	3.795700	-11.380000	23.733085	0.000521	20.707016
412.116514	-3.001500	3.795000	-11.389000	23.752402	0.000522	20.715478
413.114698	-2.985600	3.793800	-11.326000	23.773952	0.000520	20.705316
414.113753	-2.978500	3.793700	-11.298000	23.797295	0.000520	20.713549
415.116538	-2.983200	3.794100	-11.317000	23.768179	0.000520	20.700476
416.115947	-3.013100	3.793800	-11.430000	23.744436	0.000520	20.703697
417.110711	-3.008200	3.793200	-11.410000	23.770250	0.000519	20.702552
418.112884	-3.003000	3.794600	-11.395000	23.797255	0.000520	20.706395
419.114219	-3.007700	3.793200	-11.408000	23.797450	0.000521	20.697107
420.114357	-2.991600	3.791800	-11.342000	23.807243	0.000522	20.706452
421.114160	-2.976400	3.793300	-11.290000	23.797010	0.000520	20.707098
422.113724	-2.993500	3.791400	-11.349000	23.826370	0.000521	20.701923
423.113979	-3.017600	3.791800	-11.440000	23.814499	0.000523	20.704719
424.116069	-2.979100	3.791700	-11.295000	23.845913	0.000521	20.694017
425.113825	-2.996400	3.790600	-11.357000	23.838624	0.000522	20.697614
426.116879	-3.007500	3.791500	-11.402000	23.798779	0.000523	20.712191
427.114413	-2.975800	3.792200	-11.284000	23.810153	0.000522	20.689455
428.115121	-2.995400	3.789800	-11.351000	23.818013	0.000523	20.708717
429.113789	-3.002900	3.790800	-11.382000	23.819456	0.000522	20.701154
430.119357	-3.010300	3.790400	-11.410000	23.843206	0.000523	20.687509
431.117199	-3.006000	3.791400	-11.395000	23.851808	0.000523	20.696608
432.125470	-3.006800	3.789200	-11.392000	23.825856	0.000522	20.700459
433.120262	-3.036600	3.787800	-11.501000	23.833863	0.000523	20.712281
434.118669	-3.001400	3.789200	-11.371000	23.794613	0.000524	20.697107
435.117901	-2.985600	3.789800	-11.314000	23.782913	0.000522	20.711930
436.119423	-3.006000	3.789600	-11.391000	23.773503	0.000522	20.703443
437.118069	-2.990600	3.790400	-11.335000	23.800728	0.000524	20.705610
438.117901	-3.009500	3.788900	-11.402000	23.822563	0.000524	20.709485
439.123738	-3.003800	3.787600	-11.376000	23.820223	0.000524	20.702397
440.124397	-2.994500	3.788300	-11.343000	23.828164	0.000524	20.710834
441.118781	-2.986600	3.787200	-11.310000	23.846427	0.000525	20.704490
442.122255	-2.965200	3.788000	-11.231000	23.873780	0.000527	20.730971
443.119317	-2.995200	3.786900	-11.340000	23.918294	0.000527	20.711120
444.124297	-3.008100	3.787100	-11.390000	23.913117	0.000527	20.698816
445.121758	-2.984900	3.787800	-11.305000	23.898760	0.000525	20.716663
446.122081	-2.998400	3.785200	-11.349000	23.887420	0.000526	20.724259
447.121247	-2.978500	3.786300	-11.276000	23.907720	0.000526	20.703836
448.121243	-2.982800	3.786800	-11.294000	23.921188	0.000524	20.688416
449.120595	-3.004800	3.785100	-11.373000	23.953064	0.000526	20.706158
450.124150	-2.988800	3.785400	-11.313000	23.971553	0.000527	20.709052
451.123275	-3.022300	3.784000	-11.435000	23.969930	0.000528	20.706002
452.122169	-2.987300	3.784900	-11.306000	23.944797	0.000524	20.730112
453.125452	-3.022200	3.783900	-11.435000	23.954376	0.000524	20.717432
454.127016	-3.000600	3.784800	-11.356000	23.949892	0.000526	20.718151
455.125792	-2.996700	3.783700	-11.338000	23.945694	0.000526	20.698767
456.129363	-2.995700	3.782900	-11.331000	23.980561	0.000525	20.724250
457.124449	-3.004800	3.782800	-11.366000	23.947463	0.000527	20.715715
458.124252	-3.007000	3.782400	-11.373000	23.931028	0.000526	20.704923
459.129242	-3.020100	3.782500	-11.423000	23.926055	0.000527	20.726490
460.126132	-2.999600	3.782900	-11.346000	23.954156	0.000527	20.702037
461.124554	-2.980800	3.782300	-11.274000	23.974993	0.000527	20.712976
462.129756	-2.993800	3.781200	-11.319000	23.947186	0.000527	20.683666
463.125484	-3.001200	3.781800	-11.348000	23.977871	0.000528	20.713491
464.128167	-2.984700	3.783000	-11.291000	24.000664	0.000527	20.717383
465.130091	-2.988900	3.781600	-11.302000	24.007633	0.000526	20.709673
466.126905	-3.003200	3.780000	-11.351000	23.980487	0.000526	20.709003
467.125816	-3.000200	3.780600	-11.342000	23.986373	0.000525	20.710164
468.128549	-3.004400	3.780500	-11.358000	23.994819	0.000527	20.733808
469.126846	-3.026100	3.778700	-11.434000	24.032945	0.000525	20.714194
470.126725	-2.998300	3.779300	-11.331000	24.052900	0.000531	20.711447
471.131347	-3.011900	3.779500	-11.382000	24.044928	0.000526	20.702029
472.128170	-2.973700	3.779300	-11.238000	24.038268	0.000528	20.714791
473.127344	-2.993200	3.780300	-11.314000	24.020252	0.000530	20.719010
474.125188	-3.007700	3.777000	-11.359000	24.060611	0.000527	20.708275
475.132706	-3.001300	3.780000	-11.343000	24.022290	0.000528	20.738124
476.129160	-3.007200	3.777900	-11.359000	24.016788	0.000529	20.742564
477.128910	-2.988100	3.779000	-11.291000	24.021720	0.000526	20.720007
478.133870	-3.010600	3.777100	-11.371000	24.017269	0.000527	20.725975
479.135378	-2.993300	3.776700	-11.304000	24.032570	0.000527	20.726621
480.128613	-2.991600	3.777300	-11.299000	24.052957	0.000527	20.726204
481.136981	-2.992900	3.777400	-11.305000	24.036931	0.000529	20.751859
482.130602	-2.994800	3.777200	-11.311000	24.056780	0.000527	20.722452
483.133353	-2.993700	3.777300	-11.307000	24.092866	0.000531	20.719762
484.133030	-3.016300	3.777800	-11.393000	24.071224	0.000527	20.715601
485.134007	-2.991400	3.775800	-11.294000	24.063138	0.000527	20.725509
486.136957	-3.009700	3.775300	-11.362000	24.075259	0.000529	20.736244
487.130417	-3.026700	3.775300	-11.426000	24.076400	0.000530	20.719370
488.129801	-3.015000	3.775200	-11.381000	24.060880	0.000528	20.722771
489.133099	-2.991600	3.774400	-11.291000	24.081780	0.000528	20.711488
490.129733	-3.018200	3.774400	-11.390000	24.115249	0.000527	20.725616
491.132379	-3.014000	3.773300	-11.372000	24.108141	0.000527	20.697148
492.134177	-2.996600	3.774600	-11.310000	24.160658	0.000528	20.729434
493.130238	-3.012100	3.773600	-11.365000	24.176886	0.000530	20.743814
494.130373	-2.976300	3.773500	-11.231000	24.140680	0.000529	20.733579
495.134988	-2.986700	3.773000	-11.267000	24.167007	0.000528	20.744812
496.131405	-3.006400	3.773600	-11.344000	24.175247	0.000527	20.733636
497.129917	-2.983000	3.773100	-11.254000	24.151113	0.000530	20.729344
498.135168	-3.002700	3.772700	-11.327000	24.155995	0.000530	20.711480
499.131582	-3.004600	3.772000	-11.333000	24.167708	0.000529	20.742196
500.133053	-2.998200	3.772600	-11.310000	24.177562	0.000528	20.739277
501.135399	-2.995100	3.771300	-11.294000	24.200661	0.000529	20.732099
502.136894	-3.009100	3.770400	-11.344000	24.201900	0.000530	20.712003
503.131886	-3.000700	3.771900	-11.317000	24.213392	0.000529	20.730644
504.134730	-2.990500	3.771700	-11.278000	24.227573	0.000529	20.722108
505.146950	-3.000100	3.771000	-11.312000	24.192323	0.000528	20.724684
506.135319	-2.999300	3.769900	-11.306000	24.162858	0.000528	20.762937
507.137119	-3.000600	3.770100	-11.311000	24.138251	0.000531	20.750584
508.141340	-3.030200	3.770200	-11.423000	24.101800	0.000533	20.715445
509.134277	-2.986100	3.768800	-11.254000	24.150567	0.000530	20.734960
510.139339	-2.991700	3.770100	-11.278000	24.155621	0.000531	20.733391
511.138286	-3.017100	3.768900	-11.370000	24.165173	0.000529	20.727324
512.134593	-2.992000	3.769000	-11.276000	24.175304	0.000529	20.736064
513.140067	-3.009000	3.768700	-11.340000	24.176446	0.000531	20.729148
514.136941	-3.009200	3.768600	-11.339000	24.184083	0.000532	20.733489
515.138531	-2.985500	3.769300	-11.253000	24.184205	0.000533	20.738827
516.137573	-3.005900	3.767700	-11.324000	24.226717	0.000529	20.752546
517.139884	-3.028000	3.767000	-11.405000	24.251396	0.000529	20.744583
518.136604	-3.022200	3.767100	-11.384000	24.298046	0.000529	20.745858
519.134782	-3.025600	3.765900	-11.393000	24.273694	0.000530	20.740871
520.138250	-3.016900	3.766100	-11.362000	24.268389	0.000531	20.740765
521.138484	-2.973100	3.767500	-11.200000	24.227956	0.000532	20.747624
522.139274	-3.023100	3.765600	-11.382000	24.240222	0.000530	20.737168
523.139852	-2.982800	3.767200	-11.236000	24.233824	0.000529	20.744027
524.136633	-3.019300	3.766100	-11.370000	24.223441	0.000530	20.748785
525.136403	-3.003800	3.766600	-11.313000	24.211199	0.000531	20.738402
526.142532	-2.988200	3.764700	-11.249000	24.256905	0.000530	20.742997
527.137496	-2.998800	3.764900	-11.290000	24.250206	0.000531	20.745760
528.137522	-2.997700	3.765400	-11.287000	24.268788	0.000531	20.750175
529.138762	-2.984600	3.765000	-11.236000	24.281599	0.000529	20.739792
530.139253	-2.984600	3.765600	-11.238000	24.270353	0.000532	20.741313
531.136998	-3.002200	3.764300	-11.300000	24.277745	0.000531	20.766746
532.144424	-3.003700	3.763000	-11.302000	24.263230	0.000532	20.758350
533.144330	-2.983200	3.764300	-11.229000	24.244354	0.000532	20.748899
534.138090	-3.020900	3.763300	-11.368000	24.251567	0.000530	20.740961
535.148158	-3.000200	3.762300	-11.286000	24.242007	0.000531	20.717146
536.141909	-2.997400	3.762400	-11.276000	24.275821	0.000531	20.769558
537.139879	-3.000200	3.762800	-11.288000	24.241885	0.000533	20.759225
538.137213	-2.993000	3.762400	-11.260000	24.237924	0.000531	20.778012
539.143993	-2.993800	3.762100	-11.261000	24.279448	0.000531	20.752333
540.140710	-2.979200	3.762900	-11.210000	24.308485	0.000531	20.762495
541.147701	-2.974600	3.762200	-11.190000	24.302854	0.000532	20.755898
542.141390	-2.964300	3.763400	-11.156000	24.277182	0.000531	20.760018
543.144260	-2.986500	3.761100	-11.232000	24.259970	0.000531	20.763615
544.143996	-2.988800	3.760700	-11.239000	24.264721	0.000532	20.747992
545.141967	-2.981300	3.760400	-11.210000	24.254639	0.000531	20.766329
546.145525	-2.982400	3.760100	-11.212000	24.266636	0.000531	20.764138
547.145722	-2.993100	3.761200	-11.256000	24.305209	0.000532	20.747828
548.144417	-2.996500	3.759300	-11.263000	24.298086	0.000532	20.763443
549.145355	-2.978700	3.760800	-11.201000	24.317303	0.000530	20.756642
550.143400	-3.008500	3.760000	-11.311000	24.337538	0.000532	20.777889
551.140038	-2.998600	3.758700	-11.270000	24.337139	0.000532	20.766583
552.143898	-3.009700	3.759400	-11.314000	24.368310	0.000529	20.761342
553.148669	-3.005500	3.758600	-11.295000	24.356021	0.000533	20.747591
554.146246	-3.012700	3.758500	-11.322000	24.371594	0.000529	20.783129
555.147002	-2.990400	3.758200	-11.238000	24.325102	0.000531	20.755456
556.141295	-2.981100	3.757400	-11.201000	24.331092	0.000531	20.766207
557.146339	-3.011400	3.757100	-11.313000	24.359476	0.000531	20.749161
558.147039	-3.004700	3.757900	-11.291000	24.380949	0.000529	20.776393
559.146359	-3.025900	3.755500	-11.363000	24.359036	0.000531	20.782860
560.144639	-2.989400	3.758000	-11.234000	24.378464	0.000528	20.749717
561.145607	-3.007000	3.756900	-11.296000	24.376875	0.000529	20.762822
562.145330	-2.988300	3.757400	-11.226000	24.395259	0.000530	20.763721
563.147019	-2.997400	3.755400	-11.256000	24.418312	0.000529	20.775943
564.145789	-3.023200	3.755600	-11.353000	24.455128	0.000530	20.766885
565.143194	-2.990200	3.755900	-11.230000	24.409145	0.000530	20.779549
566.146927	-3.014400	3.753200	-11.313000	24.424391	0.000529	20.770188
567.144300	-3.010000	3.754800	-11.301000	24.400540	0.000530	20.775183
568.148694	-3.017500	3.753200	-11.324000	24.436354	0.000530	20.766542
569.150881	-2.995100	3.754600	-11.244000	24.455405	0.000533	20.768111
570.149045	-3.003000	3.753400	-11.270000	24.454639	0.000531	20.776352
571.155504	-2.984700	3.754800	-11.206000	24.434422	0.000531	20.781200
572.147220	-3.008400	3.754200	-11.294000	24.411842	0.000532	20.768978
573.146346	-3.006400	3.752800	-11.282000	24.408623	0.000531	20.777129
574.152358	-3.001700	3.752800	-11.264000	24.437185	0.000529	20.764531
575.152594	-2.994400	3.752600	-11.235000	24.441919	0.000530	20.765013
576.150153	-3.010600	3.752100	-11.294000	24.429264	0.000530	20.765119
577.151306	-2.997100	3.753200	-11.248000	24.410400	0.000531	20.774644
578.148917	-3.000500	3.751000	-11.254000	24.419013	0.000530	20.752464
579.154106	-2.999500	3.752000	-11.253000	24.429737	0.000529	20.768439
580.153057	-3.003700	3.752500	-11.270000	24.430780	0.000529	20.772330
581.153694	-2.988800	3.752200	-11.213000	24.495878	0.000530	20.755611
582.153805	-2.988500	3.751500	-11.210000	24.523101	0.000532	20.781028
583.152004	-2.997200	3.749600	-11.237000	24.544392	0.000528	20.771570
584.155630	-3.014100	3.750500	-11.303000	24.533376	0.000529	20.776638
585.156122	-2.995400	3.751600	-11.237000	24.512256	0.000531	20.785320
586.152170	-3.004700	3.750200	-11.267000	24.527656	0.000530	20.794607
587.153532	-2.985200	3.750500	-11.195000	24.544343	0.000529	20.777211
588.155890	-2.985800	3.750800	-11.198000	24.561950	0.000530	20.797722
589.153990	-2.994000	3.749600	-11.225000	24.579565	0.000529	20.788844
590.156529	-2.995300	3.748600	-11.228000	24.603544	0.000528	20.785402
591.153901	-3.021500	3.748800	-11.326000	24.609116	0.000530	20.780088
592.156843	-2.998000	3.748300	-11.236000	24.571817	0.000529	20.777750
593.163306	-3.001000	3.748500	-11.249000	24.558927	0.000530	20.788999
594.156446	-2.980300	3.748100	-11.169000	24.561021	0.000528	20.780669
595.157626	-2.998000	3.748500	-11.238000	24.538216	0.000530	20.798564
596.159139	-2.980200	3.747800	-11.168000	24.504483	0.000528	20.778470
597.156607	-2.956300	3.747300	-11.076000	24.449098	0.000528	20.773638
598.158858	-3.007400	3.747600	-11.268000	24.485913	0.000527	20.784969
599.156215	-2.991200	3.747200	-11.207000	24.500539	0.000529	20.783522
600.161710	-2.971500	3.745300	-11.128000	24.516607	0.000530	20.798695
601.162963	-3.019400	3.745300	-11.307000	24.497035	0.000528	20.793283
602.158884	-2.998200	3.745000	-11.227000	24.503261	0.000528	20.791942
603.161170	-3.003800	3.745900	-11.250000	24.500523	0.000529	20.791092
604.161996	-2.999700	3.745000	-11.233000	24.549753	0.000528	20.792596
605.164671	-3.008200	3.744400	-11.264000	24.583419	0.000529	20.800297
606.163121	-2.989700	3.745100	-11.196000	24.606102	0.000529	20.802668
607.166580	-2.991000	3.744600	-11.199000	24.597075	0.000527	20.798352
608.165353	-3.020000	3.744000	-11.305000	24.578058	0.000528	20.790177
609.161117	-2.984000	3.744900	-11.174000	24.513886	0.000527	20.797861
610.164414	-2.982700	3.744400	-11.166000	24.475312	0.000527	20.808472
611.169241	-2.996800	3.742800	-11.215000	24.457174	0.000527	20.800232
612.159526	-2.989900	3.744000	-11.194000	24.488170	0.000529	20.794820
613.164588	-3.002800	3.742600	-11.238000	24.512199	0.000528	20.796643
614.179339	-3.007500	3.742100	-11.252000	24.538786	0.000529	20.808145
615.160966	-3.010400	3.742400	-11.265000	24.506324	0.000527	20.806870
616.166994	-2.997700	3.742400	-11.218000	24.500881	0.000526	20.789555
617.168297	-2.987900	3.742200	-11.180000	24.544481	0.000530	20.813860
618.169509	-3.013800	3.741500	-11.275000	24.551220	0.000529	20.806396
619.169437	-2.986600	3.742000	-11.175000	24.594687	0.000527	20.789318
620.169645	-3.005300	3.741100	-11.242000	24.569699	0.000529	20.796014
621.174360	-3.018500	3.739800	-11.287000	24.579867	0.000528	20.792466
622.168181	-3.013500	3.740200	-11.270000	24.599446	0.000528	20.797886
623.175607	-2.976900	3.741800	-11.137000	24.620857	0.000527	20.830275
624.176757	-2.985100	3.740500	-11.165000	24.633290	0.000525	20.806241
625.173830	-3.020900	3.738800	-11.294000	24.648345	0.000528	20.803330
626.175821	-3.002600	3.739200	-11.226000	24.636939	0.000526	20.807532
627.174416	-3.014800	3.738600	-11.270000	24.634935	0.000528	20.798883
628.172565	-3.011800	3.738400	-11.259000	24.655002	0.000526	20.816647
629.177762	-3.006400	3.739700	-11.242000	24.612701	0.000525	20.809290
630.178631	-3.016300	3.738000	-11.273000	24.620955	0.000526	20.803821
631.172609	-3.011900	3.738600	-11.259000	24.627244	0.000527	20.806339
632.174041	-2.986400	3.738400	-11.163000	24.605654	0.000526	20.818339
633.173673	-2.984600	3.738800	-11.158000	24.596081	0.000528	20.822958
634.177129	-2.988700	3.738600	-11.173000	24.613394	0.000525	20.816623
635.176589	-3.011100	3.737200	-11.252000	24.635204	0.000525	20.823808
636.173110	-2.987800	3.738000	-11.168000	24.657136	0.000524	20.823056
637.175597	-2.993900	3.737500	-11.188000	24.624710	0.000525	20.798581
638.176378	-3.017700	3.736600	-11.275000	24.626495	0.000527	20.819811
639.176870	-2.999100	3.736800	-11.206000	24.614689	0.000525	20.815078
640.175510	-3.016100	3.734900	-11.264000	24.620808	0.000526	20.841131
641.176572	-3.012900	3.734800	-11.252000	24.619415	0.000525	20.813181
642.183171	-3.018600	3.735700	-11.275000	24.646032	0.000525	20.823768
643.181578	-2.998900	3.736200	-11.203000	24.709944	0.000527	20.788803
644.177305	-3.005900	3.735000	-11.226000	24.729610	0.000525	20.829874
645.175851	-2.996500	3.736100	-11.195000	24.703084	0.000525	20.820326
646.181824	-2.995900	3.735400	-11.190000	24.700917	0.000526	20.828108
647.178765	-3.011000	3.732600	-11.238000	24.639563	0.000525	20.823915
648.180519	-3.002300	3.734700	-11.212000	24.672941	0.000524	20.805251
649.181486	-3.015200	3.733100	-11.255000	24.678367	0.000525	20.816386
650.179817	-3.000200	3.734400	-11.203000	24.675043	0.000527	20.824904
651.177020	-3.004500	3.732700	-11.214000	24.665242	0.000523	20.812225
652.177753	-3.026400	3.731900	-11.293000	24.667385	0.000524	20.841401
653.183675	-2.991600	3.732200	-11.164000	24.650667	0.000522	20.857341
654.180328	-2.969200	3.733900	-11.086000	24.681308	0.000524	20.837828
655.176955	-3.020900	3.732200	-11.273000	24.678326	0.000525	20.835311
656.180200	-2.997800	3.732000	-11.187000	24.691867	0.000525	20.850320
657.178301	-3.002300	3.731500	-11.202000	24.679182	0.000522	20.837117
658.179742	-3.004900	3.731300	-11.211000	24.710596	0.000524	20.818381
659.184734	-2.990000	3.732400	-11.159000	24.733349	0.000522	20.834575
660.185256	-2.998200	3.731600	-11.187000	24.741357	0.000523	20.829809
661.178179	-2.984300	3.731500	-11.135000	24.722082	0.000525	20.828485
662.183566	-2.994100	3.731700	-11.172000	24.759914	0.000522	20.827095
663.190134	-2.988200	3.730900	-11.147000	24.773071	0.000524	20.848832
664.182645	-3.011400	3.729400	-11.229000	24.722490	0.000522	20.833161
665.181983	-2.993300	3.731000	-11.167000	24.734205	0.000522	20.842071
666.183874	-2.985800	3.730000	-11.136000	24.750245	0.000523	20.829245
667.182090	-2.999900	3.730100	-11.189000	24.782781	0.000524	20.818275
668.183362	-3.019400	3.728600	-11.257000	24.761365	0.000521	20.846093
669.185114	-3.012200	3.728500	-11.230000	24.770391	0.000521	20.830496
670.178543	-2.995500	3.727700	-11.165000	24.760493	0.000521	20.850434
671.186592	-2.999000	3.728800	-11.183000	24.759581	0.000521	20.847148
672.189520	-3.017700	3.729000	-11.252000	24.770716	0.000522	20.848366
673.179006	-3.015600	3.728200	-11.242000	24.781665	0.000523	20.865516
674.185733	-2.989500	3.727700	-11.142000	24.766945	0.000522	20.839840
675.185510	-2.989400	3.727300	-11.141000	24.742424	0.000522	20.829458
676.184464	-3.006600	3.727100	-11.205000	24.751182	0.000521	20.874754
677.186632	-3.007900	3.726000	-11.207000	24.796833	0.000521	20.860350
678.187502	-2.987100	3.727100	-11.132000	24.836169	0.000522	20.856680
679.181019	-3.025000	3.726100	-11.270000	24.829107	0.000521	20.863816
680.182952	-3.005700	3.726400	-11.200000	24.823388	0.000522	20.870879
681.186236	-3.012100	3.725700	-11.221000	24.784597	0.000521	20.864192
682.189999	-2.990900	3.726100	-11.143000	24.758513	0.000524	20.836120
683.187577	-3.002500	3.725700	-11.185000	24.766220	0.000521	20.850491
684.189030	-3.004900	3.724800	-11.191000	24.743190	0.000520	20.851562
685.187105	-3.003200	3.724300	-11.184000	24.721749	0.000521	20.879830
686.187665	-2.986000	3.724500	-11.120000	24.736974	0.000521	20.870454
687.195806	-2.991900	3.725800	-11.146000	24.740502	0.000521	20.855502
688.188722	-2.995600	3.723700	-11.154000	24.760338	0.000523	20.877304
689.186720	-2.986600	3.724800	-11.124000	24.812611	0.000520	20.860064
690.188531	-3.003800	3.724400	-11.187000	24.839346	0.000521	20.853230
691.191635	-3.014500	3.723000	-11.221000	24.854382	0.000520	20.846036
692.189369	-2.995700	3.722900	-11.152000	24.875667	0.000520	20.864078
693.188957	-3.001200	3.722700	-11.172000	24.867708	0.000521	20.868892
694.192422	-3.017100	3.722700	-11.230000	24.888846	0.000521	20.864503
695.189108	-3.000700	3.722400	-11.169000	24.885612	0.000519	20.857464
696.188941	-3.011200	3.723000	-11.210000	24.829188	0.000520	20.864846
697.190194	-3.016900	3.721100	-11.226000	24.846546	0.000518	20.869465
698.192669	-3.005800	3.721800	-11.186000	24.831078	0.000518	20.866742
699.186811	-2.991800	3.723200	-11.138000	24.770154	0.000520	20.873405
700.190169	-3.021200	3.720200	-11.238000	24.786121	0.000518	20.873307
701.192604	-3.017000	3.721500	-11.227000	24.782210	0.000519	20.876969
702.192636	-3.043500	3.719400	-11.319000	24.803349	0.000521	20.870682
703.189845	-3.010700	3.720200	-11.199000	24.830035	0.000519	20.880868
704.190238	-3.010900	3.720400	-11.201000	24.877646	0.000517	20.870331
705.188002	-3.011000	3.719900	-11.200000	24.916442	0.000518	20.881767
706.192222	-2.988000	3.720700	-11.116000	24.863000	0.000517	20.861797
707.193033	-2.997700	3.720200	-11.150000	24.873524	0.000518	20.874255
708.202882	-2.998000	3.718500	-11.147000	24.883494	0.000517	20.863399
709.193692	-2.986600	3.719400	-11.106000	24.855897	0.000518	20.861306
710.192629	-2.979100	3.719700	-11.080000	24.809573	0.000518	20.854170
711.193414	-2.984000	3.719500	-11.098000	24.813898	0.000517	20.869890
712.193474	-2.999600	3.718600	-11.153000	24.833236	0.000517	20.856581
713.192461	-2.992000	3.718400	-11.124000	24.814737	0.000517	20.868835
714.194311	-2.988000	3.719000	-11.111000	24.814411	0.000517	20.866612
715.221643	-3.006400	3.717200	-11.174000	24.836568	0.000517	20.869407
716.191283	-3.001900	3.717300	-11.158000	24.813695	0.000516	20.867315
717.191636	-3.020200	3.717100	-11.226000	24.781119	0.000515	20.863072
718.189370	-2.992800	3.718000	-11.126000	24.754130	0.000515	20.850687
719.191949	-2.996300	3.717600	-11.138000	24.805239	0.000516	20.880165
720.193390	-3.014000	3.715800	-11.198000	24.841618	0.000517	20.857881
721.191442	-3.002600	3.716700	-11.159000	24.860459	0.000517	20.867780
722.195446	-3.002000	3.717500	-11.159000	24.862568	0.000514	20.848088
723.194430	-2.993300	3.716500	-11.124000	24.876774	0.000516	20.844327
724.196221	-2.974700	3.716800	-11.056000	24.882386	0.000515	20.844744
725.196602	-3.005500	3.715800	-11.166000	24.868694	0.000516	20.850442
726.198770	-3.015400	3.715100	-11.202000	24.911457	0.000516	20.860170
727.204263	-2.986900	3.715400	-11.097000	24.972446	0.000517	20.830823
728.203155	-3.017300	3.715300	-11.209000	24.941267	0.000515	20.843624
729.207991	-3.000500	3.714700	-11.144000	24.904712	0.000515	20.828272
730.201250	-3.025400	3.713700	-11.234000	24.856834	0.000513	20.851341
731.199980	-3.010700	3.713300	-11.178000	24.861062	0.000513	20.838041
732.205058	-3.014300	3.713100	-11.191000	24.831966	0.000513	20.849142
733.197505	-2.992000	3.714400	-11.113000	24.865656	0.000513	20.849289
734.199438	-2.992600	3.712700	-11.109000	24.908019	0.000513	20.861936
735.207493	-2.974300	3.713400	-11.043000	24.940347	0.000513	20.822313
736.207030	-3.025300	3.712600	-11.231000	24.955741	0.000514	20.832548
737.202213	-3.023000	3.713400	-11.224000	24.954421	0.000514	20.846396
738.203928	-3.017200	3.712400	-11.200000	24.950121	0.000513	20.831648
739.205626	-3.001200	3.712000	-11.139000	24.946162	0.000512	20.860391
740.206695	-2.990800	3.711600	-11.099000	24.976722	0.000512	20.829425
741.204097	-3.034100	3.710300	-11.256000	25.007402	0.000513	20.838883
742.203854	-3.006000	3.711500	-11.156000	24.988784	0.000512	20.848644
743.211241	-2.995300	3.711400	-11.115000	24.929628	0.000513	20.803968
744.211661	-2.975900	3.711500	-11.044000	24.912890	0.000512	20.832212
745.209437	-3.004800	3.709600	-11.145000	24.919040	0.000512	20.845022
746.208158	-2.994800	3.710400	-11.111000	24.891908	0.000512	20.814473
747.210477	-2.998600	3.710800	-11.126000	24.887778	0.000513	20.830242
748.203218	-2.983700	3.710200	-11.069000	24.911945	0.000511	20.837902
749.213178	-2.992300	3.710000	-11.101000	24.914902	0.000510	20.836602
750.211041	-2.988000	3.708700	-11.080000	24.905657	0.000509	20.818789
751.201870	-3.005600	3.709000	-11.147000	24.929596	0.000511	20.839022
752.209526	-2.975600	3.709500	-11.037000	24.915195	0.000511	20.801810
753.209042	-2.997400	3.709300	-11.117000	24.901919	0.000510	20.811244
754.208133	-2.997800	3.707500	-11.114000	24.894954	0.000511	20.828436
755.208481	-2.987600	3.708800	-11.079000	24.866470	0.000508	20.804115
756.208780	-2.996700	3.708000	-11.111000	24.869565	0.000510	20.812437
757.210814	-2.981600	3.708600	-11.056000	24.907083	0.000508	20.808366
758.210319	-2.983700	3.707900	-11.063000	24.893203	0.000509	20.815773
759.211838	-2.981000	3.707400	-11.051000	24.911514	0.000509	20.823244
760.208066	-2.983300	3.707200	-11.059000	24.958998	0.000508	20.826335
761.209550	-3.007800	3.706400	-11.147000	25.005911	0.000508	20.806093
762.213689	-3.018300	3.706900	-11.187000	24.976485	0.000510	20.786988
763.210943	-2.993900	3.707200	-11.098000	24.958404	0.000507	20.810565
764.213135	-3.007400	3.706200	-11.144000	24.999551	0.000508	20.794019
765.212859	-2.993800	3.706600	-11.095000	24.957728	0.000508	20.806093
766.209360	-3.004900	3.705100	-11.132000	24.937537	0.000508	20.798155
767.206158	-3.006200	3.705700	-11.139000	24.954323	0.000507	20.808840
768.209951	-3.014000	3.703900	-11.162000	24.944949	0.000507	20.792318
769.207731	-2.992200	3.705400	-11.087000	24.940485	0.000505	20.799218
770.213933	-2.999600	3.705200	-11.114000	24.933358	0.000506	20.796332
771.210183	-2.992400	3.704400	-11.084000	24.930923	0.000508	20.803371
772.212439	-2.996100	3.704700	-11.099000	24.916343	0.000508	20.808178
773.215337	-3.013600	3.704400	-11.163000	24.912694	0.000504	20.798826
774.210646	-3.006000	3.704100	-11.133000	24.917052	0.000505	20.802251
775.208198	-2.993200	3.703400	-11.085000	24.980549	0.000506	20.807663
776.212771	-2.982200	3.703300	-11.043000	24.977910	0.000504	20.788893
777.211784	-2.985000	3.703700	-11.055000	24.999396	0.000504	20.814726
778.206304	-3.031500	3.702500	-11.223000	24.996903	0.000502	20.798948
779.217587	-2.978000	3.703000	-11.026000	24.997107	0.000501	20.783506
780.214541	-2.991900	3.703500	-11.079000	24.979523	0.000506	20.800469
781.208731	-2.999800	3.701100	-11.102000	24.977780	0.000503	20.805358
782.213538	-2.999600	3.701300	-11.101000	25.004812	0.000504	20.789343
783.212468	-2.994700	3.701800	-11.085000	24.960652	0.000503	20.805709
784.211952	-3.012800	3.702500	-11.154000	24.960188	0.000504	20.789122
785.213242	-2.985800	3.702000	-11.052000	24.982341	0.000503	20.786702
786.214345	-3.000400	3.701000	-11.104000	24.966158	0.000503	20.789899
787.214216	-2.984200	3.701900	-11.046000	24.979385	0.000502	20.786105
788.213714	-3.000700	3.700300	-11.102000	24.987831	0.000501	20.782255
789.219028	-3.039500	3.699700	-11.244000	25.010171	0.000500	20.804205
790.217177	-3.006500	3.700000	-11.123000	25.019814	0.000503	20.780693
791.215960	-2.985800	3.699600	-11.045000	24.989476	0.000501	20.802872
792.218203	-3.001300	3.701300	-11.108000	25.014585	0.000501	20.789670
793.219418	-3.018100	3.699600	-11.164000	25.008721	0.000500	20.789948
794.212505	-2.986300	3.700000	-11.049000	25.010692	0.000502	20.788133
795.216571	-3.014100	3.699100	-11.149000	25.048555	0.000499	20.790577
796.216659	-3.001900	3.699800	-11.105000	25.022404	0.000500	20.807949
797.230473	-3.017500	3.698500	-11.159000	25.041070	0.000498	20.788754
798.215412	-3.010900	3.698500	-11.136000	25.052285	0.000500	20.763027
799.220891	-3.018600	3.698100	-11.163000	25.009845	0.000498	20.800559
800.221678	-2.999400	3.698900	-11.094000	25.005643	0.000497	20.768839
801.219999	-3.019300	3.696800	-11.161000	25.003354	0.000499	20.792621
802.221144	-2.997400	3.698600	-11.085000	25.040223	0.000496	20.786956
803.218897	-2.975100	3.697700	-10.999000	25.052203	0.000500	20.777170
804.220120	-2.984200	3.698200	-11.034000	25.041021	0.000499	20.773532
805.217708	-2.999300	3.697700	-11.089000	25.030996	0.000499	20.798556
806.227968	-2.995800	3.697300	-11.076000	25.010114	0.000499	20.776647
807.222684	-2.984600	3.696400	-11.032000	24.991870	0.000498	20.776352
808.220401	-3.005000	3.696800	-11.107000	25.002515	0.000496	20.787986
809.222717	-2.997700	3.697100	-11.081000	25.005691	0.000495	20.770785
810.229424	-3.001400	3.695700	-11.091000	25.011653	0.000497	20.775821
811.222564	-2.972300	3.695400	-10.983000	24.984727	0.000496	20.765389
812.227777	-3.007700	3.695700	-11.115000	24.965612	0.000497	20.779394
813.227407	-2.998700	3.694200	-11.077000	24.956677	0.000496	20.758097
814.219775	-2.975800	3.696400	-11.000000	24.955838	0.000497	20.761048
815.223621	-3.020400	3.694900	-11.159000	25.001505	0.000496	20.777963
816.221875	-3.000300	3.693600	-11.080000	24.988873	0.000495	20.781405
817.224155	-3.009300	3.694100	-11.115000	25.040362	0.000495	20.773344
818.226042	-2.995100	3.693500	-11.061000	25.051706	0.000495	20.773352
819.223350	-2.993400	3.694400	-11.057000	25.045558	0.000496	20.761964
820.224968	-3.000700	3.693200	-11.081000	25.041209	0.000495	20.779410
821.223280	-2.993300	3.693700	-11.055000	25.050802	0.000495	20.791411
822.221589	-3.013300	3.692000	-11.125000	25.044605	0.000493	20.770965
823.221241	-2.987600	3.693400	-11.033000	25.037381	0.000496	20.785051
824.224067	-2.985600	3.693000	-11.025000	25.054728	0.000494	20.795825
825.224085	-2.991300	3.692100	-11.043000	25.119585	0.000495	20.776532
826.222820	-2.976300	3.691600	-10.986000	25.133087	0.000495	20.750257
827.223557	-3.005900	3.690100	-11.091000	25.124805	0.000495	20.774186
828.225153	-3.007700	3.690400	-11.099000	25.120652	0.000494	20.760533
829.227317	-3.003900	3.690900	-11.086000	25.129528	0.000493	20.758538
830.229753	-3.009100	3.689700	-11.102000	25.130229	0.000493	20.796226
831.228550	-3.012700	3.690800	-11.118000	25.131165	0.000493	20.755914
832.229236	-3.001800	3.690000	-11.076000	25.138942	0.000492	20.774627
833.226006	-3.012600	3.689500	-11.113000	25.078989	0.000490	20.769444
834.223480	-2.975200	3.690500	-10.979000	25.059345	0.000493	20.756838
835.226121	-3.003200	3.688400	-11.076000	25.057130	0.000491	20.775478
836.223355	-3.016000	3.688100	-11.122000	25.033667	0.000490	20.777530
837.227291	-2.998200	3.689400	-11.060000	25.085096	0.000490	20.772731
838.223644	-3.010900	3.687900	-11.103000	25.071219	0.000491	20.767809
839.230773	-2.995200	3.689400	-11.049000	25.066357	0.000490	20.745858
840.225160	-3.030200	3.688500	-11.176000	25.069737	0.000486	20.754467
841.229630	-3.006200	3.688700	-11.088000	25.041990	0.000489	20.749848
842.230275	-3.015200	3.686700	-11.115000	25.029619	0.000488	20.760190
843.224434	-3.023700	3.686800	-11.146000	25.052008	0.000492	20.758955
844.231616	-3.029200	3.685400	-11.162000	25.021508	0.000488	20.773859
845.232215	-3.011300	3.687900	-11.104000	24.981934	0.000487	20.753576
846.225086	-2.990900	3.686900	-11.026000	25.000381	0.000487	20.756446
847.231421	-3.019500	3.687200	-11.132000	24.986772	0.000487	20.743259
848.230923	-2.998300	3.686700	-11.053000	24.998207	0.000488	20.753789
849.231003	-3.024700	3.684700	-11.143000	25.008908	0.000486	20.737977
850.229658	-3.005100	3.685600	-11.075000	25.038374	0.000485	20.758547
851.233272	-3.024800	3.684500	-11.144000	25.065795	0.000487	20.756200
852.232154	-2.994100	3.685800	-11.035000	25.065177	0.000487	20.738509
853.232149	-2.982700	3.686800	-10.995000	25.054606	0.000485	20.758244
854.230129	-3.008200	3.685900	-11.087000	25.036167	0.000487	20.748270
855.228772	-3.005100	3.684400	-11.070000	25.055037	0.000486	20.751091
856.237502	-3.012400	3.684700	-11.099000	25.058482	0.000486	20.753126
857.236381	-2.999000	3.683800	-11.047000	25.068556	0.000487	20.757075
858.229176	-3.018700	3.684000	-11.120000	25.055159	0.000486	20.764490
859.232297	-3.024200	3.684500	-11.141000	25.040101	0.000484	20.754590
860.239458	-3.029600	3.683300	-11.158000	25.030694	0.000484	20.733767
861.236053	-3.002700	3.682600	-11.057000	25.024708	0.000485	20.747199
862.233508	-2.996600	3.683500	-11.037000	25.080748	0.000485	20.743708
863.234548	-3.002500	3.683100	-11.057000	25.145180	0.000484	20.746275
864.235786	-2.988800	3.681500	-11.003000	25.150424	0.000483	20.739686
865.230901	-3.018200	3.682200	-11.113000	25.134414	0.000480	20.745899
866.232467	-3.008300	3.681400	-11.074000	25.125872	0.000482	20.745384
867.241154	-3.002000	3.681900	-11.052000	25.161361	0.000481	20.741656
868.233433	-3.006200	3.682000	-11.068000	25.174259	0.000481	20.744174
869.231295	-3.015900	3.681000	-11.100000	25.150994	0.000481	20.743103
870.236050	-3.002700	3.681300	-11.053000	25.165538	0.000483	20.726883
871.236957	-3.007500	3.681700	-11.071000	25.145432	0.000483	20.732304
872.235447	-3.032200	3.679200	-11.155000	25.155327	0.000481	20.752669
873.235280	-2.998700	3.680200	-11.035000	25.138673	0.000481	20.734527
874.236113	-2.987300	3.680700	-10.994000	25.156369	0.000480	20.733326
875.242040	-3.037100	3.679100	-11.173000	25.134919	0.000480	20.712739
876.233901	-2.985900	3.681600	-10.992000	25.155831	0.000479	20.737528
877.237590	-2.979400	3.679200	-10.960000	25.137232	0.000478	20.733554
878.236942	-3.003400	3.679700	-11.051000	25.115733	0.000477	20.705807
879.240709	-3.012400	3.679200	-11.082000	25.063686	0.000476	20.737487
880.235676	-3.005800	3.678500	-11.057000	25.080903	0.000480	20.732484
881.238070	-3.011500	3.678400	-11.076000	25.055575	0.000478	20.733612
882.238869	-3.024100	3.677300	-11.119000	25.047594	0.000478	20.726074
883.238203	-3.008400	3.678300	-11.065000	25.052887	0.000478	20.738027
884.239235	-2.993600	3.676700	-11.006000	25.037699	0.000476	20.725150
885.239123	-3.002300	3.677900	-11.041000	25.077800	0.000477	20.729843
886.241656	-3.005300	3.677600	-11.052000	25.092296	0.000477	20.724480
887.236454	-2.996600	3.677100	-11.016000	25.128486	0.000476	20.710548
888.240642	-3.007700	3.676100	-11.056000	25.152656	0.000476	20.742875
889.240362	-3.020500	3.676900	-11.106000	25.192451	0.000477	20.743471
890.241589	-3.027100	3.676100	-11.126000	25.228948	0.000476	20.722264
891.237806	-3.005300	3.676300	-11.046000	25.211213	0.000475	20.715838
892.243546	-3.011000	3.674600	-11.064000	25.141711	0.000478	20.723351
893.243130	-3.001800	3.676000	-11.034000	25.106840	0.000476	20.742400
894.241011	-2.971300	3.675900	-10.921000	25.098949	0.000474	20.715511
895.240611	-3.012200	3.673500	-11.065000	25.056121	0.000474	20.737479
896.238513	-3.003900	3.673600	-11.033000	25.058108	0.000473	20.724300
897.241101	-2.996900	3.675200	-11.013000	25.066382	0.000473	20.743986
898.237310	-3.013100	3.672900	-11.066000	25.112297	0.000473	20.724643
899.244417	-3.006300	3.674300	-11.044000	25.132704	0.000472	20.732328
900.239069	-2.992400	3.674000	-10.992000	25.087556	0.000475	20.721144
901.244995	-3.015400	3.674400	-11.079000	25.100431	0.000474	20.731224
902.241416	-3.008900	3.674400	-11.055000	25.112671	0.000472	20.715061
903.242926	-3.007100	3.671900	-11.041000	25.180676	0.000472	20.714105
904.242524	-3.017400	3.671500	-11.077000	25.173413	0.000471	20.720089
905.243392	-3.006300	3.673100	-11.041000	25.220772	0.000473	20.724962
906.246600	-2.999700	3.673100	-11.016000	25.217955	0.000470	20.721185
907.244904	-3.004700	3.671500	-11.030000	25.210569	0.000471	20.726098
908.244105	-3.018200	3.671600	-11.080000	25.206090	0.000470	20.734879
909.242237	-2.999600	3.672600	-11.015000	25.190236	0.000472	20.712322
910.244350	-3.005400	3.672700	-11.037000	25.180489	0.000471	20.720081
911.244116	-3.028500	3.670900	-11.116000	25.184096	0.000470	20.738402
912.246553	-3.019500	3.670200	-11.079000	25.148421	0.000468	20.721078
913.246496	-3.021000	3.669300	-11.084000	25.159064	0.000468	20.702364
914.243325	-3.021300	3.669800	-11.085000	25.179447	0.000469	20.740847
915.249362	-2.992100	3.669700	-10.979000	25.153486	0.000470	20.728060
916.241615	-2.986200	3.669300	-10.957000	25.164675	0.000468	20.735026
917.244663	-3.016000	3.668100	-11.062000	25.166540	0.000467	20.697541
918.251733	-3.013500	3.667900	-11.053000	25.168681	0.000469	20.747583
919.247541	-2.984300	3.670400	-10.953000	25.183673	0.000466	20.727071
920.243373	-2.995900	3.668400	-10.989000	25.175269	0.000467	20.721953
921.242629	-2.976500	3.668700	-10.918000	25.147151	0.000467	20.727864
922.250338	-3.016200	3.668400	-11.063000	25.156621	0.000466	20.721724
923.247941	-3.025800	3.666100	-11.092000	25.113339	0.000467	20.752718
924.247018	-2.989400	3.667600	-10.962000	25.115611	0.000467	20.735557
925.245242	-2.986200	3.668100	-10.953000	25.113917	0.000467	20.715364
926.249790	-2.988900	3.667800	-10.961000	25.092719	0.000464	20.740078
927.246289	-3.014500	3.665400	-11.048000	25.114438	0.000464	20.723000
928.250488	-2.997500	3.666900	-10.991000	25.112671	0.000466	20.730235
929.252011	-2.978300	3.667400	-10.922000	25.174870	0.000467	20.741468
930.259052	-2.997000	3.666600	-10.988000	25.145839	0.000466	20.713745
931.249152	-2.988700	3.666700	-10.958000	25.148950	0.000464	20.728723
932.247943	-3.022100	3.665200	-11.076000	25.146434	0.000466	20.728093
933.254278	-2.988200	3.666000	-10.954000	25.188103	0.000464	20.741476
934.247794	-3.012000	3.665000	-11.038000	25.245225	0.000463	20.738133
935.245180	-3.011200	3.664000	-11.032000	25.215194	0.000462	20.748761
936.243889	-3.002300	3.665900	-11.005000	25.207336	0.000464	20.731388
937.248076	-2.983800	3.665000	-10.934000	25.195334	0.000460	20.736408
938.248856	-3.000400	3.662900	-10.989000	25.215251	0.000465	20.750240
939.243727	-2.991200	3.663400	-10.957000	25.257878	0.000462	20.711955
940.245049	-2.990500	3.663300	-10.954000	25.264734	0.000461	20.719787
941.246714	-3.004000	3.664000	-11.006000	25.257756	0.000461	20.716574
942.243266	-2.983200	3.663600	-10.929000	25.229737	0.000463	20.727325
943.245187	-3.008400	3.662100	-11.016000	25.228557	0.000462	20.708594
944.247036	-3.015300	3.662500	-11.043000	25.219380	0.000460	20.734944
945.245716	-2.990700	3.662600	-10.953000	25.216269	0.000460	20.746047
946.244438	-3.001400	3.662100	-10.991000	25.200716	0.000459	20.715732
947.246610	-3.006300	3.662000	-11.009000	25.240461	0.000461	20.739514
948.246376	-3.015200	3.661000	-11.037000	25.252447	0.000457	20.718830
949.249836	-3.005100	3.661400	-11.002000	25.263692	0.000459	20.716844
950.247330	-3.016700	3.660300	-11.040000	25.183347	0.000460	20.735280
951.253344	-2.995700	3.659700	-10.962000	25.180245	0.000459	20.735010
952.247899	-2.993900	3.661000	-10.959000	25.211734	0.000462	20.725845
953.246714	-3.000000	3.660500	-10.980000	25.233361	0.000458	20.717212
954.248881	-2.991600	3.659500	-10.947000	25.238589	0.000459	20.757549
955.248726	-3.011100	3.659800	-11.019000	25.201889	0.000456	20.735876
956.247212	-2.999000	3.660200	-10.976000	25.208037	0.000455	20.744894
957.250221	-3.009100	3.659300	-11.010000	25.191507	0.000457	20.743946
958.246145	-2.994600	3.659300	-10.957000	25.175677	0.000455	20.710982
959.250851	-2.990400	3.658600	-10.939000	25.129146	0.000455	20.729704
960.252778	-3.004900	3.658100	-10.992000	25.208493	0.000454	20.746300
961.249815	-3.005900	3.657800	-10.993000	25.239273	0.000455	20.745434
962.251267	-2.995300	3.659100	-10.959000	25.273471	0.000455	20.736146
963.248624	-2.997700	3.657500	-10.963000	25.289040	0.000454	20.728543
964.254785	-3.003700	3.657300	-10.984000	25.278894	0.000453	20.742065
965.254062	-2.978400	3.658200	-10.894000	25.310437	0.000453	20.745286
966.252141	-2.991900	3.657000	-10.941000	25.260199	0.000455	20.722820
967.252334	-3.005800	3.657400	-10.992000	25.262707	0.000454	20.738615
968.257830	-3.002100	3.656800	-10.976000	25.262316	0.000453	20.767147
969.253877	-2.986600	3.656600	-10.920000	25.282078	0.000450	20.732459
970.250871	-3.016400	3.655900	-11.027000	25.296042	0.000452	20.736048
971.256896	-2.981500	3.656200	-10.900000	25.333153	0.000453	20.737275
972.253492	-3.027000	3.655100	-11.063000	25.349079	0.000452	20.743782
973.259867	-2.997600	3.656700	-10.960000	25.320501	0.000451	20.748753
974.258987	-3.015000	3.653600	-11.014000	25.325020	0.000452	20.741910
975.257235	-3.000800	3.654100	-10.964000	25.300471	0.000449	20.736702
976.259421	-3.006500	3.653700	-10.985000	25.283421	0.000449	20.731911
977.257787	-2.971900	3.654000	-10.858000	25.222776	0.000450	20.739776
978.255608	-3.004100	3.653900	-10.976000	25.185212	0.000449	20.744265
979.259659	-3.004900	3.653900	-10.979000	25.217279	0.000450	20.728568
980.258184	-2.998500	3.653500	-10.954000	25.179968	0.000450	20.726197
981.254130	-3.009600	3.652800	-10.992000	25.192085	0.000449	20.729353
982.258544	-3.003200	3.653200	-10.971000	25.210122	0.000447	20.738926
983.255493	-2.993000	3.652800	-10.932000	25.245152	0.000448	20.748017
984.259850	-3.011200	3.651300	-10.994000	25.271428	0.000449	20.746423
985.259609	-2.995500	3.652300	-10.939000	25.263253	0.000446	20.750543
986.259687	-3.026200	3.650400	-11.046000	25.275556	0.000448	20.733498
987.259756	-2.969900	3.652300	-10.845000	25.279114	0.000447	20.746554
988.259880	-2.991600	3.650500	-10.920000	25.275466	0.000447	20.740520
989.261920	-2.998000	3.651600	-10.945000	25.251259	0.000447	20.736130
990.261146	-2.996100	3.650800	-10.937000	25.233402	0.000446	20.747600
991.262341	-2.989800	3.649600	-10.911000	25.239924	0.000447	20.751778
992.262658	-3.018000	3.648900	-11.011000	25.204577	0.000447	20.764654
993.265570	-2.987000	3.650300	-10.902000	25.190286	0.000445	20.758842
994.259844	-2.990600	3.650300	-10.915000	25.230080	0.000445	20.734307
995.263901	-3.013100	3.649700	-10.996000	25.300594	0.000444	20.760534
996.263188	-3.009700	3.649300	-10.981000	25.278422	0.000444	20.757713
997.262921	-3.011900	3.647800	-10.986000	25.260053	0.000444	20.740218
998.262277	-2.996800	3.647400	-10.930000	25.288893	0.000444	20.758269
999.266863	-2.986500	3.648500	-10.895000	25.305243	0.000444	20.757141
1000.262146	-2.988300	3.647600	-10.899000	25.347223	0.000442	20.754247
1001.267518	-3.000400	3.647200	-10.942000	25.355601	0.000442	20.748908
1002.267709	-3.004000	3.648200	-10.958000	25.347085	0.000443	20.758850
1003.267831	-3.017300	3.646400	-11.002000	25.364410	0.000443	20.760599
1004.266942	-3.023500	3.646100	-11.023000	25.360274	0.000442	20.777309
1005.267599	-3.003800	3.646300	-10.951000	25.363417	0.000440	20.760550
1006.270309	-3.004300	3.644600	-10.949000	25.311252	0.000442	20.763175
1007.271604	-2.983800	3.645100	-10.875000	25.290913	0.000440	20.766935
1008.270401	-2.993100	3.644700	-10.908000	25.326689	0.000442	20.765873
1009.273460	-2.969300	3.646400	-10.826000	25.340384	0.000440	20.780572
1010.269423	-2.999300	3.645300	-10.932000	25.371152	0.000440	20.766894
1011.268172	-3.009100	3.645300	-10.967000	25.345228	0.000439	20.758408
1012.271007	-3.008800	3.644500	-10.964000	25.358483	0.000437	20.750854
1013.271976	-3.001900	3.643800	-10.938000	25.387443	0.000440	20.774718
1014.272617	-2.989200	3.643900	-10.892000	25.334750	0.000439	20.753577
1015.273981	-2.996000	3.644400	-10.917000	25.278162	0.000439	20.764090
1016.269897	-2.997500	3.643700	-10.920000	25.258693	0.000438	20.764458
1017.278023	-3.006600	3.643300	-10.953000	25.263864	0.000439	20.768701
1018.275414	-3.020400	3.642200	-11.000000	25.291507	0.000436	20.764213
1019.270889	-3.018000	3.643200	-10.994000	25.316984	0.000437	20.777939
1020.273145	-3.001600	3.642400	-10.932000	25.309575	0.000436	20.786147
1021.273210	-3.025000	3.641700	-11.015000	25.312685	0.000438	20.783580
1022.273615	-3.005900	3.640800	-10.943000	25.289317	0.000438	20.759643
1023.272098	-2.988400	3.642300	-10.884000	25.303989	0.000436	20.767263
1024.274869	-3.000600	3.641600	-10.926000	25.320094	0.000435	20.764941
1025.274156	-2.999400	3.640100	-10.917000	25.287208	0.000436	20.784079
1026.273858	-2.979600	3.642100	-10.851000	25.314379	0.000435	20.781487
1027.277061	-2.995800	3.641400	-10.908000	25.314110	0.000435	20.767467
1028.275860	-2.997000	3.639800	-10.907000	25.266763	0.000435	20.771612
1029.276284	-2.999800	3.640600	-10.920000	25.242384	0.000434	20.767524
1030.275878	-3.001900	3.638900	-10.922000	25.278146	0.000436	20.780196
1031.278038	-3.023800	3.638700	-11.002000	25.302263	0.000432	20.761736
1032.281046	-3.004000	3.639100	-10.931000	25.327268	0.000432	20.777833
1033.278911	-2.987100	3.638000	-10.866000	25.368620	0.000433	20.760559
1034.282094	-2.984400	3.638300	-10.858000	25.333529	0.000432	20.773688
1035.280466	-3.014400	3.637100	-10.962000	25.342184	0.000433	20.769102
1036.279718	-2.996200	3.638400	-10.901000	25.319166	0.000433	20.776337
1037.286598	-3.010500	3.638100	-10.951000	25.352516	0.000431	20.767622
1038.280070	-3.018100	3.637500	-10.977000	25.331127	0.000432	20.788347
1039.280813	-2.999600	3.636800	-10.908000	25.315120	0.000430	20.759472
1040.281381	-3.026600	3.635600	-11.002000	25.302711	0.000427	20.775462
1041.290967	-3.002200	3.636400	-10.916000	25.304454	0.000428	20.753030
1042.283350	-2.990800	3.636000	-10.874000	25.329116	0.000428	20.789647
1043.282012	-2.991000	3.636200	-10.875000	25.304625	0.000429	20.784970
1044.283827	-2.977900	3.635400	-10.825000	25.331925	0.000426	20.779191
1045.283719	-2.985900	3.635000	-10.853000	25.355781	0.000429	20.779910
1046.284476	-2.998500	3.634500	-10.896000	25.344480	0.000427	20.792271
1047.283454	-2.986100	3.634400	-10.851000	25.396969	0.000428	20.781439
1048.288566	-2.993600	3.634600	-10.879000	25.405884	0.000428	20.788968
1049.288024	-2.999300	3.633100	-10.895000	25.388119	0.000428	20.778716
1050.289352	-3.011300	3.632500	-10.937000	25.379791	0.000426	20.782681
1051.294842	-3.013300	3.632700	-10.945000	25.377763	0.000428	20.783491
1052.287098	-3.005400	3.633700	-10.920000	25.349422	0.000426	20.781586
1053.290169	-3.007400	3.633500	-10.926000	25.358598	0.000426	20.798386
1054.291643	-2.988400	3.632300	-10.853000	25.380393	0.000426	20.814580
1055.293579	-2.997400	3.631000	-10.883000	25.372838	0.000427	20.796563
1056.288737	-2.997300	3.632900	-10.888000	25.375777	0.000426	20.786238
1057.291897	-3.009000	3.630500	-10.923000	25.394893	0.000424	20.811597
1058.294434	-3.002100	3.631300	-10.901000	25.377267	0.000424	20.813338
1059.288428	-2.993100	3.630200	-10.864000	25.357711	0.000424	20.789434
1060.296844	-2.993300	3.631500	-10.870000	25.377967	0.000423	20.795549
1061.293888	-2.985300	3.631100	-10.839000	25.352524	0.000424	20.794658
1062.293909	-2.998800	3.629900	-10.884000	25.382551	0.000426	20.792091
1063.297637	-3.011400	3.629100	-10.928000	25.341818	0.000424	20.790072
1064.293913	-3.001100	3.630400	-10.894000	25.321235	0.000423	20.786949
1065.290182	-2.993800	3.629700	-10.866000	25.301955	0.000425	20.798411
1066.291025	-3.006200	3.628100	-10.905000	25.346565	0.000421	20.795786
1067.293421	-3.014900	3.628000	-10.936000	25.389170	0.000423	20.801108
1068.294162	-2.981300	3.629100	-10.818000	25.406552	0.000421	20.777785
1069.292302	-2.986200	3.628800	-10.836000	25.425937	0.000423	20.809104
1070.297099	-2.998200	3.626200	-10.871000	25.455164	0.000420	20.796727
1071.298163	-3.002300	3.628300	-10.891000	25.466496	0.000420	20.788666
1072.293469	-2.997300	3.626500	-10.868000	25.449098	0.000421	20.813870
1073.294276	-2.994600	3.626600	-10.859000	25.408449	0.000420	20.797234
1074.297651	-3.019200	3.625200	-10.945000	25.418439	0.000420	20.816273
1075.290020	-3.008800	3.626100	-10.910000	25.442944	0.000421	20.804845
1076.290789	-3.015600	3.626100	-10.934000	25.438621	0.000418	20.822789
1077.290722	-2.999900	3.625100	-10.873000	25.436667	0.000418	20.793800
1078.290879	-3.015400	3.624900	-10.929000	25.380101	0.000420	20.810494
1079.295484	-3.001500	3.625300	-10.880000	25.382161	0.000419	20.803079
1080.295404	-2.979000	3.625300	-10.799000	25.422127	0.000416	20.847003
1081.294458	-2.986100	3.625200	-10.824000	25.426336	0.000419	20.815669
1082.296278	-2.994600	3.624100	-10.851000	25.398973	0.000418	20.810478
1083.295907	-2.990600	3.623400	-10.835000	25.361774	0.000418	20.828602
1084.295904	-3.014000	3.623600	-10.921000	25.349269	0.000416	20.817467
1085.297397	-3.001500	3.622200	-10.871000	25.370942	0.000416	20.811728
1086.297229	-3.007100	3.624200	-10.898000	25.361506	0.000417	20.797986
1087.299756	-2.992100	3.622300	-10.837000	25.326129	0.000416	20.796605
1088.298761	-2.994700	3.623500	-10.851000	25.318728	0.000414	20.810036
1089.294729	-3.026500	3.621500	-10.959000	25.322905	0.000418	20.819446
1090.298719	-3.003100	3.622600	-10.878000	25.355571	0.000415	20.802458
1091.305338	-3.011700	3.621300	-10.906000	25.379279	0.000414	20.815833
1092.299014	-3.006400	3.622400	-10.889000	25.389961	0.000413	20.842204
1093.300599	-2.955900	3.622700	-10.707000	25.384123	0.000414	20.818326
1094.301576	-3.010300	3.620300	-10.897000	25.426296	0.000412	20.824163
1095.295907	-3.007400	3.620200	-10.887000	25.499337	0.000415	20.815955
1096.301968	-3.018800	3.619900	-10.927000	25.497277	0.000412	20.815784
1097.298114	-3.009200	3.619900	-10.892000	25.507990	0.000412	20.834602
1098.296367	-3.007100	3.617900	-10.878000	25.466936	0.000411	20.823721
1099.295977	-3.006200	3.618600	-10.877000	25.475509	0.000413	20.798191
1100.299570	-3.002300	3.619100	-10.864000	25.459031	0.000410	20.828585
1101.295651	-2.979400	3.618800	-10.781000	25.500118	0.000410	20.841395
1102.302520	-3.000200	3.617900	-10.853000	25.494273	0.000410	20.832207
1103.301497	-2.995100	3.618500	-10.837000	25.523604	0.000411	20.836057
1104.298780	-3.005500	3.617600	-10.871000	25.504417	0.000408	20.837177
1105.300352	-2.977000	3.617400	-10.767000	25.500639	0.000406	20.846660
1106.296165	-2.982300	3.618400	-10.790000	25.509708	0.000408	20.834905
1107.295246	-2.999300	3.617200	-10.847000	25.469949	0.000409	20.837177
1108.298985	-2.997500	3.616100	-10.838000	25.463648	0.000410	20.837962
1109.297884	-2.988800	3.615900	-10.806000	25.457428	0.000408	20.831242
1110.297271	-3.008200	3.616300	-10.878000	25.479921	0.000408	20.843873
1111.301109	-2.974500	3.617800	-10.760000	25.485262	0.000410	20.832166
1112.307214	-3.014600	3.614600	-10.895000	25.515830	0.000407	20.815923
1113.300501	-3.004900	3.615600	-10.863000	25.490838	0.000408	20.829706
1114.304903	-2.990700	3.614900	-10.810000	25.485669	0.000406	20.824041
1115.299391	-3.004200	3.615400	-10.860000	25.484928	0.000407	20.839892
1116.304708	-2.994700	3.614400	-10.824000	25.493940	0.000406	20.840881
1117.300458	-2.990900	3.613900	-10.808000	25.461979	0.000405	20.847666
1118.307001	-2.984700	3.613300	-10.783000	25.499134	0.000407	20.854630
1119.306262	-2.993800	3.613000	-10.816000	25.488819	0.000405	20.843799
1120.306466	-3.003000	3.612200	-10.847000	25.483975	0.000405	20.842254
1121.308784	-3.009000	3.612200	-10.868000	25.480890	0.000403	20.849587
1122.304753	-3.003600	3.613000	-10.851000	25.528529	0.000404	20.857598
1123.303571	-3.025700	3.611500	-10.927000	25.548603	0.000403	20.855946
1124.309561	-3.011600	3.611200	-10.875000	25.550541	0.000404	20.848884
1125.311277	-2.997500	3.611800	-10.825000	25.535212	0.000401	20.862413
1126.307395	-2.998200	3.610900	-10.824000	25.513095	0.000401	20.825030
1127.308451	-2.964000	3.611900	-10.705000	25.510563	0.000402	20.845720
1128.305103	-3.021400	3.608800	-10.902000	25.534488	0.000400	20.851728
1129.310257	-2.993700	3.609500	-10.805000	25.529791	0.000400	20.843218
1130.308028	-2.992400	3.609800	-10.801000	25.515496	0.000399	20.858260
1131.309926	-2.995400	3.609000	-10.810000	25.469550	0.000401	20.849578
1132.305410	-3.015400	3.609100	-10.882000	25.462076	0.000401	20.844919
1133.306308	-2.991400	3.608800	-10.795000	25.487199	0.000401	20.872042
1134.306713	-2.987900	3.608200	-10.780000	25.514576	0.000399	20.872982
1135.310239	-3.003100	3.608600	-10.835000	25.507380	0.000399	20.870971
1136.308645	-2.977500	3.608100	-10.742000	25.503204	0.000399	20.851606
1137.307789	-3.006800	3.607700	-10.847000	25.526413	0.000399	20.864955
1138.314846	-2.976700	3.608400	-10.740000	25.513013	0.000400	20.856715
1139.316889	-3.018600	3.606100	-10.885000	25.517189	0.000397	20.860908
1140.311721	-3.002400	3.606700	-10.827000	25.538119	0.000395	20.859167
1141.320158	-2.999500	3.606600	-10.817000	25.558290	0.000395	20.871838
1142.315794	-3.013200	3.607100	-10.868000	25.569678	0.000397	20.869050
1143.316844	-3.017300	3.604900	-10.876000	25.538550	0.000394	20.866713
1144.313529	-3.001600	3.606700	-10.824000	25.501136	0.000396	20.875132
1145.314573	-3.010000	3.605600	-10.851000	25.520836	0.000394	20.865045
1146.317936	-2.956900	3.606700	-10.664000	25.526852	0.000393	20.861603
1147.315803	-3.019100	3.604600	-10.882000	25.536230	0.000393	20.880503
1148.313807	-2.980500	3.605200	-10.744000	25.566341	0.000394	20.856690
1149.314644	-2.990300	3.603900	-10.775000	25.549767	0.000392	20.862331
1150.319312	-2.993400	3.603900	-10.787000	25.582971	0.000393	20.865805
1151.316291	-2.997600	3.602400	-10.797000	25.576728	0.000393	20.869966
1152.318354	-2.967900	3.603800	-10.695000	25.537068	0.000392	20.878974
1153.318990	-2.999400	3.603000	-10.806000	25.600855	0.000392	20.859584
1154.317837	-2.996800	3.603300	-10.797000	25.612877	0.000390	20.877347
1155.316788	-3.007500	3.602000	-10.831000	25.621497	0.000393	20.866565
1156.318474	-2.972400	3.602700	-10.708000	25.596793	0.000388	20.871151
1157.319705	-2.991400	3.601800	-10.774000	25.527413	0.000392	20.892511
1158.314371	-3.005100	3.600500	-10.818000	25.541553	0.000391	20.889641
1159.314975	-2.994500	3.600600	-10.781000	25.567700	0.000390	20.882710
1160.313294	-2.999200	3.600900	-10.799000	25.588791	0.000389	20.880184
1161.314702	-2.987200	3.600800	-10.755000	25.580692	0.000388	20.889118
1162.317352	-3.009800	3.600900	-10.837000	25.510245	0.000387	20.885701
1163.317489	-2.999400	3.599100	-10.793000	25.475297	0.000386	20.897546
1164.318647	-3.005100	3.598700	-10.814000	25.501274	0.000386	20.888072
1165.320118	-3.018700	3.599100	-10.864000	25.510432	0.000387	20.895846
1166.321205	-2.988700	3.598100	-10.753000	25.559633	0.000389	20.885513
1167.316823	-3.003700	3.598400	-10.807000	25.554496	0.000390	20.895527
1168.316195	-2.996800	3.598200	-10.782000	25.571941	0.000386	20.898347
1169.315977	-3.022400	3.597200	-10.871000	25.556776	0.000386	20.903031
1170.320426	-2.994100	3.598300	-10.773000	25.556303	0.000387	20.912039
1171.316464	-3.003400	3.596900	-10.802000	25.529546	0.000388	20.883748
1172.322272	-2.987600	3.597500	-10.747000	25.547732	0.000386	20.883519
1173.322873	-3.016800	3.596000	-10.848000	25.551134	0.000385	20.899737
1174.323274	-2.997600	3.595500	-10.777000	25.519037	0.000386	20.883625
1175.320485	-3.013500	3.595300	-10.833000	25.526111	0.000385	20.884565
1176.322072	-2.991400	3.596600	-10.758000	25.523009	0.000383	20.893778
1177.318985	-3.011100	3.596000	-10.826000	25.553129	0.000381	20.905532
1178.318365	-3.008600	3.594300	-10.812000	25.571347	0.000383	20.898225
1179.320583	-3.001600	3.594800	-10.790000	25.588547	0.000382	20.889895
1180.321206	-3.015000	3.594700	-10.837000	25.588563	0.000384	20.905083
1181.331619	-2.977100	3.593800	-10.697000	25.608392	0.000383	20.908402
1182.325317	-3.013600	3.593900	-10.829000	25.602458	0.000382	20.899598
1183.320076	-3.000200	3.592900	-10.778000	25.606862	0.000383	20.892167
1184.323734	-2.999500	3.591800	-10.772000	25.646169	0.000380	20.906513
1185.325022	-2.999500	3.593200	-10.777000	25.657076	0.000382	20.898028
1186.322583	-3.010500	3.593300	-10.816000	25.610215	0.000378	20.895061
1187.323998	-2.997500	3.592800	-10.769000	25.563402	0.000383	20.901151
1188.323202	-2.993400	3.592700	-10.753000	25.572820	0.000380	20.911083
1189.320394	-3.005900	3.591000	-10.793000	25.532664	0.000380	20.906791
1190.323025	-3.029700	3.590700	-10.878000	25.559031	0.000381	20.892020
1191.325224	-3.016400	3.590100	-10.828000	25.569914	0.000380	20.899157
1192.326271	-2.990600	3.591500	-10.739000	25.604949	0.000379	20.897832
1193.322459	-3.011300	3.590200	-10.810000	25.591852	0.000379	20.918342
1194.330494	-2.975800	3.590600	-10.684000	25.556930	0.000379	20.891808
1195.327729	-2.982600	3.589000	-10.704000	25.543922	0.000378	20.898658
1196.328891	-2.985500	3.590300	-10.717000	25.555099	0.000379	20.887124
1197.329878	-3.012200	3.587700	-10.806000	25.589320	0.000377	20.894465
1198.324060	-3.006500	3.589200	-10.790000	25.564298	0.000379	20.893516
1199.325369	-3.010200	3.587500	-10.798000	25.563630	0.000375	20.896639
1200.330126	-3.001100	3.588900	-10.769000	25.549490	0.000375	20.872009
1201.328113	-2.999400	3.588700	-10.763000	25.553642	0.000374	20.888980
1202.328531	-3.003400	3.587800	-10.775000	25.519851	0.000376	20.883969
1203.330398	-2.992400	3.588200	-10.737000	25.522236	0.000376	20.881149
1204.329460	-2.994000	3.587900	-10.741000	25.484089	0.000375	20.885040
1205.330442	-2.998800	3.587200	-10.757000	25.478529	0.000376	20.900318
1206.329185	-2.994300	3.586700	-10.738000	25.478179	0.000373	20.882898
1207.328345	-2.978600	3.586400	-10.681000	25.511922	0.000374	20.902083
1208.342903	-2.985000	3.586700	-10.706000	25.505793	0.000372	20.878860
1209.328103	-3.017600	3.584500	-10.815000	25.499630	0.000372	20.883102
1210.336130	-3.010500	3.586400	-10.796000	25.486939	0.000374	20.880789
1211.331726	-3.007100	3.584600	-10.778000	25.511939	0.000372	20.892144
1212.335848	-2.981100	3.584600	-10.685000	25.561270	0.000373	20.873882
1213.332377	-3.003300	3.585100	-10.766000	25.591193	0.000372	20.866002
1214.340160	-3.018800	3.584400	-10.819000	25.573773	0.000372	20.871266
1215.338083	-3.006600	3.583500	-10.772000	25.599871	0.000373	20.890836
1216.334125	-3.000100	3.583300	-10.750000	25.651184	0.000371	20.875517
1217.335134	-3.013400	3.583700	-10.799000	25.668480	0.000371	20.877242
1218.334088	-2.987400	3.583600	-10.704000	25.644403	0.000371	20.884828
1219.332668	-3.006200	3.582700	-10.770000	25.653056	0.000369	20.873130
1220.333756	-3.021500	3.580500	-10.818000	25.648465	0.000369	20.873735
1221.331870	-3.017600	3.581100	-10.805000	25.631071	0.000370	20.863378
1222.334427	-3.022300	3.580500	-10.820000	25.617535	0.000369	20.864956
1223.340443	-3.028000	3.580800	-10.842000	25.634774	0.000370	20.861408
1224.338745	-2.990500	3.581100	-10.707000	25.662734	0.000369	20.878583
1225.336742	-3.012400	3.580100	-10.784000	25.668359	0.000366	20.865267
1226.339984	-3.008300	3.581200	-10.773000	25.683514	0.000366	20.873850
1227.336360	-2.986700	3.581500	-10.695000	25.674178	0.000367	20.853569
1228.335238	-3.014900	3.580000	-10.793000	25.689090	0.000368	20.879924
1229.343007	-2.993400	3.580000	-10.715000	25.734905	0.000367	20.846760
1230.340974	-2.993800	3.579700	-10.716000	25.746446	0.000368	20.880636
1231.334826	-3.001700	3.579100	-10.743000	25.725301	0.000365	20.876467
1232.347512	-2.978100	3.580000	-10.661000	25.696448	0.000365	20.861237
1233.340554	-2.988300	3.579000	-10.694000	25.698027	0.000363	20.857608
1234.338808	-2.999900	3.577900	-10.732000	25.701804	0.000367	20.850970
1235.337216	-2.965000	3.579600	-10.613000	25.706972	0.000364	20.858058
1236.379285	-3.027000	3.576900	-10.826000	25.685664	0.000363	20.872216
1237.338665	-2.994500	3.577900	-10.713000	25.672918	0.000365	20.876483
1238.336884	-3.009500	3.577000	-10.763000	25.678217	0.000363	20.889865
1239.337001	-2.991800	3.577100	-10.701000	25.674985	0.000363	20.876189
1240.339305	-3.015500	3.576300	-10.783000	25.705743	0.000365	20.877685
1241.340120	-2.997700	3.576500	-10.721000	25.697173	0.000363	20.864336
1242.339101	-3.009800	3.575400	-10.760000	25.666170	0.000362	20.851690
1243.341237	-2.999000	3.574700	-10.719000	25.659561	0.000363	20.874448
1244.341890	-2.999000	3.574200	-10.718000	25.645578	0.000361	20.858508
1245.343589	-2.991600	3.576000	-10.696000	25.636705	0.000361	20.860028
1246.341014	-3.002500	3.575000	-10.733000	25.626742	0.000360	20.879418
1247.341196	-3.024500	3.572300	-10.804000	25.640555	0.000360	20.853938
1248.338062	-2.989100	3.574700	-10.684000	25.688318	0.000361	20.861606
1249.344083	-2.966900	3.574300	-10.603000	25.713216	0.000361	20.865277
1250.344422	-2.995500	3.573400	-10.703000	25.714900	0.000359	20.868865
1251.346215	-2.983200	3.574500	-10.663000	25.733913	0.000360	20.843867
1252.340076	-3.013000	3.573400	-10.765000	25.687952	0.000358	20.867876
1253.339862	-2.988400	3.571700	-10.673000	25.638130	0.000359	20.844865
1254.342646	-2.998500	3.571000	-10.707000	25.640149	0.000359	20.871073
1255.346547	-3.003900	3.571900	-10.729000	25.620044	0.000358	20.854674
1256.344228	-3.035900	3.570200	-10.837000	25.634679	0.000358	20.849933
1257.345591	-3.024100	3.571200	-10.799000	25.665365	0.000357	20.839028
1258.346176	-3.015700	3.571000	-10.768000	25.702513	0.000354	20.852631
1259.341021	-3.018000	3.571000	-10.776000	25.691680	0.000356	20.872569
1260.344440	-3.004800	3.570200	-10.727000	25.671877	0.000355	20.846042
1261.345168	-2.990800	3.569300	-10.674000	25.692550	0.000354	20.845944
1262.349891	-2.994500	3.569500	-10.689000	25.677998	0.000356	20.844603
1263.344380	-3.004700	3.568700	-10.722000	25.685347	0.000353	20.858623
1264.342086	-2.984500	3.568900	-10.650000	25.650242	0.000354	20.836167
1265.346398	-3.006700	3.567800	-10.726000	25.639661	0.000354	20.841186
1266.341954	-3.008600	3.567100	-10.731000	25.611310	0.000352	20.846377
1267.348565	-2.996700	3.568100	-10.692000	25.583138	0.000352	20.843214
1268.344944	-3.020000	3.568600	-10.777000	25.611408	0.000352	20.864966
1269.343425	-3.008000	3.567400	-10.730000	25.615323	0.000352	20.859416
1270.351078	-2.993000	3.568100	-10.679000	25.557171	0.000350	20.838473
1271.350538	-3.002600	3.565500	-10.705000	25.532074	0.000350	20.864476
1272.346999	-2.985500	3.567300	-10.649000	25.568608	0.000351	20.832415
1273.343341	-3.004600	3.565900	-10.713000	25.568689	0.000349	20.839135
1274.345259	-2.984700	3.566300	-10.644000	25.560191	0.000351	20.858100
1275.343918	-3.018100	3.565800	-10.761000	25.569788	0.000351	20.831704
1276.344841	-3.005700	3.565500	-10.716000	25.543186	0.000350	20.838653
1277.344139	-3.017500	3.564700	-10.755000	25.551847	0.000351	20.872954
1278.346913	-3.016800	3.564100	-10.751000	25.580233	0.000349	20.851201
1279.344498	-2.992700	3.563800	-10.665000	25.601616	0.000348	20.839961
1280.346015	-2.979000	3.565000	-10.620000	25.672016	0.000349	20.837648
1281.353900	-2.995600	3.563500	-10.674000	25.702074	0.000348	20.845552
1282.343458	-2.995100	3.562600	-10.669000	25.733964	0.000347	20.834435
1283.349487	-3.009000	3.563300	-10.721000	25.721958	0.000347	20.851774
1284.345125	-2.989000	3.563300	-10.650000	25.688800	0.000349	20.823685
1285.346780	-3.025100	3.560700	-10.771000	25.721291	0.000346	20.852526
1286.346558	-3.009900	3.563800	-10.726000	25.726679	0.000347	20.856515
1287.351660	-3.029900	3.562200	-10.792000	25.757794	0.000346	20.846043
1288.346918	-3.011800	3.560800	-10.723000	25.694164	0.000344	20.839029
1289.345953	-2.985900	3.561200	-10.632000	25.630179	0.000345	20.830241
1290.356392	-2.993700	3.561200	-10.661000	25.611221	0.000345	20.851030
1291.349466	-3.009000	3.560500	-10.713000	25.640305	0.000345	20.824291
1292.354311	-2.987200	3.561500	-10.638000	25.640516	0.000346	20.843942
1293.351290	-3.018600	3.558900	-10.741000	25.646857	0.000345	20.833716
1294.353714	-2.985700	3.559800	-10.628000	25.662038	0.000343	20.835686
1295.349171	-2.984900	3.558800	-10.621000	25.703002	0.000346	20.835580
1296.354422	-3.009100	3.558100	-10.706000	25.724001	0.000343	20.826800
1297.357044	-2.996200	3.559400	-10.664000	25.716644	0.000341	20.837901
1298.351746	-2.985100	3.559800	-10.625000	25.688596	0.000342	20.820636
1299.349396	-2.989800	3.558100	-10.637000	25.707674	0.000344	20.820832
1300.352297	-2.995100	3.558000	-10.656000	25.677893	0.000342	20.819843
1301.357247	-2.982100	3.557600	-10.608000	25.674141	0.000340	20.851161
1302.351654	-2.976700	3.558600	-10.592000	25.608739	0.000340	20.827201
1303.350884	-2.991600	3.556000	-10.637000	25.610953	0.000339	20.829898
1304.353832	-3.001200	3.556800	-10.674000	25.578971	0.000341	20.828598
1305.350121	-2.985900	3.556400	-10.619000	25.600567	0.000340	20.827528
1306.349900	-3.010600	3.555700	-10.704000	25.656552	0.000339	20.825909
1307.355911	-3.007800	3.555900	-10.694000	25.657895	0.000337	20.828680
1308.350624	-3.014400	3.554100	-10.712000	25.690655	0.000338	20.840247
1309.352594	-3.006200	3.554700	-10.685000	25.623993	0.000340	20.841098
1310.358937	-2.982300	3.555100	-10.602000	25.623871	0.000337	20.818690
1311.356713	-2.995400	3.554300	-10.645000	25.612077	0.000339	20.835294
1312.360454	-2.996600	3.553900	-10.649000	25.650007	0.000337	20.829767
1313.363123	-2.999500	3.552800	-10.655000	25.677022	0.000338	20.818020
1314.355344	-3.006500	3.553000	-10.681000	25.727257	0.000337	20.840027
1315.356277	-2.986900	3.554400	-10.615000	25.745073	0.000339	20.811456
1316.359158	-3.022500	3.551900	-10.735000	25.752032	0.000335	20.829351
1317.352982	-2.998900	3.553400	-10.655000	25.782633	0.000336	20.834010
1318.351507	-3.012300	3.552100	-10.699000	25.767455	0.000334	20.838204
1319.353010	-3.006000	3.552100	-10.676000	25.739278	0.000333	20.824127
1320.353907	-2.975700	3.552900	-10.571000	25.679952	0.000337	20.839929
1321.366116	-2.993700	3.551600	-10.631000	25.625662	0.000335	20.826653
1322.361010	-3.000200	3.549900	-10.649000	25.600420	0.000333	20.838760
1323.360409	-2.982700	3.550700	-10.590000	25.575870	0.000333	20.803673
1324.353408	-3.011000	3.549600	-10.687000	25.580412	0.000331	20.827675
1325.357094	-2.988500	3.549600	-10.607000	25.605434	0.000331	20.841425
1326.355149	-2.971800	3.549500	-10.547000	25.621169	0.000332	20.812183
1327.358029	-2.995000	3.549600	-10.630000	25.652474	0.000332	20.829874
1328.354846	-3.018500	3.548500	-10.710000	25.685129	0.000332	20.809568
1329.354025	-3.019500	3.547800	-10.712000	25.665147	0.000330	20.820317
1330.357118	-3.006400	3.549100	-10.670000	25.678895	0.000333	20.806151
1331.356302	-3.004100	3.548300	-10.659000	25.710621	0.000330	20.820947
1332.360878	-2.989500	3.548200	-10.606000	25.717605	0.000331	20.826539
1333.364200	-3.017400	3.546300	-10.700000	25.724458	0.000330	20.804499
1334.358385	-3.003700	3.546500	-10.652000	25.691315	0.000330	20.797763
1335.358625	-3.008700	3.546000	-10.668000	25.725483	0.000329	20.806952
1336.364658	-3.000400	3.545800	-10.638000	25.743413	0.000331	20.821168
1337.355777	-3.015500	3.545900	-10.692000	25.728657	0.000329	20.801131
1338.360881	-3.009100	3.545500	-10.667000	25.723790	0.000329	20.825639
1339.357818	-3.004300	3.545900	-10.651000	25.756614	0.000328	20.809772
1340.361606	-3.003900	3.545000	-10.648000	25.745529	0.000325	20.811914
1341.360291	-3.000600	3.543500	-10.631000	25.749802	0.000328	20.797714
1342.357955	-3.013500	3.543700	-10.678000	25.746001	0.000326	20.825664
1343.364777	-2.995500	3.544200	-10.616000	25.770743	0.000328	20.817800
1344.360601	-2.998000	3.543400	-10.621000	25.751462	0.000326	20.809813
1345.360781	-2.979700	3.542700	-10.555000	25.727135	0.000328	20.807188
1346.360697	-3.009100	3.541700	-10.656000	25.707618	0.000327	20.787111
1347.361338	-2.972000	3.543300	-10.530000	25.728983	0.000327	20.807148
1348.358910	-2.997600	3.542100	-10.617000	25.726020	0.000324	20.810810
1349.365036	-3.002700	3.541500	-10.633000	25.759487	0.000325	20.807442
1350.361158	-2.993300	3.541400	-10.600000	25.768538	0.000326	20.799938
1351.362695	-2.983200	3.541900	-10.565000	25.763540	0.000325	20.808194
1352.364996	-2.982200	3.542000	-10.561000	25.782959	0.000326	20.805414
1353.365149	-2.985700	3.540700	-10.571000	25.730317	0.000323	20.811333
1354.365425	-2.986700	3.540800	-10.574000	25.697965	0.000324	20.794958
1355.369539	-2.992900	3.541300	-10.598000	25.697029	0.000324	20.780742
1356.365866	-2.976900	3.539400	-10.535000	25.725377	0.000323	20.786457
1357.368775	-3.006700	3.539500	-10.641000	25.749126	0.000323	20.791819
1358.366814	-3.050700	3.538800	-10.795000	25.751349	0.000322	20.810173
1359.364886	-3.009400	3.539800	-10.652000	25.755817	0.000319	20.809919
1360.368638	-3.010000	3.538700	-10.651000	25.767130	0.000322	20.799946
1361.369292	-2.997500	3.538400	-10.605000	25.797015	0.000320	20.813843
1362.364803	-3.013900	3.538200	-10.662000	25.810085	0.000322	20.806584
1363.364697	-2.997700	3.538600	-10.607000	25.741786	0.000321	20.805309
1364.365925	-2.990200	3.538200	-10.579000	25.765095	0.000320	20.783203
1365.365720	-2.979400	3.537500	-10.539000	25.770833	0.000318	20.787544
1366.364911	-3.001300	3.537000	-10.616000	25.763134	0.000321	20.763215
1367.364399	-2.991900	3.537500	-10.583000	25.762483	0.000320	20.773467
1368.364898	-2.991100	3.536200	-10.576000	25.723896	0.000317	20.790185
1369.366182	-3.007800	3.535100	-10.631000	25.669860	0.000317	20.780481
1370.366631	-2.976500	3.536200	-10.524000	25.664415	0.000319	20.797771
1371.371855	-2.978200	3.535400	-10.528000	25.715798	0.000317	20.774938
1372.364898	-3.032800	3.534700	-10.719000	25.673710	0.000320	20.781029
1373.369833	-2.991100	3.535500	-10.574000	25.699276	0.000317	20.782051
1374.373434	-2.998800	3.533300	-10.594000	25.738058	0.000316	20.785917
1375.366123	-2.985000	3.534300	-10.548000	25.726061	0.000318	20.785721
1376.368040	-3.014500	3.533400	-10.651000	25.761840	0.000315	20.787046
1377.368554	-3.001900	3.532500	-10.603000	25.746612	0.000315	20.768905
1378.368921	-3.010600	3.531400	-10.630000	25.768497	0.000315	20.786621
1379.368379	-2.993500	3.532400	-10.573000	25.819924	0.000315	20.795605
1380.366693	-3.013900	3.531700	-10.643000	25.760652	0.000312	20.780637
1381.374677	-3.033600	3.530400	-10.709000	25.768905	0.000314	20.770908
1382.370860	-2.993300	3.532600	-10.573000	25.782594	0.000313	20.784659
1383.373304	-2.995600	3.532400	-10.580000	25.809101	0.000315	20.766240
1384.373264	-3.023600	3.530900	-10.675000	25.773055	0.000311	20.782664
1385.370053	-3.010500	3.529700	-10.625000	25.768432	0.000312	20.773279
1386.370275	-3.013600	3.529800	-10.637000	25.767000	0.000314	20.776108
1387.374645	-3.001700	3.529000	-10.592000	25.759399	0.000311	20.761834
1388.376545	-3.017300	3.527800	-10.643000	25.721089	0.000311	20.777882
1389.378401	-3.004500	3.529200	-10.602000	25.731971	0.000309	20.762259
1390.379516	-3.034900	3.527500	-10.705000	25.692521	0.000310	20.778111
1391.376592	-3.004800	3.528200	-10.601000	25.677170	0.000308	20.748468
1392.380481	-3.010400	3.527600	-10.619000	25.676552	0.000309	20.754011
1393.381858	-2.995500	3.526200	-10.562000	25.676650	0.000309	20.767385
1394.376392	-3.005300	3.526800	-10.599000	25.674770	0.000307	20.775455
1395.377778	-2.998800	3.527900	-10.579000	25.700481	0.000308	20.758605
1396.382690	-2.986800	3.526600	-10.532000	25.705699	0.000308	20.767639
1397.372468	-3.012000	3.526500	-10.620000	25.721383	0.000307	20.772487
1398.375026	-3.018700	3.525900	-10.643000	25.733641	0.000308	20.771523
1399.378796	-2.990600	3.525000	-10.540000	25.760344	0.000307	20.772267
1400.382442	-2.979500	3.526600	-10.506000	25.678482	0.000304	20.777760
1401.377969	-3.012000	3.525300	-10.617000	25.666777	0.000307	20.739925
1402.376311	-2.989700	3.525000	-10.538000	25.671311	0.000304	20.738789
1403.375313	-3.003200	3.525100	-10.585000	25.724330	0.000306	20.760748
1404.377420	-2.986100	3.524300	-10.523000	25.796471	0.000304	20.763511
1405.378083	-2.976700	3.524700	-10.491000	25.829171	0.000306	20.750839
1406.374619	-2.967900	3.524700	-10.460000	25.846139	0.000303	20.767411
1407.380978	-2.985700	3.523500	-10.519000	25.846188	0.000303	20.764615
1408.377989	-3.008000	3.521500	-10.592000	25.785778	0.000304	20.747553
1409.380598	-2.996700	3.521900	-10.553000	25.754843	0.000302	20.752990
1410.378350	-3.009800	3.522700	-10.601000	25.750725	0.000303	20.756914
1411.375571	-3.020400	3.521100	-10.634000	25.738630	0.000302	20.757568
1412.381333	-2.974900	3.521500	-10.475000	25.741618	0.000301	20.761517
1413.384725	-2.991300	3.519700	-10.528000	25.775385	0.000302	20.770780
1414.379036	-2.982900	3.520800	-10.501000	25.750937	0.000299	20.752386
1415.386173	-3.014000	3.519800	-10.607000	25.720953	0.000301	20.748347
1416.379227	-3.002500	3.520500	-10.570000	25.771560	0.000300	20.737065
1417.376205	-2.976600	3.520100	-10.477000	25.819838	0.000301	20.771336
1418.377262	-2.973600	3.521100	-10.470000	25.846295	0.000301	20.752868
1419.376343	-2.995100	3.518800	-10.538000	25.857127	0.000300	20.766595
1420.378618	-2.998100	3.519100	-10.550000	25.890395	0.000299	20.742641
1421.377739	-3.008500	3.518600	-10.585000	25.907167	0.000298	20.737204
1422.375675	-2.993700	3.519300	-10.534000	25.881533	0.000298	20.749860
1423.380475	-2.986000	3.518200	-10.504000	25.871898	0.000298	20.739232
1424.379856	-3.007700	3.518400	-10.581000	25.860887	0.000300	20.748560
1425.379114	-3.025500	3.516100	-10.636000	25.830288	0.000298	20.728253
1426.376423	-3.017500	3.517800	-10.614000	25.825267	0.000298	20.741701
1427.381626	-2.992400	3.516600	-10.522000	25.799135	0.000296	20.735839
1428.395123	-2.989700	3.516400	-10.512000	25.738363	0.000296	20.757774
1429.384181	-2.997700	3.514900	-10.536000	25.720954	0.000296	20.738865
1430.380429	-2.995600	3.515700	-10.531000	25.746844	0.000295	20.725040
1431.383582	-2.988800	3.515300	-10.506000	25.768485	0.000296	20.726389
1432.385100	-3.004600	3.514300	-10.558000	25.771887	0.000295	20.761102
1433.382851	-3.010100	3.514100	-10.576000	25.750108	0.000295	20.752027
1434.379910	-2.981500	3.514800	-10.478000	25.801308	0.000293	20.743239
1435.381231	-2.989200	3.513600	-10.503000	25.809512	0.000295	20.726348
1436.383000	-3.010900	3.514400	-10.581000	25.751028	0.000298	20.737304
1437.379787	-3.017600	3.512800	-10.599000	25.785642	0.000292	20.732243
1438.380553	-2.996500	3.513800	-10.528000	25.767671	0.000294	20.733158
1439.383162	-2.989900	3.512000	-10.499000	25.811473	0.000293	20.720732
1440.382373	-2.983600	3.512700	-10.479000	25.827546	0.000293	20.739249
1441.383656	-2.991400	3.512000	-10.505000	25.815949	0.000292	20.737557
1442.382855	-2.991900	3.511400	-10.505000	25.789915	0.000291	20.710455
1443.381557	-3.018700	3.510600	-10.597000	25.773914	0.000290	20.729946
1444.391468	-3.000600	3.510600	-10.533000	25.794326	0.000292	20.735751
1445.383965	-2.997500	3.509800	-10.520000	25.839111	0.000289	20.730003
1446.379785	-2.990200	3.511000	-10.497000	25.841341	0.000291	20.736511
1447.380550	-3.001500	3.510100	-10.535000	25.829093	0.000290	20.709033
1448.381363	-2.967300	3.509800	-10.413000	25.773947	0.000290	20.739462
1449.382738	-2.992700	3.509300	-10.502000	25.804011	0.000290	20.725564
1450.382636	-3.003100	3.508200	-10.535000	25.786350	0.000292	20.713039
1451.379808	-2.999700	3.508300	-10.523000	25.793504	0.000290	20.741564
1452.383276	-3.008000	3.507700	-10.549000	25.777528	0.000287	20.732154
1453.382705	-2.993900	3.508300	-10.502000	25.791242	0.000290	20.744507
1454.389842	-2.994800	3.507100	-10.502000	25.749897	0.000289	20.722416
1455.389853	-2.999300	3.507100	-10.518000	25.740708	0.000289	20.714135
1456.384861	-2.994900	3.506500	-10.501000	25.725953	0.000289	20.728712
1457.386093	-2.979000	3.507300	-10.447000	25.715046	0.000287	20.727240
1458.390440	-3.034600	3.504900	-10.635000	25.720630	0.000287	20.739961
1459.387733	-2.990200	3.505700	-10.481000	25.719295	0.000288	20.743836
1460.384274	-3.002900	3.505900	-10.527000	25.770570	0.000286	20.727534
1461.390607	-3.003400	3.503900	-10.523000	25.801854	0.000286	20.719604
1462.384622	-3.002600	3.503800	-10.519000	25.864429	0.000287	20.713709
1463.388160	-2.963300	3.504900	-10.385000	25.885823	0.000286	20.720978
1464.385225	-2.983500	3.505300	-10.457000	25.894100	0.000285	20.737354
1465.388325	-2.964500	3.503900	-10.386000	25.841431	0.000285	20.747982
1466.387024	-3.012600	3.502400	-10.550000	25.799901	0.000282	20.739929
1467.386665	-3.010000	3.503400	-10.544000	25.812166	0.000284	20.706728
1468.393689	-3.003300	3.502100	-10.517000	25.793805	0.000284	20.726693
1469.390725	-3.000800	3.501400	-10.506000	25.804695	0.000285	20.723406
1470.388876	-2.983300	3.503500	-10.451000	25.778895	0.000285	20.734475
1471.398633	-3.011800	3.501200	-10.543000	25.755399	0.000284	20.722728
1472.391345	-2.971600	3.502500	-10.406000	25.707542	0.000283	20.720177
1473.390743	-3.002600	3.500600	-10.510000	25.738055	0.000284	20.731860
1474.392735	-3.012300	3.502100	-10.548000	25.805956	0.000280	20.722302
1475.393322	-2.997700	3.500500	-10.493000	25.840804	0.000281	20.723169
1476.393446	-3.004800	3.500000	-10.515000	25.795669	0.000278	20.730461
1477.397890	-3.012500	3.501100	-10.546000	25.744762	0.000282	20.730061
1478.393473	-3.034100	3.499100	-10.616000	25.748782	0.000280	20.735522
1479.391758	-3.007700	3.498600	-10.522000	25.733856	0.000280	20.709622
1480.388633	-3.019900	3.497300	-10.561000	25.750597	0.000281	20.717904
1481.392662	-2.963600	3.500100	-10.372000	25.768234	0.000280	20.734672
1482.390481	-2.995000	3.496900	-10.472000	25.773011	0.000278	20.718133
1483.389384	-3.026500	3.496600	-10.582000	25.802245	0.000279	20.714780
1484.392829	-2.973200	3.497600	-10.398000	25.758077	0.000278	20.731107
1485.389582	-3.005500	3.498100	-10.513000	25.753934	0.000278	20.736904
1486.390145	-3.002900	3.497600	-10.502000	25.739015	0.000278	20.738040
1487.398228	-2.997400	3.497000	-10.481000	25.768730	0.000278	20.742757
1488.389907	-2.997100	3.495300	-10.474000	25.783567	0.000277	20.728736
1489.391446	-3.005800	3.495400	-10.506000	25.791592	0.000275	20.731107
1490.393501	-2.994600	3.496100	-10.469000	25.814240	0.000277	20.731099
1491.391118	-3.026700	3.493500	-10.573000	25.818220	0.000277	20.741261
1492.392870	-3.023300	3.492600	-10.559000	25.797028	0.000274	20.747474
1493.394483	-3.018900	3.493100	-10.544000	25.777683	0.000275	20.740370
1494.396073	-2.993600	3.493500	-10.456000	25.780360	0.000277	20.726463
1495.395198	-2.992900	3.494300	-10.457000	25.807291	0.000276	20.718427
1496.396758	-2.998100	3.493200	-10.472000	25.756042	0.000275	20.729538
1497.395804	-3.041600	3.492100	-10.620000	25.791014	0.000272	20.758977
1498.391983	-3.007100	3.490700	-10.496000	25.811490	0.000273	20.734026
1499.401219	-2.993000	3.492600	-10.453000	25.845866	0.000272	20.748643
1500.394973	-3.029200	3.491200	-10.575000	25.805476	0.000272	20.741261
1501.395043	-3.022700	3.491800	-10.554000	25.824088	0.000274	20.729137
1502.392558	-3.000600	3.490900	-10.474000	25.806672	0.000272	20.722547
1503.399256	-2.982400	3.491700	-10.413000	25.777650	0.000274	20.744605
1504.394927	-2.982900	3.489900	-10.409000	25.769186	0.000270	20.736577
1505.400581	-2.988700	3.491900	-10.435000	25.753731	0.000271	20.740019
1506.394518	-2.984200	3.490800	-10.416000	25.736956	0.000271	20.740239
1507.401556	-2.981000	3.490900	-10.405000	25.755961	0.000270	20.736094
1508.397089	-2.999700	3.489700	-10.467000	25.787213	0.000272	20.735244
1509.397531	-3.030800	3.488700	-10.572000	25.807087	0.000270	20.750466
1510.402495	-3.010500	3.488900	-10.503000	25.775111	0.000269	20.735889
1511.400547	-3.027100	3.487500	-10.556000	25.837939	0.000268	20.718868
1512.399192	-3.006900	3.488200	-10.488000	25.860026	0.000272	20.747221
1513.402308	-3.010600	3.488200	-10.501000	25.864697	0.000268	20.741956
1514.401797	-3.022800	3.486900	-10.538000	25.849096	0.000268	20.732922
1515.407277	-3.018500	3.487500	-10.526000	25.813443	0.000271	20.737410
1516.404110	-2.978400	3.488400	-10.389000	25.820849	0.000267	20.754807
1517.405321	-3.002500	3.485800	-10.466000	25.801162	0.000268	20.756368
1518.403288	-2.966800	3.486900	-10.344000	25.779147	0.000266	20.740892
1519.406560	-3.000100	3.484900	-10.454000	25.740643	0.000267	20.744890
1520.403715	-2.990200	3.486500	-10.424000	25.767224	0.000265	20.744089
1521.408084	-3.002800	3.484600	-10.462000	25.753958	0.000266	20.754946
1522.407110	-3.013600	3.484400	-10.500000	25.781979	0.000264	20.747057
1523.407280	-2.982000	3.485700	-10.393000	25.789873	0.000266	20.741710
1524.403374	-2.979500	3.483800	-10.379000	25.805401	0.000265	20.753515
1525.401253	-2.987100	3.483800	-10.406000	25.825422	0.000266	20.744702
1526.404786	-2.993500	3.485000	-10.431000	25.837124	0.000264	20.762148
1527.405510	-3.016500	3.482800	-10.505000	25.809373	0.000265	20.752763
1528.409613	-3.000300	3.483800	-10.452000	25.828278	0.000266	20.767486
1529.411592	-2.988100	3.484000	-10.409000	25.859789	0.000263	20.755518
1530.405413	-3.014200	3.482000	-10.495000	25.822598	0.000262	20.752771
1531.407193	-2.999900	3.481900	-10.445000	25.783721	0.000263	20.767773
1532.418406	-3.002100	3.481800	-10.452000	25.822004	0.000262	20.784892
1533.411129	-3.008100	3.481400	-10.472000	25.863638	0.000261	20.745634
1534.410810	-2.995400	3.482000	-10.429000	25.914890	0.000262	20.765827
1535.407203	-2.996700	3.480100	-10.428000	25.937512	0.000262	20.744931
1536.407747	-3.008200	3.479200	-10.465000	25.948668	0.000262	20.746656
1537.409131	-3.005100	3.479300	-10.455000	25.877278	0.000262	20.747956
1538.411677	-2.999800	3.481000	-10.441000	25.915183	0.000261	20.756638
1539.412413	-2.977800	3.480500	-10.362000	25.909820	0.000262	20.769743
1540.410708	-3.021700	3.478200	-10.510000	25.902334	0.000260	20.764119
1541.413568	-2.999200	3.479700	-10.435000	25.880566	0.000262	20.763113
1542.412729	-2.997300	3.478500	-10.426000	25.901455	0.000261	20.766555
1543.411672	-2.997800	3.477300	-10.423000	25.880810	0.000261	20.750556
1544.407623	-2.979400	3.476900	-10.358000	25.875292	0.000261	20.762083
1545.413898	-2.995000	3.477400	-10.414000	25.842732	0.000261	20.754031
1546.410092	-2.997000	3.477500	-10.421000	25.876131	0.000259	20.751072
1547.411812	-3.005200	3.475500	-10.443000	25.910985	0.000259	20.765223
1548.414491	-2.997200	3.475100	-10.414000	25.932687	0.000259	20.750515
1549.411575	-2.978400	3.476700	-10.353000	25.881372	0.000257	20.768665
1550.408824	-2.989500	3.476900	-10.393000	25.824487	0.000256	20.742340
1551.414869	-2.992100	3.474800	-10.397000	25.854102	0.000258	20.749805
1552.410991	-2.998900	3.474300	-10.418000	25.929327	0.000257	20.737182
1553.414306	-2.990400	3.475000	-10.391000	25.882756	0.000258	20.750140
1554.416982	-3.011600	3.474700	-10.464000	25.850033	0.000254	20.750459
1555.412421	-3.012100	3.472900	-10.460000	25.887720	0.000255	20.769352
1556.414202	-3.008400	3.474700	-10.452000	25.894263	0.000255	20.759804
1557.416149	-3.006600	3.473300	-10.442000	25.887753	0.000256	20.761324
1558.418276	-3.019100	3.472900	-10.484000	25.846046	0.000255	20.736022
1559.412590	-2.999900	3.472200	-10.416000	25.796883	0.000254	20.752544
1560.414883	-2.997400	3.472300	-10.407000	25.794522	0.000255	20.771985
1561.420785	-3.006600	3.472200	-10.439000	25.782974	0.000253	20.753272
1562.415195	-3.008700	3.472400	-10.447000	25.797485	0.000253	20.768797
1563.415802	-2.990600	3.471900	-10.382000	25.800741	0.000256	20.770171
1564.414226	-2.990900	3.471900	-10.383000	25.877109	0.000254	20.766753
1565.418019	-3.004000	3.470400	-10.424000	25.929084	0.000253	20.779613
1566.419723	-3.015400	3.469100	-10.460000	25.867523	0.000252	20.775141
1567.416496	-3.008300	3.469800	-10.437000	25.776871	0.000252	20.769427
1568.418707	-2.999800	3.469600	-10.407000	25.793669	0.000252	20.764015
1569.416658	-2.991700	3.469800	-10.380000	25.827621	0.000251	20.764930
1570.421600	-2.997300	3.468500	-10.395000	25.826092	0.000251	20.773825
1571.423816	-3.020300	3.467700	-10.472000	25.857302	0.000251	20.790004
1572.417030	-2.993000	3.468100	-10.379000	25.862087	0.000249	20.763990
1573.423580	-2.997200	3.467800	-10.393000	25.881471	0.000251	20.788206
1574.424588	-3.005100	3.467000	-10.418000	25.854608	0.000250	20.754581
1575.416975	-2.994500	3.466700	-10.380000	25.846267	0.000249	20.778919
1576.417591	-2.976200	3.467600	-10.320000	25.833595	0.000248	20.775199
1577.423574	-3.015600	3.467100	-10.455000	25.809946	0.000250	20.773727
1578.422485	-3.011000	3.466200	-10.436000	25.835264	0.000248	20.765021
1579.425372	-3.022200	3.464900	-10.471000	25.788257	0.000249	20.774700
1580.422098	-2.974300	3.466600	-10.310000	25.812908	0.000248	20.781919
1581.422289	-2.997300	3.465300	-10.386000	25.823911	0.000247	20.780644
1582.421911	-3.001700	3.464500	-10.399000	25.804159	0.000247	20.769812
1583.420474	-2.990200	3.465300	-10.361000	25.774299	0.000247	20.791026
1584.422596	-2.994900	3.465600	-10.379000	25.788786	0.000247	20.788983
1585.423773	-3.002400	3.464500	-10.401000	25.783195	0.000247	20.788582
1586.420506	-2.989800	3.463900	-10.356000	25.830096	0.000246	20.793021
1587.426277	-2.979800	3.464900	-10.324000	25.833433	0.000245	20.808227
1588.426427	-3.021500	3.463000	-10.462000	25.805478	0.000244	20.775403
1589.427046	-2.999100	3.462100	-10.383000	25.860688	0.000245	20.775862
1590.427727	-2.993800	3.462800	-10.366000	25.853331	0.000246	20.793127
1591.429747	-3.024300	3.462000	-10.469000	25.928475	0.000244	20.778052
1592.429278	-3.007900	3.461800	-10.412000	25.949184	0.000243	20.767089
1593.431190	-2.970700	3.461800	-10.282000	25.946906	0.000242	20.781870
1594.423201	-3.016700	3.461100	-10.440000	25.961089	0.000242	20.786636
1595.424448	-3.011600	3.460800	-10.422000	25.938207	0.000246	20.782140
1596.426301	-2.994200	3.462100	-10.365000	25.934805	0.000242	20.783464
1597.426859	-3.007700	3.459600	-10.405000	25.908488	0.000243	20.775517
1598.427414	-2.996100	3.460300	-10.366000	25.832082	0.000242	20.788851
1599.425525	-2.988400	3.459900	-10.339000	25.849391	0.000241	20.776368
1600.428981	-2.992300	3.458600	-10.348000	25.843036	0.000240	20.769983
1601.426242	-3.000100	3.458900	-10.376000	25.846632	0.000240	20.782131
1602.428818	-3.003300	3.458800	-10.387000	25.873195	0.000240	20.787952
1603.429078	-3.002100	3.457100	-10.378000	25.946450	0.000241	20.789947
1604.426592	-3.010900	3.458300	-10.412000	25.941632	0.000241	20.796013
1605.427029	-3.000500	3.458100	-10.375000	25.906080	0.000239	20.795383
1606.430294	-2.982200	3.458500	-10.313000	25.960015	0.000241	20.798833
1607.426917	-2.984600	3.457400	-10.318000	25.947768	0.000240	20.775624
1608.428499	-2.981000	3.457600	-10.306000	25.921916	0.000240	20.795645
1609.428118	-3.001600	3.456100	-10.372000	25.834222	0.000238	20.801907
1610.429791	-2.998600	3.455700	-10.362000	25.788363	0.000237	20.800885
1611.430197	-2.976200	3.457700	-10.290000	25.809702	0.000238	20.795294
1612.433321	-3.014300	3.455600	-10.415000	25.831122	0.000237	20.798319
1613.429291	-2.983800	3.455200	-10.308000	25.865944	0.000236	20.802479
1614.427311	-3.010600	3.454700	-10.400000	25.891197	0.000237	20.797027
1615.427317	-3.029300	3.453400	-10.461000	25.848863	0.000236	20.816140
1616.427693	-2.989500	3.455200	-10.329000	25.816677	0.000237	20.799456
1617.434032	-3.026100	3.453200	-10.449000	25.772998	0.000236	20.793038
1618.430086	-3.019500	3.453800	-10.428000	25.770866	0.000236	20.807017
1619.439654	-3.019200	3.452700	-10.424000	25.810004	0.000236	20.773786
1620.430674	-3.017600	3.451400	-10.414000	25.833231	0.000237	20.817980
1621.429165	-3.009300	3.451800	-10.386000	25.875687	0.000235	20.787136
1622.432129	-2.985600	3.453300	-10.309000	25.887535	0.000234	20.800461
1623.430765	-3.011900	3.451900	-10.396000	25.907498	0.000234	20.812455
1624.432719	-3.013800	3.449900	-10.397000	25.909085	0.000234	20.800298
1625.440296	-3.002500	3.451700	-10.362000	25.947469	0.000234	20.802825
1626.430771	-2.982200	3.450200	-10.288000	25.900247	0.000232	20.799955
1627.434938	-2.978200	3.451900	-10.279000	25.904951	0.000234	20.789034
1628.434514	-3.018600	3.449600	-10.411000	25.911315	0.000232	20.794005
1629.432378	-2.969000	3.449900	-10.241000	25.899214	0.000232	20.814090
1630.433501	-3.018900	3.448600	-10.409000	25.902104	0.000233	20.815096
1631.433950	-2.989800	3.449100	-10.311000	25.934548	0.000232	20.787947
1632.432809	-2.989000	3.449300	-10.308000	25.941465	0.000231	20.821449
1633.436333	-2.998600	3.449000	-10.341000	25.934304	0.000230	20.818522
1634.432877	-2.978000	3.449400	-10.271000	25.959424	0.000230	20.809146
1635.438441	-3.000400	3.447300	-10.342000	25.988262	0.000231	20.804453
1636.433346	-3.007200	3.446700	-10.364000	26.005757	0.000229	20.825823
1637.434652	-3.020600	3.448000	-10.414000	25.935323	0.000231	20.808166
1638.441175	-2.990500	3.447400	-10.308000	25.872540	0.000230	20.822381
1639.438165	-3.001800	3.446800	-10.346000	25.852871	0.000230	20.815425
1640.437493	-3.019000	3.445000	-10.399000	25.893088	0.000229	20.821687
1641.445486	-2.997000	3.444700	-10.323000	25.913831	0.000230	20.810283
1642.441775	-2.987800	3.444800	-10.291000	25.921456	0.000228	20.818417
1643.439841	-2.988500	3.445600	-10.296000	25.876203	0.000228	20.828431
1644.443019	-3.001000	3.444900	-10.338000	25.870417	0.000228	20.810291
1645.442339	-3.012700	3.444900	-10.378000	25.837979	0.000227	20.812793
1646.436912	-3.010600	3.443800	-10.367000	25.846744	0.000226	20.823968
1647.435965	-3.006000	3.444600	-10.353000	25.933614	0.000227	20.820674
1648.441533	-3.010300	3.443200	-10.364000	25.962103	0.000227	20.800457
1649.442204	-3.008300	3.442700	-10.356000	25.939603	0.000227	20.830483
1650.443584	-3.000600	3.442600	-10.328000	25.874079	0.000226	20.819186
1651.442450	-3.003200	3.442400	-10.337000	25.916363	0.000227	20.816145
1652.441221	-3.005700	3.441800	-10.344000	25.931296	0.000225	20.812655
1653.442519	-2.989400	3.443400	-10.292000	25.961778	0.000225	20.820993
1654.446997	-3.010900	3.440800	-10.359000	26.007557	0.000225	20.826683
1655.441074	-3.001300	3.442200	-10.329000	26.023546	0.000225	20.836108
1656.440389	-2.990100	3.441400	-10.289000	25.946350	0.000223	20.831097
1657.446798	-3.039000	3.439100	-10.450000	25.939481	0.000225	20.845533
1658.444533	-3.019100	3.439600	-10.384000	25.894978	0.000223	20.820266
1659.445281	-2.996400	3.440700	-10.309000	25.913369	0.000224	20.811241
1660.445709	-2.983000	3.439900	-10.261000	25.954976	0.000224	20.844504
1661.447633	-2.989800	3.439200	-10.281000	26.007630	0.000224	20.823438
1662.447587	-2.990000	3.439300	-10.283000	26.015662	0.000225	20.840989
1663.447600	-2.998400	3.438900	-10.310000	26.000137	0.000223	20.815435
1664.445822	-3.013400	3.437900	-10.359000	25.992366	0.000223	20.845559
1665.443512	-3.019500	3.437900	-10.380000	25.969289	0.000220	20.814315
1666.443958	-2.987000	3.437400	-10.267000	25.977272	0.000223	20.848413
1667.444472	-3.021300	3.437300	-10.384000	25.966320	0.000222	20.816073
1668.448496	-2.974800	3.437800	-10.224000	25.952267	0.000221	20.832775
1669.449827	-2.995200	3.437600	-10.295000	25.922183	0.000221	20.841906
1670.452322	-2.993600	3.437600	-10.289000	25.929409	0.000222	20.834941
1671.448337	-2.984500	3.435800	-10.253000	25.951177	0.000223	20.835947
1672.448070	-3.010200	3.436900	-10.344000	25.917098	0.000221	20.841064
1673.451091	-3.036300	3.436300	-10.433000	25.982530	0.000219	20.837574
1674.445492	-3.020700	3.434800	-10.375000	25.944505	0.000221	20.856744
1675.448016	-2.993600	3.436100	-10.285000	25.982042	0.000218	20.844196
1676.450067	-2.978200	3.436700	-10.235000	26.045281	0.000217	20.856049
1677.450870	-2.994600	3.435700	-10.288000	26.040383	0.000221	20.832162
1678.450430	-3.004100	3.433400	-10.314000	25.989496	0.000219	20.819443
1679.452028	-2.999000	3.433500	-10.297000	25.956239	0.000218	20.834869
1680.453193	-2.988200	3.434300	-10.262000	25.904079	0.000217	20.849322
1681.448488	-2.991700	3.432000	-10.266000	25.874441	0.000216	20.847049
1682.451120	-3.004200	3.432900	-10.312000	25.885915	0.000216	20.862368
1683.455889	-2.976400	3.433200	-10.218000	25.925546	0.000217	20.851448
1684.450089	-3.001500	3.432500	-10.301000	25.896414	0.000215	20.850156
1685.453847	-3.023300	3.430800	-10.372000	25.929322	0.000215	20.855715
1686.454979	-2.983300	3.432200	-10.238000	25.894453	0.000214	20.866203
1687.453762	-2.989500	3.433200	-10.263000	25.893085	0.000214	20.839701
1688.453237	-3.000700	3.431500	-10.297000	25.896260	0.000212	20.869441
1689.452778	-3.000900	3.431900	-10.298000	25.861528	0.000215	20.862526
1690.452718	-3.003300	3.431500	-10.305000	25.847693	0.000214	20.845784
1691.453352	-2.996400	3.431000	-10.280000	25.911047	0.000213	20.858218
1692.458254	-3.007200	3.429400	-10.313000	25.944012	0.000214	20.848188
1693.454925	-3.012400	3.429500	-10.330000	25.942230	0.000213	20.848769
1694.455787	-2.999300	3.429100	-10.284000	25.886064	0.000213	20.854932
1695.454487	-3.010500	3.428000	-10.319000	25.907988	0.000212	20.866051
1696.454299	-2.997000	3.428600	-10.275000	25.910689	0.000212	20.839368
1697.455550	-2.986300	3.428600	-10.238000	25.924882	0.000211	20.862160
1698.456323	-2.993000	3.427900	-10.259000	25.988246	0.000213	20.840472
1699.454628	-3.015000	3.427800	-10.334000	26.007507	0.000211	20.851762
1700.455152	-3.001900	3.427000	-10.287000	25.982975	0.000212	20.879744
1701.457886	-2.987100	3.426100	-10.233000	25.984561	0.000211	20.867588
1702.455695	-2.984500	3.428600	-10.232000	25.983057	0.000213	20.844267
1703.459104	-3.015400	3.425300	-10.328000	25.991290	0.000211	20.867711
1704.455933	-2.987200	3.425800	-10.233000	25.988793	0.000211	20.863780
1705.456361	-3.003100	3.426100	-10.288000	25.964626	0.000209	20.865104
1706.455041	-2.996600	3.425600	-10.264000	25.975563	0.000210	20.863290
1707.462586	-3.016100	3.423400	-10.324000	25.977996	0.000212	20.841553
1708.452573	-3.000700	3.423900	-10.273000	25.999608	0.000212	20.840033
1709.458103	-2.988800	3.425300	-10.236000	26.019730	0.000213	20.856456
1710.461554	-2.990900	3.423700	-10.239000	26.044466	0.000210	20.845747
1711.456403	-3.006900	3.423800	-10.294000	26.019681	0.000211	20.860200
1712.457592	-2.999200	3.423200	-10.267000	25.963968	0.000209	20.845003
1713.457736	-2.996500	3.423400	-10.258000	25.967231	0.000210	20.844963
1714.459911	-3.006900	3.422000	-10.289000	25.974253	0.000210	20.838741
1715.455335	-2.978700	3.423700	-10.196000	25.986776	0.000209	20.852745
1716.460974	-3.010500	3.421700	-10.300000	26.024255	0.000212	20.851044
1717.461478	-2.992900	3.421100	-10.237000	26.054092	0.000209	20.848781
1718.462547	-3.004500	3.420700	-10.277000	26.033108	0.000208	20.858043
1719.460222	-2.979500	3.420600	-10.191000	25.971576	0.000206	20.829889
1720.461546	-2.984500	3.421900	-10.211000	25.986435	0.000207	20.850980
1721.462909	-3.005200	3.420000	-10.277000	26.022929	0.000205	20.834067
1722.460554	-2.994000	3.418900	-10.235000	26.081170	0.000208	20.856547
1723.460227	-3.005200	3.418000	-10.270000	26.046257	0.000205	20.850392
1724.460815	-3.010100	3.419500	-10.292000	26.011465	0.000206	20.827764
1725.461195	-2.978900	3.419900	-10.187000	26.005102	0.000203	20.838915
1726.464286	-2.985000	3.418900	-10.204000	25.958915	0.000206	20.823807
1727.461941	-3.001300	3.418600	-10.259000	25.919434	0.000203	20.834402
1728.464394	-2.974300	3.418400	-10.167000	25.918368	0.000204	20.835702
1729.461140	-2.990700	3.417700	-10.221000	25.950983	0.000204	20.840019
1730.464788	-3.006900	3.417000	-10.274000	25.988894	0.000203	20.830217
1731.460651	-2.994200	3.416300	-10.229000	26.031368	0.000204	20.820735
1732.461018	-3.004200	3.417000	-10.265000	26.081701	0.000203	20.827684
1733.466661	-2.989600	3.416200	-10.212000	26.104352	0.000204	20.808718
1734.461265	-2.996700	3.416400	-10.237000	26.110536	0.000203	20.841483
1735.460814	-3.011000	3.415700	-10.284000	26.087096	0.000201	20.819354
1736.465768	-3.022400	3.415500	-10.322000	26.087592	0.000200	20.837396
1737.460956	-3.013300	3.414300	-10.288000	26.079033	0.000200	20.819788
1738.463851	-2.983900	3.415100	-10.190000	26.038531	0.000200	20.828879
1739.466573	-2.984900	3.414900	-10.192000	26.080742	0.000202	20.819608
1740.466594	-2.970000	3.414100	-10.139000	26.052761	0.000200	20.809038
1741.466194	-3.000300	3.413300	-10.240000	26.056162	0.000200	20.826680
1742.465878	-2.997200	3.413700	-10.231000	26.065658	0.000199	20.800659
1743.466444	-3.006400	3.411800	-10.256000	26.097276	0.000198	20.808246
1744.466633	-3.001400	3.412200	-10.240000	26.086431	0.000201	20.838600
1745.467661	-2.971800	3.413400	-10.143000	26.142610	0.000200	20.815391
1746.466800	-2.997100	3.412100	-10.225000	26.118723	0.000197	20.826951
1747.474292	-2.995600	3.411900	-10.220000	26.060305	0.000195	20.799548
1748.465423	-2.982600	3.412100	-10.175000	26.052234	0.000196	20.799973
1749.466383	-2.993100	3.411800	-10.210000	26.035619	0.000197	20.819790
1750.476922	-3.002000	3.411200	-10.239000	26.044594	0.000197	20.794194
1751.471964	-3.005500	3.411000	-10.251000	26.058255	0.000195	20.808869
1752.472601	-3.005800	3.410200	-10.250000	26.075741	0.000196	20.798462
1753.466403	-3.010200	3.409700	-10.263000	26.143872	0.000195	20.790581
1754.470662	-3.015100	3.409100	-10.278000	26.193166	0.000198	20.827785
1755.469017	-3.004600	3.409900	-10.245000	26.156597	0.000198	20.789617
1756.472184	-2.982800	3.409400	-10.168000	26.099996	0.000196	20.789642
1757.467918	-2.988300	3.409300	-10.187000	26.088801	0.000195	20.784557
1758.469318	-2.991700	3.408200	-10.196000	26.074741	0.000196	20.787026
1759.474405	-3.026200	3.407400	-10.310000	26.025719	0.000194	20.787558
1760.472293	-2.993100	3.407800	-10.198000	26.045564	0.000192	20.792324
1761.473601	-3.002800	3.407000	-10.230000	26.084197	0.000194	20.788940
1762.476693	-3.016300	3.406000	-10.273000	26.087671	0.000195	20.786741
1763.475897	-2.997400	3.407300	-10.212000	26.109411	0.000193	20.788671
1764.470961	-2.994200	3.405000	-10.194000	26.092578	0.000191	20.788352
1765.477828	-2.973100	3.406000	-10.126000	26.068876	0.000192	20.805315
1766.472569	-3.002600	3.405700	-10.225000	26.105066	0.000192	20.775296
1767.486030	-2.986800	3.405500	-10.171000	26.152556	0.000193	20.767538
1768.474282	-3.014600	3.405000	-10.264000	26.148139	0.000191	20.790601
1769.474854	-2.974700	3.406000	-10.130000	26.091098	0.000190	20.786391
1770.473871	-2.995100	3.405000	-10.198000	26.058292	0.000192	20.768602
1771.478535	-2.987300	3.405400	-10.172000	26.085410	0.000192	20.776409
1772.479125	-3.008400	3.403400	-10.238000	26.001831	0.000188	20.766877
1773.472702	-3.000400	3.403000	-10.210000	25.973563	0.000189	20.785418
1774.476394	-3.004100	3.403600	-10.224000	25.967038	0.000189	20.786923
1775.474891	-3.009300	3.403000	-10.240000	25.951122	0.000188	20.774726
1776.477656	-2.992600	3.403000	-10.183000	25.977747	0.000188	20.759749
1777.477752	-2.998000	3.403200	-10.202000	26.019579	0.000188	20.775699
1778.479194	-3.030500	3.401400	-10.307000	26.012475	0.000188	20.760975
1779.477220	-2.996400	3.402400	-10.194000	26.046609	0.000187	20.790529
1780.476981	-3.018000	3.399700	-10.258000	26.053737	0.000188	20.773034
1781.479181	-3.000400	3.401600	-10.205000	26.070010	0.000189	20.760461
1782.478598	-2.989800	3.400800	-10.167000	26.075103	0.000187	20.775062
1783.477160	-2.979400	3.400900	-10.132000	26.090749	0.000186	20.766601
1784.480018	-3.008700	3.399800	-10.228000	26.115891	0.000186	20.759619
1785.480774	-2.977800	3.401000	-10.126000	26.136784	0.000186	20.760225
1786.477696	-2.991400	3.400500	-10.171000	26.130869	0.000186	20.768506
1787.482000	-3.015800	3.399500	-10.252000	26.115720	0.000183	20.789794
1788.480967	-3.010800	3.399200	-10.234000	26.112392	0.000184	20.773174
1789.484255	-3.005200	3.399500	-10.215000	26.116046	0.000184	20.775897
1790.482491	-3.029400	3.398400	-10.294000	26.071915	0.000184	20.780868
1791.480699	-2.988700	3.397900	-10.154000	26.104485	0.000184	20.742469
1792.481105	-3.000600	3.398200	-10.195000	26.124752	0.000187	20.769472
1793.480604	-2.996000	3.397700	-10.179000	26.194744	0.000185	20.769154
1794.484454	-2.991000	3.396700	-10.158000	26.183264	0.000183	20.765679
1795.485002	-2.995000	3.397100	-10.174000	26.190254	0.000182	20.759900
1796.485523	-3.001700	3.395600	-10.191000	26.213944	0.000182	20.761894
1797.488173	-2.990900	3.396900	-10.158000	26.222266	0.000183	20.763145
1798.489402	-3.019800	3.394900	-10.250000	26.187699	0.000181	20.763497
1799.486241	-2.995600	3.395600	-10.170000	26.127300	0.000180	20.760178
1800.481494	-3.014400	3.395600	-10.235000	26.128773	0.000181	20.759761
1801.491013	-2.980700	3.394300	-10.115000	26.151472	0.000181	20.758862
1802.484722	-2.980700	3.395400	-10.119000	26.183893	0.000180	20.759672
1803.490617	-3.012700	3.393200	-10.222000	26.209373	0.000179	20.751137
1804.486958	-3.010800	3.393700	-10.217000	26.179321	0.000179	20.738007
1805.489215	-2.996800	3.393500	-10.169000	26.161756	0.000180	20.748332
1806.487498	-3.003600	3.393400	-10.192000	26.163311	0.000179	20.752740
1807.488961	-3.007500	3.391100	-10.198000	26.165588	0.000179	20.733691
1808.484169	-2.995400	3.392100	-10.160000	26.204509	0.000179	20.734394
1809.484263	-2.989500	3.391000	-10.137000	26.203443	0.000180	20.749445
1810.488740	-3.005500	3.391000	-10.191000	26.186879	0.000180	20.747500
1811.487363	-2.975600	3.392700	-10.095000	26.166410	0.000179	20.757751
1812.487830	-3.012400	3.390200	-10.212000	26.131117	0.000178	20.737934
1813.491477	-3.017100	3.390100	-10.228000	26.139659	0.000175	20.747466
1814.491006	-2.976100	3.392500	-10.095000	26.106350	0.000177	20.743395
1815.493189	-2.976700	3.390600	-10.092000	26.118482	0.000176	20.737566
1816.492409	-2.988700	3.390400	-10.132000	26.143264	0.000177	20.757252
1817.497101	-2.965900	3.391500	-10.058000	26.100484	0.000174	20.732284
1818.489717	-2.972700	3.390500	-10.079000	26.137617	0.000176	20.734982
1819.494472	-3.004800	3.389500	-10.183000	26.190710	0.000178	20.757987
1820.493919	-2.997500	3.389400	-10.159000	26.180931	0.000176	20.746264
1821.492240	-2.965700	3.390000	-10.053000	26.176213	0.000174	20.714968
1822.490582	-3.002100	3.387400	-10.168000	26.174423	0.000173	20.744465
1823.490652	-2.993000	3.388300	-10.141000	26.151374	0.000175	20.760187
1824.494789	-2.982300	3.388400	-10.104000	26.138609	0.000175	20.742618
1825.495093	-2.989700	3.386800	-10.123000	26.143450	0.000173	20.733731
1826.497575	-2.996500	3.386400	-10.147000	26.152726	0.000174	20.734042
1827.490468	-2.980600	3.387700	-10.096000	26.200676	0.000174	20.747613
1828.497853	-3.003000	3.386900	-10.170000	26.222747	0.000173	20.730436
1829.501112	-2.964800	3.386700	-10.040000	26.206972	0.000175	20.720748
1830.491852	-2.989800	3.386100	-10.122000	26.249535	0.000173	20.731278
1831.492234	-2.991300	3.385100	-10.125000	26.272631	0.000174	20.739314
1832.494730	-3.029400	3.384300	-10.251000	26.251456	0.000173	20.746010
1833.492278	-3.008900	3.385100	-10.184000	26.150894	0.000171	20.733150
1834.496147	-3.016200	3.384900	-10.208000	26.161177	0.000170	20.728310
1835.496047	-3.006200	3.384200	-10.173000	26.174877	0.000172	20.732119
1836.493567	-3.013200	3.383200	-10.193000	26.202026	0.000170	20.736166
1837.495333	-2.989200	3.385200	-10.118000	26.182899	0.000171	20.719790
1838.494472	-2.993600	3.382300	-10.125000	26.126372	0.000169	20.739804
1839.494496	-3.003900	3.382400	-10.160000	26.105405	0.000168	20.764730
1840.494701	-3.012300	3.382400	-10.188000	26.064675	0.000169	20.738504
1841.494229	-3.008600	3.382200	-10.175000	26.066480	0.000167	20.729412
1842.493902	-3.004500	3.382900	-10.163000	26.119748	0.000169	20.725561
1843.493652	-2.974300	3.382800	-10.060000	26.126460	0.000169	20.736574
1844.495694	-3.024600	3.381300	-10.226000	26.211306	0.000166	20.736957
1845.493804	-2.999800	3.380100	-10.139000	26.216049	0.000166	20.718488
1846.493714	-2.992400	3.381300	-10.117000	26.204782	0.000166	20.749842
1847.500087	-2.991300	3.380800	-10.112000	26.192553	0.000168	20.730915
1848.494342	-2.995400	3.380400	-10.125000	26.203260	0.000164	20.726026
1849.496068	-3.007200	3.380500	-10.166000	26.238396	0.000165	20.735256
1850.495961	-2.985100	3.379500	-10.088000	26.266429	0.000165	20.712691
1851.499050	-3.019400	3.377800	-10.198000	26.307428	0.000164	20.729713
1852.495931	-3.008900	3.379500	-10.168000	26.254307	0.000164	20.728486
1853.498673	-3.006900	3.379800	-10.161000	26.257358	0.000163	20.741036
1854.499789	-2.970800	3.378500	-10.035000	26.213550	0.000163	20.716926
1855.499349	-2.982700	3.377200	-10.072000	26.190055	0.000162	20.721766
1856.496553	-3.009400	3.376200	-10.160000	26.117280	0.000161	20.722607
1857.498968	-2.978300	3.377100	-10.057000	26.105166	0.000162	20.731772
1858.496715	-2.999100	3.376600	-10.126000	26.162239	0.000162	20.740283
1859.501992	-3.010700	3.376200	-10.164000	26.148701	0.000162	20.736637
1860.503182	-3.015600	3.376600	-10.181000	26.177778	0.000162	20.722231
1861.504164	-3.018300	3.375700	-10.187000	26.179494	0.000161	20.743398
1862.504209	-2.999300	3.376000	-10.125000	26.234945	0.000161	20.726098
1863.503193	-2.997800	3.375400	-10.118000	26.222921	0.000160	20.726817
1864.504589	-2.981400	3.375100	-10.061000	26.190290	0.000160	20.737176
1865.512658	-2.973200	3.375400	-10.035000	26.221928	0.000160	20.729613
1866.508107	-2.994500	3.375600	-10.107000	26.260317	0.000159	20.730733
1867.502562	-2.992800	3.374900	-10.100000	26.246805	0.000160	20.737543
1868.506777	-3.008700	3.373200	-10.149000	26.282907	0.000159	20.747271
1869.504592	-3.007800	3.374400	-10.149000	26.341615	0.000160	20.727087
1870.512885	-2.987600	3.373200	-10.077000	26.365131	0.000158	20.729858
1871.507827	-3.004700	3.372900	-10.134000	26.387499	0.000159	20.713458
1872.502761	-3.008200	3.372600	-10.144000	26.395486	0.000160	20.721486
1873.506181	-3.019400	3.372200	-10.181000	26.358712	0.000159	20.707759
1874.509783	-3.002800	3.372200	-10.125000	26.342078	0.000158	20.723284
1875.508758	-2.991000	3.371600	-10.084000	26.287373	0.000156	20.691538
1876.507710	-2.995800	3.370700	-10.097000	26.257795	0.000159	20.707808
1877.515331	-2.985300	3.370400	-10.060000	26.247341	0.000155	20.731918
1878.505238	-2.995100	3.370300	-10.093000	26.220706	0.000156	20.707046
1879.509659	-2.997400	3.370800	-10.103000	26.244233	0.000154	20.703662
1880.505253	-2.967900	3.370800	-10.004000	26.212294	0.000154	20.722777
1881.507154	-2.993100	3.369400	-10.084000	26.197146	0.000154	20.703760
1882.512030	-2.998900	3.369900	-10.105000	26.224547	0.000155	20.718019
1883.512330	-2.977800	3.371400	-10.037000	26.220121	0.000152	20.702191
1884.515805	-2.998000	3.370200	-10.103000	26.232535	0.000155	20.732212
1885.513401	-3.030600	3.367900	-10.206000	26.245576	0.000152	20.697899
1886.515362	-3.006000	3.369700	-10.128000	26.251213	0.000153	20.718738
1887.514264	-2.998100	3.368000	-10.097000	26.242590	0.000154	20.725720
1888.514539	-3.004500	3.366900	-10.115000	26.276399	0.000152	20.710383
1889.510662	-3.018300	3.365800	-10.159000	26.322409	0.000153	20.715844
1890.516666	-3.007400	3.367700	-10.127000	26.333439	0.000151	20.710334
1891.513988	-2.976500	3.368000	-10.025000	26.295695	0.000152	20.698005
1892.515627	-2.986400	3.365700	-10.050000	26.288691	0.000151	20.726056
1893.512184	-3.004100	3.366400	-10.112000	26.346284	0.000152	20.720399
1894.515062	-2.992800	3.365800	-10.072000	26.275936	0.000152	20.708021
1895.511877	-3.003100	3.365200	-10.105000	26.258317	0.000150	20.711178
1896.516632	-2.956900	3.365600	-9.950400	26.223189	0.000149	20.691522
1897.518846	-2.998300	3.364300	-10.086000	26.232373	0.000147	20.714504
1898.513146	-3.007500	3.363900	-10.116000	26.307426	0.000149	20.715960
1899.516388	-3.016300	3.363400	-10.144000	26.265784	0.000151	20.701138
1900.516513	-3.032900	3.363800	-10.202000	26.292775	0.000149	20.712142
1901.517172	-2.996400	3.363700	-10.078000	26.264320	0.000148	20.700140
1902.517546	-2.997600	3.363300	-10.081000	26.224905	0.000147	20.693722
1903.524137	-2.988200	3.362400	-10.047000	26.261514	0.000146	20.693052
1904.516898	-3.015000	3.363100	-10.139000	26.280663	0.000147	20.697598
1905.516126	-3.017400	3.361400	-10.142000	26.345626	0.000148	20.711202
1906.514148	-2.997400	3.362200	-10.077000	26.390746	0.000148	20.712453
1907.520917	-3.002100	3.361200	-10.089000	26.416066	0.000146	20.713246
1908.523894	-3.006200	3.361600	-10.105000	26.425404	0.000145	20.719312
1909.515211	-3.014500	3.359600	-10.126000	26.362830	0.000146	20.713319
1910.524699	-2.989000	3.361600	-10.047000	26.276441	0.000146	20.719909
1911.519865	-3.005700	3.359900	-10.098000	26.280216	0.000144	20.709477
1912.521250	-2.982000	3.360500	-10.020000	26.271479	0.000145	20.708284
1913.520925	-3.005400	3.359500	-10.096000	26.240436	0.000144	20.731617
1914.524549	-2.987700	3.359300	-10.036000	26.239916	0.000144	20.696952
1915.523662	-2.992200	3.359700	-10.051000	26.277735	0.000142	20.723106
1916.522849	-2.992200	3.357800	-10.047000	26.345431	0.000142	20.708161
1917.519194	-3.000300	3.358700	-10.076000	26.424290	0.000141	20.693061
1918.524854	-3.002200	3.357300	-10.079000	26.404729	0.000141	20.710859
1919.524305	-2.993700	3.358500	-10.054000	26.396627	0.000144	20.707932
1920.519819	-2.979900	3.357400	-10.003000	26.418921	0.000143	20.713745
1921.527562	-3.012800	3.355900	-10.110000	26.441249	0.000143	20.692562
1922.529909	-3.016500	3.356500	-10.124000	26.449886	0.000139	20.695080
1923.522889	-2.992200	3.355900	-10.041000	26.410381	0.000141	20.710851
1924.523788	-3.002600	3.355400	-10.074000	26.419840	0.000141	20.702340
1925.523590	-3.000800	3.356400	-10.071000	26.361219	0.000137	20.691785
1926.522478	-2.971000	3.356700	-9.972100	26.308248	0.000141	20.703034
1927.523232	-2.990400	3.356200	-10.036000	26.284267	0.000141	20.712600
1928.520782	-2.999700	3.355600	-10.065000	26.272667	0.000139	20.715167
1929.522532	-2.997600	3.355900	-10.059000	26.308467	0.000138	20.709419
1930.524347	-2.990000	3.354200	-10.028000	26.311852	0.000138	20.699543
1931.521893	-2.994900	3.354800	-10.047000	26.331984	0.000137	20.684213
1932.525001	-2.995200	3.354200	-10.046000	26.343364	0.000135	20.704187
1933.526986	-3.005700	3.352700	-10.076000	26.389477	0.000136	20.715445
1934.527457	-3.020700	3.351800	-10.123000	26.444901	0.000137	20.709984
1935.527626	-2.993600	3.354200	-10.040000	26.435588	0.000137	20.707262
1936.526628	-2.993500	3.352400	-10.034000	26.436035	0.000137	20.715773
1937.526795	-3.007000	3.352400	-10.080000	26.482144	0.000135	20.695734
1938.527987	-3.009300	3.351500	-10.085000	26.518792	0.000136	20.712184
1939.522792	-2.987900	3.353000	-10.018000	26.500240	0.000135	20.703493
1940.522707	-2.999000	3.350700	-10.048000	26.493742	0.000137	20.719722
1941.530475	-3.003600	3.351000	-10.064000	26.491131	0.000137	20.710459
1942.527271	-2.990500	3.350800	-10.020000	26.435490	0.000134	20.718070
1943.526319	-3.010400	3.349100	-10.080000	26.425462	0.000135	20.705145
1944.532004	-2.988100	3.348700	-10.005000	26.443470	0.000136	20.718504
1945.528077	-3.026600	3.347900	-10.131000	26.452896	0.000136	20.712805
1946.527871	-3.011500	3.348800	-10.084000	26.479688	0.000132	20.698007
1947.527265	-3.003300	3.348700	-10.056000	26.525274	0.000133	20.707320
1948.525820	-3.049300	3.346600	-10.203000	26.490993	0.000132	20.700837
1949.526814	-2.981200	3.347400	-9.978600	26.480217	0.000131	20.699013
1950.526515	-3.000200	3.346600	-10.039000	26.479191	0.000130	20.712208
1951.525666	-3.000700	3.347300	-10.043000	26.496100	0.000131	20.707867
1952.526495	-2.987700	3.346000	-9.996200	26.519988	0.000131	20.714809
1953.531292	-2.997000	3.347600	-10.032000	26.544224	0.000131	20.702660
1954.528927	-2.987500	3.345900	-9.995100	26.531780	0.000133	20.718128
1955.528402	-2.985300	3.346800	-9.990800	26.528999	0.000131	20.737618
1956.529904	-2.979500	3.346100	-9.969200	26.579373	0.000131	20.718553
1957.532750	-3.014100	3.344400	-10.079000	26.496597	0.000129	20.715005
1958.527137	-3.021900	3.344300	-10.105000	26.422144	0.000129	20.714138
1959.528744	-2.987900	3.345500	-9.995000	26.420004	0.000129	20.716730
1960.527865	-3.018500	3.344300	-10.094000	26.437760	0.000127	20.720352
1961.533485	-3.022900	3.343400	-10.105000	26.424128	0.000127	20.708546
1962.531150	-3.021100	3.343300	-10.099000	26.419426	0.000127	20.715675
1963.530681	-3.017000	3.342900	-10.085000	26.495181	0.000127	20.715005
1964.532324	-3.000400	3.343200	-10.031000	26.537815	0.000126	20.720401
1965.529792	-3.008200	3.342100	-10.052000	26.512538	0.000125	20.720597
1966.531906	-2.969500	3.343300	-9.927300	26.490659	0.000127	20.698604
1967.535847	-2.976900	3.342900	-9.951100	26.518491	0.000125	20.731797
1968.528211	-2.984300	3.342100	-9.972300	26.553990	0.000127	20.703468
1969.538068	-2.993100	3.341700	-10.001000	26.570402	0.000128	20.720915
1970.528214	-2.989000	3.342100	-9.989300	26.603070	0.000124	20.729573
1971.531974	-2.990600	3.341200	-9.990800	26.584398	0.000125	20.743994
1972.531793	-2.988500	3.341100	-9.983700	26.570905	0.000126	20.725214
1973.531992	-3.008200	3.340100	-10.047000	26.522101	0.000124	20.724046
1974.532269	-2.994200	3.340500	-10.002000	26.464404	0.000124	20.743340
1975.535542	-3.002500	3.339900	-10.027000	26.396374	0.000124	20.739923
1976.532427	-3.002300	3.340700	-10.029000	26.355093	0.000124	20.733046
1977.534102	-3.010800	3.340200	-10.056000	26.414594	0.000121	20.721724
1978.529321	-2.985900	3.340400	-9.972900	26.449080	0.000122	20.734575
1979.529450	-3.008400	3.338000	-10.041000	26.401172	0.000122	20.730045
1980.532102	-3.017200	3.338000	-10.071000	26.388483	0.000121	20.719662
1981.529671	-3.037300	3.337700	-10.137000	26.395982	0.000121	20.712501
1982.532635	-2.995600	3.338300	-9.999300	26.419254	0.000122	20.723563
1983.530330	-2.993700	3.337200	-9.989900	26.438791	0.000120	20.736561
1984.534957	-2.993300	3.336300	-9.985700	26.469031	0.000118	20.738507
1985.533611	-3.001900	3.336200	-10.013000	26.501181	0.000120	20.726726
1986.538816	-3.020100	3.335800	-10.073000	26.419571	0.000120	20.730520
1987.534670	-3.001400	3.336300	-10.013000	26.439457	0.000119	20.724429
1988.536077	-2.971200	3.336800	-9.913500	26.445118	0.000120	20.720635
1989.535747	-2.999300	3.334400	-9.999500	26.537707	0.000117	20.729302
1990.535352	-2.998600	3.335400	-10.001000	26.607484	0.000119	20.734484
1991.535763	-3.002900	3.335100	-10.015000	26.627659	0.000118	20.731533
1992.540608	-2.993100	3.333900	-9.978200	26.625627	0.000117	20.715738
1993.538280	-3.017900	3.333600	-10.060000	26.572075	0.000117	20.732554
1994.537344	-3.013600	3.333600	-10.045000	26.527686	0.000117	20.718754
1995.541418	-2.998300	3.332500	-9.991400	26.513665	0.000119	20.744017
1996.537994	-2.992100	3.332400	-9.970200	26.517056	0.000118	20.744106
1997.535351	-2.990900	3.332700	-9.966600	26.548043	0.000118	20.742537
1998.542421	-3.018300	3.331200	-10.054000	26.584908	0.000115	20.733127
1999.536169	-2.996600	3.332000	-9.982800	26.585371	0.000117	20.728376
2000.536798	-2.998000	3.331200	-9.985500	26.590714	0.000116	20.742757
2001.538278	-2.976700	3.331400	-9.915900	26.577702	0.000115	20.742479
2002.537404	-2.987100	3.332100	-9.952100	26.605726	0.000114	20.770651
2003.540109	-2.993600	3.331000	-9.970900	26.673003	0.000115	20.751039
2004.540370	-3.018400	3.330400	-10.052000	26.624812	0.000115	20.733412
2005.541102	-3.015200	3.328100	-10.034000	26.575611	0.000114	20.755077
2006.541335	-2.985100	3.330500	-9.940900	26.486069	0.000112	20.740934
2007.540447	-2.999100	3.329400	-9.983800	26.503912	0.000114	20.728049
2008.538072	-2.998000	3.328600	-9.978300	26.560810	0.000113	20.742094
2009.537148	-3.009200	3.329100	-10.017000	26.553579	0.000113	20.727713
2010.543143	-2.998500	3.328100	-9.978200	26.542185	0.000115	20.726691
2011.541209	-2.999300	3.329000	-9.984000	26.574854	0.000112	20.735349
2012.542069	-3.013900	3.326800	-10.026000	26.590639	0.000112	20.740311
2013.542365	-3.013400	3.327700	-10.027000	26.618264	0.000110	20.750064
2014.543807	-2.993100	3.327600	-9.958700	26.645670	0.000111	20.733991
2015.544251	-3.006600	3.326200	-9.998900	26.636041	0.000110	20.738537
2016.540810	-3.031800	3.326000	-10.083000	26.627853	0.000108	20.744530
2017.544290	-2.983500	3.326600	-9.923700	26.621697	0.000112	20.753040
2018.545469	-3.016100	3.325300	-10.028000	26.630942	0.000109	20.741471
2019.551876	-3.009500	3.324100	-10.003000	26.656949	0.000108	20.746279
2020.544561	-3.011600	3.324000	-10.010000	26.674571	0.000108	20.745502
2021.547232	-3.004300	3.324000	-9.985100	26.707284	0.000108	20.766537
2022.544584	-2.997700	3.324200	-9.963400	26.663300	0.000106	20.748396
2023.545225	-3.014400	3.323500	-10.018000	26.633707	0.000109	20.758002
2024.555356	-3.009500	3.322100	-9.996500	26.670293	0.000108	20.741676
2025.547038	-3.002800	3.323700	-9.979300	26.645198	0.000106	20.736836
2026.548514	-3.019200	3.323000	-10.031000	26.654436	0.000108	20.762245
2027.548872	-2.997800	3.323400	-9.961300	26.678929	0.000108	20.754151
2028.547429	-3.016800	3.320900	-10.017000	26.687890	0.000107	20.748461
2029.544676	-3.020000	3.321000	-10.029000	26.699900	0.000104	20.763381
2030.549346	-2.994500	3.322200	-9.946800	26.707495	0.000105	20.752050
2031.547947	-3.006600	3.322700	-9.988700	26.646954	0.000104	20.769897
2032.543513	-2.980800	3.321800	-9.900800	26.594176	0.000104	20.759040
2033.549226	-2.981400	3.322200	-9.903300	26.585686	0.000103	20.763307
2034.548584	-3.001600	3.320500	-9.966300	26.649800	0.000104	20.742411
2035.543769	-2.990300	3.319400	-9.925300	26.662087	0.000105	20.779894
2036.549502	-2.997400	3.320500	-9.951300	26.653280	0.000103	20.760609
2037.546122	-2.988400	3.319100	-9.917500	26.703436	0.000104	20.756030
2038.545987	-3.004800	3.318700	-9.971600	26.694825	0.000104	20.778194
2039.545806	-3.009200	3.317900	-9.983400	26.723205	0.000102	20.767370
2040.550568	-2.998500	3.318000	-9.948700	26.726993	0.000101	20.767386
2041.550036	-3.004300	3.318700	-9.969200	26.749379	0.000103	20.774245
2042.549011	-2.994200	3.317700	-9.932700	26.711421	0.000101	20.778283
2043.546993	-2.980100	3.318200	-9.887700	26.753127	9.984882E-5	20.778962
2044.545747	-2.976300	3.316900	-9.871100	26.774121	9.922178E-5	20.773991
2045.553293	-2.985700	3.317300	-9.903100	26.768495	0.000101	20.768334
2046.550579	-3.006200	3.317300	-9.971000	26.804133	0.000100	20.763862
2047.549488	-2.964400	3.316100	-9.829500	26.759827	9.783567E-5	20.773844
2048.550251	-3.004900	3.315500	-9.962200	26.757387	9.899076E-5	20.769494
2049.548345	-3.005800	3.315300	-9.963200	26.712103	9.935378E-5	20.770908
2050.556511	-2.996400	3.315000	-9.932300	26.684879	9.836371E-5	20.765349
2051.549095	-3.001000	3.315800	-9.949200	26.709094	9.882575E-5	20.794910
2052.548406	-2.993400	3.314500	-9.920700	26.769022	9.621856E-5	20.773132
2053.553254	-2.996600	3.314900	-9.931700	26.815458	9.648258E-5	20.772878
2054.552705	-2.995600	3.313200	-9.923300	26.814165	9.582253E-5	20.773949
2055.553137	-2.998900	3.313500	-9.936000	26.790455	9.677960E-5	20.782827
2056.557143	-3.005400	3.313000	-9.955900	26.795691	9.813270E-5	20.770548
2057.555038	-2.979400	3.313500	-9.870800	26.795569	9.427141E-5	20.766158
2058.553395	-3.012000	3.311400	-9.973000	26.833239	9.516248E-5	20.773212
2059.554314	-3.010400	3.311400	-9.968100	26.810189	9.499747E-5	20.792711
2060.551847	-3.003500	3.310200	-9.941400	26.741847	9.354536E-5	20.782794
2061.555476	-2.976800	3.311700	-9.857500	26.776502	9.400739E-5	20.798670
2062.553254	-2.976000	3.312400	-9.856700	26.754686	9.420541E-5	20.783849
2063.556238	-3.019900	3.311100	-9.998500	26.806456	9.453543E-5	20.794173
2064.556955	-3.008500	3.310300	-9.957500	26.801488	9.364437E-5	20.767841
2065.559525	-3.003200	3.310300	-9.940600	26.775656	9.149921E-5	20.778379
2066.559786	-3.018600	3.309600	-9.989400	26.787942	9.308333E-5	20.795473
2067.559331	-2.988700	3.310300	-9.892300	26.802455	9.189524E-5	20.801531
2068.563229	-2.995900	3.308800	-9.911900	26.778632	9.067415E-5	20.789432
2069.557265	-2.996800	3.308000	-9.912400	26.792804	9.017911E-5	20.784241
2070.556676	-3.001200	3.307900	-9.926600	26.819408	9.242328E-5	20.790127
2071.556940	-3.011700	3.307200	-9.959500	26.850288	8.905703E-5	20.783718
2072.556336	-3.016400	3.307300	-9.975700	26.804415	8.998110E-5	20.781216
2073.560393	-2.988100	3.306800	-9.879300	26.801162	8.991510E-5	20.777945
2074.555386	-2.998700	3.307100	-9.916300	26.789990	8.922204E-5	20.778567
2075.556314	-3.007200	3.306800	-9.943000	26.756287	9.044313E-5	20.792571
2076.561585	-3.003500	3.306400	-9.929800	26.789592	8.991510E-5	20.805193
2077.560278	-2.992400	3.306700	-9.893900	26.802748	8.971708E-5	20.781436
2078.559526	-2.981600	3.306000	-9.856300	26.826823	8.859500E-5	20.793314
2079.565432	-3.007300	3.305400	-9.939200	26.853288	8.879301E-5	20.812338
2080.564407	-3.001000	3.306000	-9.920600	26.850426	8.965108E-5	20.814676
2081.565993	-2.964800	3.304300	-9.795800	26.829677	8.727490E-5	20.800925
2082.564022	-2.999100	3.304900	-9.910900	26.838417	8.691188E-5	20.799282
2083.559829	-2.975000	3.303800	-9.828100	26.904061	8.691188E-5	20.795113
2084.565141	-2.979100	3.303600	-9.841300	26.925329	8.661485E-5	20.815076
2085.559759	-3.013700	3.302900	-9.953500	26.960873	8.644984E-5	20.784911
2086.565652	-2.995300	3.303500	-9.894100	26.958734	8.578979E-5	20.781338
2087.566911	-2.983900	3.303000	-9.854800	26.975359	8.526176E-5	20.800427
2088.566874	-3.010000	3.302600	-9.940400	26.904931	8.298459E-5	20.809738
2089.567729	-2.992600	3.302500	-9.882200	26.870426	8.463471E-5	20.809656
2090.576625	-2.997200	3.302200	-9.896500	26.859467	8.351263E-5	20.818551
2091.565973	-2.998900	3.301300	-9.898900	26.893687	8.512975E-5	20.817872
2092.571870	-2.997800	3.302400	-9.898800	26.828709	8.347963E-5	20.793314
2093.572846	-2.998000	3.300900	-9.895700	26.813521	8.182950E-5	20.806019
2094.568577	-2.984200	3.300300	-9.847500	26.792300	8.390866E-5	20.792268
2095.571105	-3.001100	3.299100	-9.900600	26.895671	8.298459E-5	20.809910
2096.569351	-2.983900	3.299900	-9.845300	26.978571	8.367764E-5	20.786587
2097.572516	-2.994400	3.299600	-9.879100	27.024282	8.077343E-5	20.809322
2098.571789	-3.004600	3.297200	-9.905400	27.030436	8.140047E-5	20.796070
2099.569053	-2.995200	3.298200	-9.877400	26.993285	8.272057E-5	20.817979
2100.569089	-3.006300	3.297100	-9.911700	26.974246	8.031139E-5	20.820644
2101.570596	-2.985100	3.297700	-9.843500	26.948728	8.334762E-5	20.799725
2102.571565	-3.015700	3.298000	-9.944900	26.929119	8.100444E-5	20.822206
2103.570542	-2.983600	3.298100	-9.839400	26.956841	8.229154E-5	20.833487
2104.576252	-2.976700	3.297200	-9.813600	26.981108	8.110345E-5	20.801466
2105.576210	-3.010900	3.296200	-9.923100	26.962232	8.041040E-5	20.819468
2106.571673	-2.992800	3.297100	-9.866700	26.978743	8.047641E-5	20.802407
2107.571377	-3.023000	3.295800	-9.961100	27.012056	8.120246E-5	20.806510
2108.577261	-3.009600	3.296500	-9.920000	26.999481	7.889229E-5	20.819468
2109.571148	-3.011500	3.296300	-9.925300	27.037851	7.918931E-5	20.835295
2110.569545	-3.002200	3.295500	-9.892600	27.032786	7.902430E-5	20.830676
2111.570080	-3.011600	3.295400	-9.923300	26.991620	7.747319E-5	20.802554
2112.575048	-2.994700	3.295300	-9.867600	27.035624	7.942033E-5	20.824995
2113.572619	-3.009700	3.293200	-9.910900	27.068229	7.912331E-5	20.817482
2114.575160	-3.009000	3.293200	-9.908400	27.082723	7.879328E-5	20.814040
2115.576924	-2.999800	3.293000	-9.878100	27.069221	7.579006E-5	20.818005
2116.575211	-3.010000	3.292700	-9.909600	27.050224	7.826524E-5	20.822134
2117.571119	-3.016000	3.292100	-9.928100	27.079073	7.701115E-5	20.826491
2118.569462	-2.995100	3.292200	-9.859400	27.128648	7.757219E-5	20.831780
2119.573258	-2.989900	3.292000	-9.841100	27.152871	7.595507E-5	20.828167
2120.570809	-3.004400	3.290900	-9.886900	27.114945	7.430495E-5	20.818946
2121.573753	-2.994000	3.291000	-9.852500	27.108710	7.588907E-5	20.830693
2122.580390	-2.994200	3.290600	-9.851500	27.159675	7.446997E-5	20.831216
2123.574763	-3.005600	3.291400	-9.891800	27.119106	7.347989E-5	20.826925
2124.574652	-3.022400	3.288900	-9.939800	27.135753	7.410694E-5	20.837503
2125.578250	-3.012600	3.288500	-9.906300	27.137940	7.305086E-5	20.821685
2126.579473	-3.025300	3.287200	-9.943900	27.171761	7.476699E-5	20.831519
2127.572811	-3.008200	3.289300	-9.894800	27.140321	7.331488E-5	20.843519
2128.576662	-3.004200	3.288400	-9.878300	27.142346	7.232481E-5	20.809521
2129.576206	-3.002800	3.287300	-9.870100	27.120797	7.242382E-5	20.818668
2130.573766	-3.004800	3.286200	-9.873400	27.101078	7.189578E-5	20.829182
2131.577198	-2.996800	3.286700	-9.848800	27.143646	7.354590E-5	20.827897
2132.578493	-2.994800	3.287400	-9.844800	27.152937	7.291885E-5	20.831552
2133.580816	-3.014900	3.285700	-9.904900	27.104524	7.278684E-5	20.841182
2134.584894	-3.006600	3.284900	-9.876000	27.087382	7.291885E-5	20.835321
2135.579663	-3.001700	3.286000	-9.862600	27.066807	7.232481E-5	20.827906
2136.580368	-3.008500	3.284300	-9.879700	27.107922	6.981663E-5	20.822314
2137.581776	-2.989300	3.286500	-9.823700	27.104354	7.192878E-5	20.837217
2138.585601	-3.007500	3.284100	-9.876100	27.127829	7.199478E-5	20.826688
2139.582036	-2.991500	3.283800	-9.822300	27.114644	7.107072E-5	20.839032
2140.582217	-3.001100	3.282900	-9.850900	27.107378	7.067469E-5	20.842155
2141.582962	-2.994600	3.283200	-9.830200	27.138143	7.232481E-5	20.861242
2142.579096	-2.927300	3.283800	-9.610800	27.184994	6.968462E-5	20.861423
2143.583736	-3.005500	3.281800	-9.862500	27.181426	6.928859E-5	20.837921
2144.582811	-3.003000	3.282700	-9.856600	27.136583	6.750646E-5	20.848294
2145.588056	-2.980100	3.282600	-9.781400	27.105060	6.839752E-5	20.858790
2146.586000	-2.976400	3.282400	-9.768600	27.075237	6.625236E-5	20.854400
2147.586425	-2.985500	3.280200	-9.791700	27.073058	6.668140E-5	20.847942
2148.589259	-2.987700	3.281300	-9.802700	27.122984	6.777048E-5	20.848842
2149.591235	-2.979000	3.282000	-9.775100	27.139281	6.750646E-5	20.848163
2150.583655	-2.985100	3.280200	-9.791000	27.095339	6.635137E-5	20.851384
2151.587450	-3.020900	3.279400	-9.906100	27.097225	6.664839E-5	20.841427
2152.591989	-3.021100	3.278400	-9.902700	27.145264	6.473425E-5	20.849912
2153.588747	-2.995700	3.279200	-9.822900	27.141419	6.499827E-5	20.853158
2154.585968	-3.005000	3.278800	-9.852000	27.167518	6.437123E-5	20.845269
2155.588066	-3.000000	3.278900	-9.836000	27.160617	6.384319E-5	20.874362
2156.590366	-2.988300	3.278200	-9.795500	27.225624	6.414021E-5	20.850133
2157.592421	-2.985700	3.278100	-9.786900	27.264652	6.456924E-5	20.854302
2158.589923	-3.013200	3.276200	-9.870800	27.248202	6.456924E-5	20.870471
2159.585834	-3.026600	3.277100	-9.917200	27.202525	6.192905E-5	20.869572
2160.595247	-2.980600	3.275300	-9.761700	27.144458	6.232508E-5	20.869490
2161.589829	-3.006500	3.274200	-9.843200	27.139135	6.192905E-5	20.845171
2162.590371	-3.012200	3.274600	-9.863400	27.151295	6.324914E-5	20.864986
2163.590189	-3.011200	3.274100	-9.858400	27.155179	6.064195E-5	20.870316
2164.597017	-2.981300	3.275000	-9.763100	27.117294	6.216006E-5	20.872515
2165.588865	-3.016400	3.273900	-9.874000	27.128934	6.107099E-5	20.855773
2166.591561	-3.015000	3.273700	-9.869200	27.190350	6.126900E-5	20.864913
2167.592665	-2.985300	3.274400	-9.774000	27.255200	6.255609E-5	20.882251
2168.586706	-2.975600	3.274500	-9.743100	27.241603	6.163203E-5	20.890384
2169.589261	-2.992400	3.273300	-9.793300	27.227680	6.123600E-5	20.859787
2170.589716	-2.996400	3.271400	-9.802000	27.230103	6.004791E-5	20.879766
2171.588018	-2.999300	3.271700	-9.811800	27.294942	6.176404E-5	20.871493
2172.588883	-3.012700	3.271300	-9.854700	27.285295	6.183004E-5	20.879333
2173.586986	-2.985700	3.272400	-9.769400	27.306759	6.044394E-5	20.847346
2174.588227	-2.982300	3.271300	-9.754600	27.256647	6.159902E-5	20.881336
2175.589070	-3.012500	3.270200	-9.850700	27.281801	6.014692E-5	20.872499
2176.588984	-2.979400	3.270100	-9.742000	27.324370	6.008091E-5	20.856052
2177.593310	-2.979800	3.269800	-9.742200	27.352253	6.044394E-5	20.864185
2178.590061	-3.027100	3.268700	-9.893900	27.385912	5.902484E-5	20.876234
2179.590347	-2.999300	3.269100	-9.804300	27.360299	5.889283E-5	20.867537
2180.592237	-3.011500	3.269000	-9.844200	27.310993	5.753973E-5	20.866302
2181.600294	-2.976600	3.267500	-9.724500	27.277160	5.872781E-5	20.866409
2182.594505	-2.994700	3.266500	-9.781100	27.231752	5.786975E-5	20.884744
2183.596530	-2.973500	3.269300	-9.720700	27.160146	5.532856E-5	20.882422
2184.595168	-3.000800	3.267300	-9.803800	27.167388	5.582360E-5	20.849405
2185.592409	-2.993100	3.266900	-9.777500	27.194608	5.773774E-5	20.861610
2186.598549	-3.000600	3.265000	-9.796000	27.230809	5.681367E-5	20.844917
2187.593068	-3.004700	3.266000	-9.812800	27.232719	5.499854E-5	20.853950
2188.592616	-3.003800	3.264700	-9.806000	27.212245	5.555958E-5	20.887408
2189.597688	-2.999200	3.264900	-9.791200	27.299671	5.588961E-5	20.855388
2190.593045	-3.011000	3.265000	-9.829700	27.329513	5.476752E-5	20.884931
2191.596029	-3.013000	3.263700	-9.832000	27.277298	5.417348E-5	20.881245
2192.599025	-2.990000	3.263700	-9.757700	27.282766	5.384346E-5	20.871099
2193.597252	-2.979400	3.264200	-9.724800	27.265553	5.206132E-5	20.854734
2194.596521	-2.995800	3.263000	-9.773800	27.287927	5.588961E-5	20.844998
2195.593502	-2.996400	3.261800	-9.772500	27.281799	5.367844E-5	20.881980
2196.594996	-2.983600	3.261300	-9.729100	27.273363	5.486653E-5	20.873020
2197.596377	-3.006300	3.261800	-9.804800	27.319825	5.453651E-5	20.861911
2198.598777	-3.002000	3.261000	-9.788600	27.341963	5.245735E-5	20.857154
2199.596242	-3.015800	3.259800	-9.830200	27.387577	5.014718E-5	20.828125
2200.608634	-2.995800	3.259900	-9.765400	27.369186	5.159929E-5	20.864624
2201.597164	-2.993000	3.258800	-9.752500	27.307594	5.011418E-5	20.851504
2202.602173	-2.999000	3.258500	-9.771600	27.246957	5.100525E-5	20.850254
2203.599934	-2.981100	3.258700	-9.713000	27.257766	5.011418E-5	20.863022
2204.599337	-2.996500	3.258200	-9.762100	27.279206	4.942113E-5	20.844760
2205.601606	-3.004700	3.257100	-9.785900	27.317460	5.074123E-5	20.868540
2206.603645	-2.993000	3.258300	-9.751600	27.314014	5.209433E-5	20.858910
2207.600507	-3.016800	3.258700	-9.830000	27.332689	5.014718E-5	20.850670
2208.599402	-2.982600	3.258800	-9.718900	27.318809	5.031220E-5	20.854725
2209.605897	-3.005400	3.256600	-9.785700	27.312673	4.948714E-5	20.836225
2210.596083	-3.030100	3.254600	-9.861200	27.365911	5.163229E-5	20.866071
2211.604004	-3.005000	3.255200	-9.780500	27.394273	4.922312E-5	20.864731
2212.605893	-3.001100	3.255500	-9.768900	27.421698	4.958614E-5	20.848700
2213.604445	-3.007500	3.255800	-9.791000	27.477783	4.965215E-5	20.843010
2214.601357	-2.995200	3.254000	-9.745900	27.502460	4.654992E-5	20.852190
2215.606363	-3.015000	3.253500	-9.807800	27.476329	4.872808E-5	20.842022
2216.602625	-3.012600	3.253400	-9.800600	27.412703	4.753999E-5	20.844867
2217.608138	-2.992600	3.254600	-9.738900	27.392996	4.922312E-5	20.814137
2218.602997	-2.967000	3.254100	-9.653900	27.387146	4.816704E-5	20.831958
2219.604379	-3.014000	3.252600	-9.802700	27.379377	4.615389E-5	20.835048
2220.608419	-2.986000	3.253300	-9.713700	27.383424	4.526283E-5	20.819205
2221.601403	-3.019300	3.252500	-9.819700	27.327878	4.777101E-5	20.845357
2222.599274	-3.035400	3.249600	-9.862800	27.321158	4.724297E-5	20.849501
2223.602916	-2.995900	3.251700	-9.740400	27.398661	4.925612E-5	20.849232
2224.604251	-2.992400	3.250800	-9.726600	27.464173	4.638491E-5	20.838327
2225.606629	-2.998100	3.250100	-9.742600	27.489176	4.588987E-5	20.852101
2226.602301	-2.992000	3.250300	-9.724300	27.402651	4.489980E-5	20.821478
2227.604985	-2.998100	3.250500	-9.743200	27.416921	4.773801E-5	20.843420
2228.607694	-2.997600	3.248900	-9.738300	27.421503	4.641791E-5	20.839970
2229.604678	-3.004900	3.249400	-9.763200	27.443728	4.598888E-5	20.837672
2230.607566	-3.016000	3.248100	-9.795500	27.465839	4.621990E-5	20.824356
2231.609226	-2.992800	3.247800	-9.719300	27.503712	4.582387E-5	20.828795
2232.600638	-2.991800	3.247200	-9.714500	27.479880	4.351370E-5	20.821888
2233.604718	-2.988600	3.247300	-9.703800	27.471397	4.546084E-5	20.828525
2234.602006	-2.980700	3.247900	-9.680200	27.480522	4.542784E-5	20.822059
2235.607046	-3.003000	3.245900	-9.746900	27.434644	4.588987E-5	20.811939
2236.604697	-3.012000	3.246900	-9.778500	27.399019	4.407474E-5	20.836316
2237.611286	-3.018300	3.244400	-9.791700	27.376696	4.371171E-5	20.822395
2238.606543	-2.986600	3.246600	-9.695700	27.426283	4.249062E-5	20.827234
2239.607406	-3.009700	3.244600	-9.764400	27.471162	4.460278E-5	20.805056
2240.608319	-3.007700	3.243700	-9.755300	27.417653	4.354670E-5	20.821872
2241.605938	-3.005600	3.243800	-9.748800	27.402798	4.265564E-5	20.818782
2242.609545	-2.997500	3.242500	-9.718400	27.352861	4.189658E-5	20.820703
2243.609320	-3.011300	3.242900	-9.764700	27.351903	4.202859E-5	20.823532
2244.611492	-2.999300	3.241300	-9.720800	27.367254	4.364571E-5	20.820008
2245.608624	-3.005800	3.241000	-9.741000	27.357331	4.285365E-5	20.833260
2246.607625	-3.007200	3.241600	-9.746900	27.391796	4.387672E-5	20.815300
2247.609754	-2.985800	3.241500	-9.677100	27.439244	4.275464E-5	20.836955
2248.609631	-3.003800	3.239800	-9.731100	27.488657	4.117053E-5	20.830718
2249.611110	-3.001600	3.241400	-9.728000	27.487195	4.100551E-5	20.808384
2250.610630	-3.005700	3.239100	-9.734500	27.471894	4.011445E-5	20.821914
2251.608793	-2.965800	3.239900	-9.607900	27.500326	4.252363E-5	20.814483
2252.617156	-2.992500	3.238400	-9.690000	27.512108	4.334869E-5	20.792672
2253.613153	-3.023800	3.237200	-9.788300	27.528570	4.166556E-5	20.808760
2254.607080	-3.001100	3.238700	-9.718800	27.530406	4.021346E-5	20.816297
2255.609239	-3.000800	3.237400	-9.713800	27.583390	3.955341E-5	20.815080
2256.605710	-3.018600	3.237600	-9.772500	27.600972	3.961941E-5	20.827554
2257.609881	-3.001000	3.237400	-9.714600	27.564272	4.044447E-5	20.830457
2258.615354	-2.983300	3.237300	-9.656900	27.564020	3.998244E-5	20.824514
2259.612135	-3.009000	3.236800	-9.738000	27.572503	3.925639E-5	20.818824
2260.612385	-3.016000	3.235800	-9.758500	27.536793	3.925639E-5	20.826991
2261.614715	-2.987000	3.236100	-9.664800	27.508931	3.770527E-5	20.821718
2262.611435	-3.004000	3.234800	-9.715900	27.507696	3.760626E-5	20.814312
2263.609005	-3.026300	3.234900	-9.789000	27.542050	3.773827E-5	20.820901
2264.609944	-3.017400	3.233400	-9.755300	27.603434	3.905837E-5	20.801583
2265.611343	-2.991900	3.234700	-9.677200	27.637143	3.757326E-5	20.810846
2266.612471	-2.979500	3.234000	-9.635000	27.593912	3.598915E-5	20.818554
2267.616629	-2.992100	3.234000	-9.675500	27.571065	3.945440E-5	20.801256
2268.615584	-2.992100	3.233200	-9.673500	27.584755	3.750726E-5	20.801280
2269.615987	-2.992500	3.232100	-9.671100	27.560128	3.572513E-5	20.797365
2270.615808	-3.025900	3.231900	-9.778400	27.579620	3.704522E-5	20.809864
2271.616070	-3.003000	3.230900	-9.701400	27.636289	3.523009E-5	20.815202
2272.612951	-2.972200	3.231100	-9.602800	27.677090	3.714423E-5	20.815480
2273.615406	-2.991700	3.229900	-9.661900	27.700893	3.707823E-5	20.800553
2274.613341	-2.985500	3.228900	-9.639200	27.690348	3.470205E-5	20.817916
2275.617464	-3.043700	3.228600	-9.825200	27.700121	3.509808E-5	20.795508
2276.613574	-3.007300	3.229100	-9.710100	27.654025	3.443803E-5	20.802229
2277.614728	-3.026800	3.228400	-9.771100	27.616863	3.453704E-5	20.803242
2278.616903	-3.015300	3.228100	-9.732400	27.634152	3.519709E-5	20.803095
2279.613905	-3.019600	3.229300	-9.749700	27.658729	3.424002E-5	20.810755
2280.617733	-2.976600	3.227800	-9.606500	27.645632	3.357997E-5	20.803266
2281.618512	-2.968900	3.227700	-9.581800	27.644398	3.285392E-5	20.798231
2282.614937	-3.008200	3.225300	-9.701800	27.623038	3.447103E-5	20.813248
2283.615719	-3.003700	3.227600	-9.693900	27.637223	3.225987E-5	20.789115
2284.616376	-2.981800	3.226200	-9.618300	27.543845	3.364597E-5	20.811801
2285.616083	-2.984500	3.224200	-9.621700	27.535581	3.427302E-5	20.818659
2286.619532	-2.985900	3.225200	-9.628700	27.599054	3.107178E-5	20.803814
2287.618089	-3.003000	3.223000	-9.678300	27.607682	3.285392E-5	20.803013
2288.618558	-3.009600	3.223000	-9.698600	27.568521	3.334895E-5	20.799170
2289.620193	-2.990300	3.224000	-9.640200	27.613817	3.410801E-5	20.787374
2290.618894	-3.024300	3.222100	-9.743700	27.597047	3.321694E-5	20.803691
2291.626902	-3.005500	3.222200	-9.683000	27.591985	3.183084E-5	20.806185
2292.617995	-3.000500	3.221700	-9.665900	27.547159	3.179784E-5	20.823196
2293.623161	-2.993800	3.221700	-9.644700	27.529537	3.093978E-5	20.807836
2294.624436	-2.985000	3.220700	-9.613400	27.538214	3.126980E-5	20.809929
2295.626562	-2.993100	3.220400	-9.638200	27.578815	3.064275E-5	20.820908
2296.620459	-2.994000	3.220600	-9.641600	27.574574	2.981769E-5	20.789614
2297.630238	-3.009800	3.221200	-9.694800	27.565547	2.905864E-5	20.817515
2298.624596	-2.997000	3.219400	-9.648100	27.665219	2.942166E-5	20.802587
2299.626204	-3.004400	3.217500	-9.665500	27.679860	2.849760E-5	20.810681
2300.626566	-3.005100	3.218200	-9.669800	27.652758	2.895963E-5	20.804746
2301.625844	-3.014900	3.218100	-9.701000	27.690023	2.882762E-5	20.800045
2302.624021	-3.004600	3.217200	-9.665300	27.791707	2.744152E-5	20.802801
2303.626094	-3.021400	3.216500	-9.717600	27.854563	2.843159E-5	20.792091
2304.625944	-2.982600	3.216600	-9.593000	27.856228	2.787055E-5	20.773379
2305.627866	-3.019100	3.215200	-9.706300	27.868949	2.674847E-5	20.780017
2306.633269	-2.979200	3.215000	-9.577900	27.841624	2.589040E-5	20.790923
2307.623947	-2.992600	3.214700	-9.619400	27.878225	2.556038E-5	20.800259
2308.626573	-3.002600	3.213500	-9.647700	27.899579	2.546137E-5	20.781448
2309.631979	-2.974300	3.213800	-9.558100	27.845523	2.414128E-5	20.797218
2310.625234	-3.002100	3.213200	-9.644200	27.800245	2.595641E-5	20.796695
2311.633177	-3.022200	3.213900	-9.712500	27.751643	2.364624E-5	20.785241
2312.623850	-3.008100	3.213200	-9.664600	27.716460	2.470232E-5	20.789665
2313.628202	-3.044800	3.212300	-9.780000	27.713137	2.417428E-5	20.773519
2314.624946	-2.988400	3.212500	-9.599200	27.723519	2.523036E-5	20.792027
2315.629503	-3.006200	3.212700	-9.657500	27.717800	2.447130E-5	20.780108
2316.626234	-3.017500	3.210600	-9.687700	27.713097	2.463631E-5	20.787703
2317.624930	-3.018000	3.210600	-9.687700	27.691991	2.519735E-5	20.803922
2318.630717	-3.006300	3.209200	-9.646800	27.736559	2.315120E-5	20.795666
2319.631386	-3.005500	3.209700	-9.645200	27.744024	2.513135E-5	20.778997
2320.624902	-3.013200	3.208300	-9.665500	27.769850	2.407527E-5	20.789339
2321.635496	-3.012300	3.209100	-9.666200	27.733172	2.361324E-5	20.777084
2322.630938	-2.981100	3.208200	-9.563400	27.718362	2.519735E-5	20.798217
2323.630658	-3.033300	3.205300	-9.721800	27.770394	2.367924E-5	20.792258
2324.634570	-2.998600	3.206300	-9.613600	27.805706	2.255716E-5	20.777060
2325.630049	-2.968200	3.206200	-9.515400	27.833552	2.275517E-5	20.787540
2326.629401	-2.994800	3.205100	-9.597100	27.759776	2.499934E-5	20.776357
2327.628518	-3.017600	3.206600	-9.675200	27.779598	2.219413E-5	20.769277
2328.638464	-2.999400	3.203200	-9.606900	27.786194	2.292019E-5	20.780183
2329.631989	-3.000000	3.204300	-9.612400	27.799955	2.354723E-5	20.759418
2330.633699	-2.994600	3.204700	-9.596700	27.856865	2.466931E-5	20.800572
2331.630555	-2.991400	3.205900	-9.589200	27.929090	2.397626E-5	20.764683
2332.629546	-3.001600	3.203700	-9.615200	27.958306	2.427329E-5	20.762321
2333.633379	-2.976200	3.203500	-9.533900	27.976133	2.338222E-5	20.785955
2334.639398	-2.997600	3.200400	-9.593100	27.999930	2.447130E-5	20.756802
2335.639576	-3.018000	3.201500	-9.661000	28.007719	2.183111E-5	20.781238
2336.634751	-2.999100	3.200500	-9.597300	27.963715	2.417428E-5	20.768240
2337.635288	-2.979500	3.200400	-9.534600	27.937748	2.173210E-5	20.785252
2338.634269	-2.999200	3.199800	-9.595300	27.995268	2.239215E-5	20.757799
2339.638025	-3.009100	3.200800	-9.630500	28.036079	2.245815E-5	20.769008
2340.636045	-2.979600	3.200900	-9.536200	27.996933	2.150108E-5	20.758527
2341.636558	-2.997500	3.197800	-9.584900	27.981470	2.130307E-5	20.766196
2342.640856	-2.997900	3.198900	-9.588600	27.989372	2.110505E-5	20.785056
2343.633862	-3.022300	3.196800	-9.661000	27.968231	2.150108E-5	20.765199
2344.640013	-3.004500	3.195000	-9.598200	27.850083	1.905890E-5	20.767668
2345.640289	-2.989000	3.197000	-9.554400	27.840855	1.928992E-5	20.768812
2346.636557	-2.994100	3.195000	-9.563500	27.852381	1.895989E-5	20.791792
2347.635794	-3.012800	3.194800	-9.624500	27.916631	1.820084E-5	20.772532
2348.638364	-2.987900	3.196000	-9.548800	27.981047	1.714476E-5	20.756288
2349.638699	-3.003000	3.194000	-9.590600	27.956901	1.919091E-5	20.758536
2350.637430	-2.995300	3.192400	-9.561300	27.921716	1.721077E-5	20.767692
2351.637421	-2.984200	3.193800	-9.529800	27.961506	1.787081E-5	20.762697
2352.634006	-2.986200	3.192500	-9.533000	27.961108	1.763980E-5	20.749019
2353.637676	-2.979100	3.191700	-9.507400	27.977896	1.770580E-5	20.740787
2354.634663	-2.981800	3.193500	-9.521300	27.943629	1.770580E-5	20.749919
2355.640152	-2.994000	3.190900	-9.552700	27.936441	1.674873E-5	20.763073
2356.637223	-3.000100	3.191900	-9.574900	27.964357	1.628670E-5	20.770782
2357.643048	-2.993300	3.189100	-9.544900	28.039677	1.697975E-5	20.774052
2358.636348	-3.002200	3.188600	-9.572100	27.993083	1.579166E-5	20.755126
2359.635637	-2.982800	3.190000	-9.513900	27.973055	1.556064E-5	20.743027
2360.638904	-3.008800	3.186900	-9.587700	27.976872	1.664973E-5	20.744024
2361.639319	-3.019000	3.187600	-9.622200	27.986163	1.589067E-5	20.750531
2362.639822	-3.030500	3.185100	-9.650800	27.969156	1.641871E-5	20.756646
2363.635656	-2.987300	3.188300	-9.523200	27.975255	1.311847E-5	20.740026
2364.645862	-3.002100	3.186100	-9.564200	27.961448	1.711176E-5	20.755527
2365.640403	-3.015200	3.184800	-9.601700	27.906250	1.447156E-5	20.762083
2366.639388	-3.001400	3.186700	-9.564300	27.871445	1.582466E-5	20.748864
2367.636410	-3.010200	3.184000	-9.583700	27.918036	1.463658E-5	20.757350
2368.641037	-2.978500	3.183400	-9.480700	27.992636	1.506561E-5	20.740451
2369.639505	-3.002700	3.181600	-9.552600	27.935652	1.433956E-5	20.740467
2370.645344	-2.995200	3.181200	-9.527500	27.911684	1.585767E-5	20.745740
2371.646353	-3.007300	3.182500	-9.569300	27.864865	1.166636E-5	20.752673
2372.642684	-2.992800	3.180700	-9.518600	27.934962	1.526362E-5	20.749256
2373.643814	-2.988400	3.181100	-9.505400	27.920659	1.470258E-5	20.741497
2374.643552	-2.995000	3.179500	-9.521800	27.872208	1.420755E-5	20.728768
2375.644407	-3.006500	3.178400	-9.555100	27.880135	1.298646E-5	20.744334
2376.644462	-3.014800	3.178200	-9.581300	27.947754	1.295345E-5	20.754545
2377.646767	-3.005900	3.178000	-9.551900	27.954024	1.354750E-5	20.745208
2378.639502	-3.006300	3.176200	-9.547000	27.915094	1.259043E-5	20.760553
2379.642761	-3.010100	3.176600	-9.560800	27.923322	1.136934E-5	20.753187
2380.644044	-2.982300	3.178300	-9.477900	27.929747	1.344849E-5	20.749222
2381.643661	-2.983600	3.176700	-9.476700	27.896153	1.146834E-5	20.752869
2382.644373	-3.018300	3.176500	-9.587000	27.927513	1.074229E-5	20.759302
2383.643488	-2.992400	3.175800	-9.502300	28.006279	1.143534E-5	20.744701
2384.647646	-3.003900	3.173600	-9.532700	28.061911	1.301946E-5	20.732896
2385.641061	-2.992300	3.173500	-9.494700	28.028890	1.433956E-5	20.741856
2386.645134	-3.006000	3.172400	-9.535600	27.936789	1.196338E-5	20.747301
2387.648102	-3.004500	3.172300	-9.530600	27.953025	1.179837E-5	20.744677
2388.644916	-2.998700	3.169700	-9.504000	28.001171	1.080830E-5	20.763741
2389.643727	-3.016800	3.169900	-9.561800	28.024228	1.146834E-5	20.743802
2390.644588	-2.990300	3.171100	-9.482100	27.981581	1.107231E-5	20.751135
2391.645963	-2.985400	3.168300	-9.458300	27.974393	9.719215E-6	20.731571
2392.643652	-2.995900	3.168700	-9.492000	27.963932	8.300111E-6	20.754233
2393.647563	-3.001600	3.167100	-9.505400	27.921575	1.136934E-5	20.750955
2394.642803	-2.981900	3.166800	-9.442100	27.895762	1.123733E-5	20.757217
2395.647113	-3.013100	3.166000	-9.539200	27.927155	8.861152E-6	20.730491
2396.653044	-3.014600	3.165300	-9.541100	27.936398	7.838077E-6	20.757339
2397.647697	-2.989900	3.166000	-9.464800	27.952147	7.310038E-6	20.751854
2398.648195	-2.999500	3.164000	-9.489700	27.991984	1.176537E-5	20.731260
2399.648728	-2.992700	3.164200	-9.468500	27.992601	9.422193E-6	20.758435
2400.646034	-3.003700	3.163600	-9.501200	28.030480	7.904082E-6	20.734448
2401.647919	-3.010000	3.162100	-9.516900	28.001543	8.795147E-6	20.743252
2402.648363	-2.999300	3.161500	-9.481900	28.034264	9.356189E-6	20.727825
2403.644816	-3.001100	3.160800	-9.485400	28.011663	8.102096E-6	20.769087
2404.648195	-2.972300	3.160400	-9.391100	28.042597	1.153435E-5	20.754706
2405.645365	-2.992800	3.160500	-9.457500	28.037635	1.021425E-5	20.748762
2406.648294	-2.999800	3.159200	-9.475400	28.029058	9.290184E-6	20.750087
2407.648443	-3.008200	3.158400	-9.500700	28.015325	5.296890E-6	20.743375
2408.651360	-3.010800	3.157000	-9.503700	27.957749	6.815002E-6	20.739949
2409.646840	-2.998600	3.157100	-9.466000	27.992080	7.904082E-6	20.737046
2410.649189	-2.998700	3.156400	-9.463800	27.976860	9.026164E-6	20.737847
2411.647754	-2.993400	3.155400	-9.443600	27.969949	8.036092E-6	20.745116
2412.651625	-3.012200	3.153000	-9.496900	27.955337	7.739070E-6	20.735623
2413.650149	-3.013900	3.153700	-9.503600	28.026841	6.748997E-6	20.745009
2414.649666	-2.971900	3.154000	-9.372400	28.017371	7.970087E-6	20.735951
2415.655874	-2.981200	3.152200	-9.396400	27.980896	5.725922E-6	20.751868
2416.648097	-2.995500	3.151200	-9.438600	27.985330	7.838077E-6	20.752538
2417.650017	-2.977600	3.150300	-9.378700	27.995539	7.607060E-6	20.738157
2418.655930	-3.008000	3.149300	-9.472500	28.041653	6.715994E-6	20.743324
2419.653324	-2.993000	3.149300	-9.425000	28.039192	4.009795E-6	20.721879
2420.649330	-2.981600	3.148900	-9.388100	28.068274	6.286963E-6	20.761113
2421.651474	-3.036000	3.147100	-9.553400	28.140233	4.702846E-6	20.743462
2422.654587	-3.031700	3.146500	-9.538600	28.220794	7.508053E-6	20.758186
2423.662437	-3.001500	3.147500	-9.446400	28.193998	5.131878E-6	20.754916
2424.655600	-2.994500	3.145800	-9.419700	28.189881	5.131878E-6	20.752193
2425.655771	-2.991800	3.144700	-9.406700	28.160209	4.405824E-6	20.747926
2426.654284	-3.010600	3.143700	-9.463400	28.199650	5.428900E-6	20.755390
2427.653173	-2.991400	3.143000	-9.400800	28.241808	2.887713E-6	20.748523
2428.662764	-3.005500	3.142400	-9.444200	28.276731	2.260666E-6	20.751441
2429.653417	-2.999800	3.141500	-9.422700	28.297273	3.613766E-6	20.739406
2430.654909	-3.005300	3.139500	-9.434200	28.278688	1.237591E-6	20.739186
2431.653582	-2.986700	3.141200	-9.381000	28.238852	2.326671E-6	20.725631
2432.656484	-3.019300	3.139100	-9.476900	28.293181	2.392676E-6	20.741924
2433.656360	-3.015300	3.137200	-9.458800	28.283194	5.164880E-6	20.770751
2434.657783	-2.982700	3.138600	-9.360300	28.251836	3.844783E-6	20.733487
2435.662080	-2.999100	3.135200	-9.402300	28.221710	1.039577E-6	20.738719
2436.654133	-3.016500	3.134800	-9.455300	28.245981	1.699625E-6	20.748930
2437.657265	-2.999400	3.134200	-9.399700	28.192259	4.042798E-6	20.767864
2438.660470	-2.995300	3.133100	-9.383400	28.143301	1.039577E-6	20.771207
2439.653316	-2.988000	3.132000	-9.357000	28.166257	1.798632E-6	20.754015
2440.656737	-2.996100	3.131100	-9.379700	28.202888	1.171586E-6	20.762917
2441.657305	-3.011000	3.132200	-9.430300	28.171836	6.765498E-7	20.771012
2442.655794	-2.988000	3.131100	-9.355300	28.171722	2.689698E-6	20.768999
2443.660208	-3.003900	3.128700	-9.398000	28.230024	2.260666E-6	20.754676
2444.659324	-2.989700	3.129400	-9.355400	28.257087	2.359674E-6	20.755845
2445.660371	-3.007700	3.128700	-9.409400	28.341756	3.184734E-6	20.770921
2446.660937	-3.013200	3.125600	-9.417800	28.402623	2.260666E-6	20.749706
2447.658594	-3.019600	3.125100	-9.435900	28.461205	3.135231E-7	20.778352
2448.657881	-3.035700	3.124800	-9.484500	28.425842	1.732628E-6	20.747482
2449.662846	-3.021800	3.124500	-9.440900	28.394610	-3.795279E-7	20.754913
2450.658587	-3.033700	3.122800	-9.472300	28.340903	2.458681E-6	20.758682
2451.658360	-3.007100	3.122900	-9.390500	28.355420	7.755571E-7	20.744374
2452.665228	-3.024500	3.121100	-9.438700	28.402639	6.765498E-7	20.764895
2453.660855	-2.976600	3.121300	-9.290300	28.340002	-5.445401E-7	20.755403
2454.668053	-2.996800	3.120200	-9.349500	28.338881	-2.293669E-6	20.757593
2455.664952	-3.003200	3.118700	-9.364700	28.365746	-1.402603E-6	20.777533
2456.662890	-3.007100	3.117900	-9.375300	28.385296	3.135231E-7	20.774459
2457.667163	-2.982000	3.117300	-9.294400	28.346805	-4.125304E-7	20.747079
2458.668401	-3.013900	3.116700	-9.392300	28.303854	-8.745644E-7	20.775432
2459.665924	-3.002600	3.115800	-9.353400	28.358577	-6.435474E-7	20.768417
2460.665884	-2.991700	3.114800	-9.317900	28.358699	-3.085727E-6	20.765220
2461.665675	-3.003800	3.113800	-9.352500	28.397206	-1.237591E-6	20.788348
2462.671025	-3.022300	3.112300	-9.405300	28.382739	-1.303596E-6	20.767142
2463.664521	-2.993500	3.111900	-9.314000	28.332003	-2.755703E-6	20.770583
2464.666691	-2.997800	3.111100	-9.325800	28.339221	-1.600618E-6	20.784490
2465.665227	-2.991100	3.110200	-9.302100	28.347795	-4.735849E-6	20.768940
2466.664437	-3.020200	3.107500	-9.384000	28.321740	-1.699625E-6	20.751714
2467.667246	-3.035000	3.106900	-9.428800	28.337897	-3.514759E-6	20.770828
2468.672446	-3.013400	3.107300	-9.362700	28.381496	-3.679771E-6	20.758778
2469.667529	-3.011200	3.104600	-9.348000	28.461714	-3.283742E-6	20.781709
2470.669460	-2.992800	3.105300	-9.292300	28.464491	-5.659917E-6	20.759375
2471.671320	-3.007400	3.104800	-9.334800	28.403035	-3.217737E-6	20.765294
2472.668920	-3.003100	3.102800	-9.317300	28.341494	-4.240812E-6	20.782985
2473.664603	-2.987200	3.102600	-9.266800	28.319768	-1.534613E-6	20.782446
2474.668756	-3.026300	3.101100	-9.383800	28.324241	-3.910788E-6	20.768932
2475.667387	-2.981600	3.100300	-9.243000	28.358146	-3.580764E-6	20.774147
2476.665680	-3.011500	3.098600	-9.329700	28.384987	-3.052725E-6	20.784105
2477.668963	-2.986100	3.098200	-9.250900	28.325614	-4.141805E-6	20.763675
2478.672041	-2.984800	3.097300	-9.243500	28.314166	-3.943790E-6	20.764477
2479.672292	-3.000400	3.095500	-9.286900	28.345587	-4.966866E-6	20.777148
2480.669422	-3.004300	3.094800	-9.297000	28.370130	-3.745776E-6	20.786215
2481.669744	-3.031000	3.092000	-9.370100	28.325021	-3.613766E-6	20.779674
2482.670571	-3.035300	3.092500	-9.386600	28.374044	-3.844783E-6	20.774982
2483.670710	-2.989200	3.091700	-9.240800	28.362280	-4.702846E-6	20.784000
2484.667770	-2.991300	3.090500	-9.243300	28.343192	-1.897640E-6	20.771892
2485.675778	-3.004700	3.089500	-9.282300	28.297173	-3.415752E-6	20.773446
2486.670305	-3.004400	3.089000	-9.278000	28.321985	-4.141805E-6	20.761444
2487.671595	-2.987600	3.088100	-9.225700	28.377673	-4.042798E-6	20.767257
2488.668394	-3.013200	3.086100	-9.298000	28.452023	-3.943790E-6	20.798028
2489.671566	-2.998400	3.085900	-9.251800	28.536448	-5.197883E-6	20.762613
2490.670998	-2.998200	3.084100	-9.245500	28.566540	-5.428900E-6	20.772530
2491.670410	-2.987700	3.083900	-9.213200	28.562003	-2.821708E-6	20.783133
2492.675149	-3.007900	3.081500	-9.267700	28.573821	-4.966866E-6	20.782234
2493.678638	-3.031400	3.079800	-9.334500	28.506528	-5.527907E-6	20.782741
2494.670987	-3.022000	3.078500	-9.301300	28.489034	-2.689698E-6	20.781720
2495.673017	-2.995300	3.078800	-9.221500	28.425201	-5.527907E-6	20.778605
2496.673811	-3.004800	3.078200	-9.247800	28.370952	-6.980014E-6	20.796051
2497.674135	-3.018200	3.075700	-9.282200	28.364408	-6.815002E-6	20.794203
2498.675302	-2.989200	3.075600	-9.192700	28.429593	-7.178029E-6	20.783028
2499.677020	-3.004200	3.073500	-9.232600	28.516715	-4.504832E-6	20.779725
2500.670610	-3.011300	3.072800	-9.252100	28.506894	-4.966866E-6	20.785955
2501.673645	-2.963300	3.074000	-9.108500	28.480892	-6.649990E-6	20.787745
2502.674637	-2.990700	3.071400	-9.183900	28.490260	-7.541055E-6	20.793860
2503.671757	-2.977300	3.070600	-9.141400	28.468163	-4.207810E-6	20.784885
2504.672027	-3.014400	3.068400	-9.248800	28.502250	-6.782000E-6	20.784598
2505.675141	-2.982000	3.067700	-9.147000	28.523616	-6.286963E-6	20.787149
2506.675665	-3.039700	3.065500	-9.316600	28.542197	-5.725922E-6	20.777412
2507.674585	-3.005500	3.064800	-9.211100	28.533081	-6.352968E-6	20.801422
2508.675822	-3.010900	3.063200	-9.221700	28.443971	-7.871080E-6	20.784230
2509.676501	-3.030800	3.063000	-9.282500	28.346101	-6.649990E-6	20.791890
2510.675119	-3.000000	3.061500	-9.184200	28.387418	-6.782000E-6	20.784655
2511.677258	-2.974500	3.062000	-9.106000	28.425811	-6.220958E-6	20.809565
2512.678090	-3.012500	3.059400	-9.215300	28.424829	-7.805075E-6	20.788662
2513.677392	-2.985400	3.058600	-9.130100	28.418374	-5.626914E-6	20.771731
2514.673745	-2.980900	3.057000	-9.110600	28.479269	-7.508053E-6	20.787534
2515.674850	-2.983500	3.056400	-9.118000	28.596901	-8.267109E-6	20.776554
2516.675745	-3.024500	3.053700	-9.234600	28.669173	-6.154953E-6	20.782015
2517.675282	-3.013800	3.053400	-9.199700	28.636690	-8.135099E-6	20.782015
2518.676089	-3.017500	3.052300	-9.208600	28.680398	-7.937085E-6	20.791899
2519.680433	-2.983900	3.051200	-9.103400	28.509801	-7.211031E-6	20.802159
2520.679765	-3.007800	3.049500	-9.171300	28.543448	-7.475051E-6	20.786258
2521.682278	-2.982400	3.049100	-9.091900	28.589116	-9.158175E-6	20.781991
2522.685856	-3.021200	3.047600	-9.206200	28.621828	-8.696141E-6	20.804979
2523.677223	-3.011700	3.046100	-9.173000	28.581510	-1.087430E-5	20.794245
2524.682564	-3.000700	3.044900	-9.136000	28.559634	-8.069094E-6	20.820103
2525.680731	-2.987900	3.043600	-9.092800	28.577192	-8.861153E-6	20.801275
2526.678542	-2.993500	3.042000	-9.105100	28.518957	-6.914009E-6	20.805216
2527.682218	-3.030400	3.038900	-9.208900	28.535395	-8.267109E-6	20.795692
2528.682555	-2.987500	3.040900	-9.083700	28.619320	-1.064328E-5	20.797711
2529.683502	-3.019000	3.038300	-9.171700	28.604725	-8.597133E-6	20.791073
2530.684790	-3.056600	3.036800	-9.280900	28.585626	-8.465124E-6	20.812141
2531.685440	-3.017300	3.034900	-9.156500	28.551200	-8.432121E-6	20.814928
2532.685822	-3.018500	3.034700	-9.158800	28.501642	-9.059167E-6	20.804374
2533.683036	-2.988000	3.033600	-9.063600	28.554204	-9.290184E-6	20.814160
2534.687885	-3.006900	3.032800	-9.117900	28.584068	-9.455196E-6	20.787338
2535.685269	-2.968800	3.031800	-8.999000	28.593702	-1.054428E-5	20.809369
2536.681403	-2.974600	3.029300	-9.010300	28.569375	-9.026165E-6	20.810473
2537.683580	-3.003300	3.028600	-9.093900	28.543651	-9.752218E-6	20.812067
2538.684618	-3.006900	3.027100	-9.101700	28.511757	-9.620209E-6	20.806500
2539.684479	-3.003400	3.026600	-9.089700	28.494214	-1.001624E-5	20.794049
2540.689002	-3.005000	3.025100	-9.089200	28.553392	-9.158175E-6	20.827093
2541.684555	-2.989800	3.023300	-9.038200	28.674855	-8.894155E-6	20.802911
2542.682337	-2.995600	3.022300	-9.052800	28.720517	-7.706068E-6	20.810972
2543.684385	-2.999900	3.022200	-9.065500	28.710209	-9.488199E-6	20.810547
2544.683077	-2.988000	3.019200	-9.020600	28.766283	-9.290184E-6	20.818191
2545.683981	-2.996400	3.018500	-9.043900	28.729284	-9.983235E-6	20.808897
2546.687309	-2.979500	3.017500	-8.989300	28.680740	-1.014825E-5	20.796985
2547.688626	-2.986200	3.015900	-9.004300	28.628412	-1.044527E-5	20.825361
2548.684097	-3.017800	3.013900	-9.094300	28.669791	-7.508053E-6	20.798285
2549.687253	-2.994000	3.013100	-9.020900	28.694920	-1.008224E-5	20.816009
2550.688001	-3.001900	3.012600	-9.042300	28.697817	-1.110532E-5	20.801384
2551.692247	-2.978900	3.010300	-8.966500	28.678914	-1.110532E-5	20.819328
2552.686893	-3.018800	3.008600	-9.081100	28.725672	-9.653211E-6	20.818535
2553.688364	-2.996400	3.007300	-9.009900	28.772623	-9.224179E-6	20.806085
2554.684907	-3.008500	3.006000	-9.042000	28.772510	-8.498126E-6	20.813558
2555.688525	-3.008100	3.004100	-9.035600	28.825773	-1.021425E-5	20.816002
2556.688977	-3.024600	3.003000	-9.081200	28.785332	-1.064328E-5	20.814145
2557.687637	-2.998700	3.002300	-9.002500	28.745005	-1.028026E-5	20.796758
2558.688786	-2.972000	3.002000	-8.921100	28.752570	-8.894155E-6	20.812912
2559.685765	-2.997900	2.999000	-8.989700	28.742466	-1.183137E-5	20.812217
2560.694081	-3.000000	2.997200	-8.991100	28.641255	-9.455196E-6	20.810321
2561.687480	-3.005100	2.995100	-8.999500	28.639323	-1.084130E-5	20.825444
2562.690518	-2.973000	2.995200	-8.904300	28.677643	-9.950233E-6	20.826107
2563.688538	-3.000500	2.994100	-8.982900	28.651028	-1.163336E-5	20.834862
2564.692927	-3.029300	2.991500	-9.061400	28.669518	-1.143534E-5	20.813657
2565.689478	-2.987100	2.989900	-8.929900	28.746899	-8.861153E-6	20.820476
2566.690291	-2.984700	2.990800	-8.925600	28.780222	-9.752218E-6	20.812317
2567.694584	-3.001700	2.988500	-8.969600	28.688406	-1.044527E-5	20.823672
2568.695223	-3.007500	2.986000	-8.979900	28.654763	-9.422194E-6	20.816814
2569.693418	-3.005500	2.985400	-8.971800	28.654723	-1.117132E-5	20.831472
2570.696626	-3.004900	2.983500	-8.964300	28.705191	-1.051127E-5	20.813552
2571.695106	-3.014800	2.981400	-8.987800	28.762061	-1.235941E-5	20.817256
2572.691547	-3.006000	2.980000	-8.956800	28.784671	-9.191177E-6	20.837660
2573.693727	-2.998900	2.979200	-8.933500	28.827407	-1.133634E-5	20.828079
2574.689745	-3.009400	2.978000	-8.960700	28.805163	-1.080830E-5	20.815155
2575.691456	-3.010300	2.975800	-8.957200	28.805861	-1.047827E-5	20.845255
2576.691169	-2.985400	2.975800	-8.882200	28.822335	-8.630136E-6	20.822022
2577.696500	-3.013200	2.973900	-8.958900	28.823131	-1.130333E-5	20.841315
2578.692606	-3.011200	2.971300	-8.946400	28.925242	-1.094031E-5	20.829437
2579.691790	-3.000900	2.970000	-8.911800	28.876885	-9.785221E-6	20.835723
2580.695610	-2.978700	2.969700	-8.844700	28.811185	-1.061028E-5	20.845876
2581.694455	-2.992000	2.967500	-8.878200	28.806413	-8.729143E-6	20.827794
2582.692601	-3.013300	2.966300	-8.937000	28.720482	-1.305246E-5	20.846023
2583.692047	-2.984500	2.963500	-8.843700	28.726650	-9.950233E-6	20.850339
2584.692554	-2.991000	2.962400	-8.859200	28.709640	-1.255743E-5	20.846007
2585.689923	-3.025800	2.959900	-8.954200	28.703641	-1.047827E-5	20.821475
2586.691139	-2.989800	2.961000	-8.851900	28.759634	-1.054428E-5	20.852269
2587.690307	-3.008300	2.957900	-8.898000	28.812175	-9.257182E-6	20.832649
2588.691221	-2.995300	2.956200	-8.853500	28.858545	-1.133634E-5	20.826730
2589.691114	-2.980000	2.956000	-8.807200	28.918547	-1.090730E-5	20.853511
2590.691709	-3.034600	2.952700	-8.959300	28.849611	-7.871080E-6	20.844756
2591.691813	-2.997100	2.952400	-8.848400	28.813262	-1.074229E-5	20.842279
2592.692920	-3.005200	2.949600	-8.863300	28.857491	-9.356189E-6	20.858384
2593.693106	-2.983000	2.949100	-8.796200	28.886299	-1.133634E-5	20.821499
2594.691136	-2.989600	2.948400	-8.812900	28.938565	-1.196338E-5	20.839541
2595.696789	-2.998800	2.944800	-8.830200	28.968938	-9.224179E-6	20.836950
2596.696586	-3.001000	2.944300	-8.835300	28.939871	-9.026165E-6	20.854132
2597.698812	-3.000400	2.943900	-8.830900	28.908168	-1.169936E-5	20.844004
2598.698869	-3.006600	2.941700	-8.843600	28.865021	-9.158175E-6	20.857910
2599.694542	-2.993500	2.939900	-8.799900	28.839645	-7.475051E-6	20.836140
2600.696679	-3.013700	2.938200	-8.853400	28.830759	-1.047827E-5	20.877921
2601.694408	-3.002500	2.936700	-8.816600	28.799742	-9.983235E-6	20.845729
2602.698670	-3.006100	2.935100	-8.821900	28.792511	-1.117132E-5	20.827540
2603.698078	-2.974800	2.932700	-8.723800	28.766306	-9.686214E-6	20.850455
2604.696261	-3.010700	2.931300	-8.823700	28.804173	-1.150135E-5	20.867261
2605.696188	-3.004700	2.929100	-8.799900	28.803377	-9.884228E-6	20.854132
2606.694873	-2.993900	2.928800	-8.767700	28.846787	-1.031326E-5	20.839067
2607.700694	-3.012200	2.926100	-8.813000	28.807565	-9.950233E-6	20.866885
2608.697277	-3.012900	2.924800	-8.810000	28.873558	-1.196338E-5	20.823362
2609.699429	-2.997100	2.925000	-8.764400	28.924413	-1.034626E-5	20.860369
2610.697021	-3.020800	2.920000	-8.819400	28.987778	-8.795148E-6	20.857353
2611.704280	-3.026600	2.918100	-8.831100	29.030182	-9.389192E-6	20.856454
2612.704948	-3.031700	2.917300	-8.842800	29.092096	-1.097331E-5	20.848663
2613.701642	-3.042300	2.914200	-8.863900	29.144823	-1.044527E-5	20.855325
2614.697914	-3.019200	2.914000	-8.797100	29.106180	-1.018125E-5	20.857638
2615.705289	-3.002800	2.913600	-8.747500	28.966737	-9.818223E-6	20.873612
2616.702912	-2.992700	2.910300	-8.708100	28.944196	-1.021425E-5	20.859911
2617.702501	-3.015400	2.909200	-8.771300	28.952327	-9.785221E-6	20.864309
2618.705405	-2.995600	2.907000	-8.706200	28.936836	-1.150135E-5	20.864350
2619.705370	-3.006700	2.906200	-8.737300	28.957738	-1.100631E-5	20.885881
2620.703537	-2.965700	2.904100	-8.612000	28.964084	-1.189738E-5	20.871887
2621.701210	-2.964300	2.903300	-8.605300	28.871357	-1.202939E-5	20.859551
2622.703092	-2.994700	2.901500	-8.688600	28.902324	-1.163336E-5	20.869883
2623.702765	-2.979300	2.900000	-8.638800	28.929054	-8.795148E-6	20.887802
2624.704861	-3.005200	2.896000	-8.702300	28.981561	-1.018125E-5	20.866736
2625.706091	-2.980700	2.895900	-8.630300	29.006228	-9.752218E-6	20.882578
2626.704763	-3.006000	2.892000	-8.692500	28.978470	-1.011525E-5	20.884957
2627.708555	-2.994900	2.891800	-8.660300	28.890005	-1.136934E-5	20.875491
2628.709324	-2.995900	2.889700	-8.656300	28.872809	-9.554204E-6	20.869073
2629.704685	-3.003200	2.887600	-8.670800	28.931122	-9.917231E-6	20.883722
2630.706127	-2.990100	2.886300	-8.629400	28.964018	-9.389192E-6	20.860915
2631.705285	-2.993400	2.884100	-8.632700	28.997204	-1.011525E-5	20.887711
2632.702773	-2.990900	2.883400	-8.623100	29.043494	-8.762145E-6	20.888831
2633.708263	-3.007000	2.880500	-8.660800	29.112936	-1.189738E-5	20.855437
2634.705474	-3.011000	2.878900	-8.667000	29.019023	-1.127033E-5	20.906373
2635.707710	-3.008600	2.876700	-8.653500	29.013537	-1.011525E-5	20.879985
2636.709899	-3.013500	2.874500	-8.661700	29.036232	-9.785221E-6	20.865394
2637.711327	-3.017000	2.873700	-8.669500	29.048792	-9.455196E-6	20.878997
2638.709574	-2.992300	2.872300	-8.593800	29.015565	-1.001624E-5	20.872072
2639.708480	-2.998000	2.869800	-8.602200	29.014957	-1.156735E-5	20.888528
2640.711309	-3.015400	2.866100	-8.641800	29.001350	-1.146834E-5	20.882879
2641.712350	-2.995700	2.865700	-8.584200	29.048036	-9.587206E-6	20.871598
2642.712484	-3.000800	2.864800	-8.595100	29.105220	-7.970087E-6	20.887963
2643.709820	-3.029800	2.860000	-8.663700	29.035127	-1.080830E-5	20.877083
2644.709835	-2.988100	2.858800	-8.541500	29.028572	-7.805075E-6	20.860048
2645.713125	-2.987200	2.856900	-8.532800	29.011946	-8.960160E-6	20.871745
2646.711983	-3.026700	2.854900	-8.640600	29.025448	-1.166636E-5	20.891037
2647.711567	-2.975400	2.852900	-8.487800	29.028174	-1.140234E-5	20.876715
2648.714446	-3.018500	2.851000	-8.604900	28.990249	-1.064328E-5	20.884497
2649.711545	-3.017400	2.847400	-8.590700	29.010656	-1.008224E-5	20.852902
2650.710678	-3.013300	2.847000	-8.577700	29.036669	-9.785221E-6	20.871525
2651.715079	-3.009000	2.845000	-8.559300	29.119661	-1.097331E-5	20.862688
2652.716345	-2.983100	2.842700	-8.479400	29.200618	-8.795148E-6	20.840428
2653.715848	-2.982900	2.841300	-8.474900	29.271073	-8.630136E-6	20.861167
2654.716458	-2.985800	2.840100	-8.479300	29.267090	-9.191177E-6	20.873274
2655.718995	-2.977500	2.837600	-8.447200	29.229726	-8.894155E-6	20.855535
2656.717465	-3.033800	2.833000	-8.594100	29.192929	-9.224179E-6	20.869187
2657.716033	-3.005300	2.831600	-8.508900	29.203304	-1.061028E-5	20.866367
2658.718925	-2.992700	2.830600	-8.469900	29.176898	-9.521201E-6	20.859197
2659.715201	-2.965900	2.828700	-8.388900	29.216868	-9.785221E-6	20.869129
2660.719375	-3.000400	2.824600	-8.474400	29.172939	-9.686214E-6	20.864217
2661.717000	-2.979700	2.822800	-8.409800	29.196693	-9.818223E-6	20.853541
2662.722179	-2.996500	2.820600	-8.451100	29.146483	-8.234107E-6	20.836136
2663.714410	-2.975600	2.818700	-8.386100	29.190722	-1.133634E-5	20.849895
2664.717682	-2.998900	2.815400	-8.441700	29.193205	-9.455196E-6	20.861405
2665.720323	-2.998600	2.813400	-8.435200	29.185270	-9.587206E-6	20.842505
2666.717797	-2.992100	2.810700	-8.408400	29.181384	-9.257182E-6	20.840012
2667.721596	-2.992800	2.808400	-8.403700	29.128926	-8.300111E-6	20.848791
2668.722552	-2.973000	2.806200	-8.342300	29.178634	-1.008224E-5	20.850990
2669.721432	-3.024300	2.801300	-8.471000	29.229223	-9.950233E-6	20.856925
2670.721332	-3.002600	2.800700	-8.408400	29.262750	-8.993162E-6	20.865107
2671.725437	-2.983800	2.799000	-8.351100	29.306936	-9.125172E-6	20.850369
2672.721367	-2.992000	2.796600	-8.366500	29.376977	-8.696141E-6	20.852208
2673.721747	-2.991800	2.793000	-8.355300	29.435432	-9.554204E-6	20.835736
2674.722729	-2.992100	2.790900	-8.350300	29.460251	-1.041227E-5	20.835148
2675.722546	-3.016100	2.786100	-8.401600	29.446819	-9.125172E-6	20.857644
2676.723299	-2.996700	2.784100	-8.342000	29.421692	-1.041227E-5	20.847965
2677.725341	-2.991900	2.780000	-8.316600	29.468710	-9.026165E-6	20.821863
2678.726755	-3.002400	2.777900	-8.339200	29.472692	-9.323187E-6	20.848161
2679.722416	-2.988000	2.776000	-8.294000	29.492603	-8.927158E-6	20.834567
2680.731535	-2.989200	2.771700	-8.284000	29.499407	-1.054428E-5	20.845218
2681.722389	-2.968400	2.770100	-8.221900	29.539025	-1.054428E-5	20.816877
2682.724330	-2.992500	2.767600	-8.281200	29.540403	-1.028026E-5	20.842447
2683.729197	-2.991900	2.763900	-8.268500	29.561788	-1.202939E-5	20.838400
2684.725332	-2.964900	2.763000	-8.191100	29.592995	-1.090730E-5	20.837142
2685.724141	-2.974500	2.758400	-8.203700	29.575665	-1.014825E-5	20.863293
2686.726276	-3.027400	2.754700	-8.338600	29.558504	-1.156735E-5	20.838409
2687.728334	-3.030800	2.750000	-8.333300	29.534264	-1.245842E-5	20.840526
2688.727569	-3.005900	2.748200	-8.259800	29.572178	-8.267109E-6	20.826589
2689.731774	-3.002800	2.745300	-8.242800	29.525611	-1.163336E-5	20.851718
2690.729476	-3.023700	2.740500	-8.285500	29.545731	-1.176537E-5	20.832172
2691.730050	-2.992800	2.737800	-8.193400	29.446852	-1.074229E-5	20.820220
2692.730315	-2.997800	2.736100	-8.201200	29.446099	-1.064328E-5	20.818512
2693.730734	-3.016400	2.730800	-8.236500	29.413534	-1.054428E-5	20.816035
2694.729484	-3.025800	2.726300	-8.248400	29.424329	-1.084130E-5	20.823597
2695.729133	-3.012800	2.723500	-8.205100	29.464736	-9.785221E-6	20.826867
2696.731142	-2.995100	2.722800	-8.153900	29.512968	-1.100631E-5	20.838500
2697.729123	-3.015700	2.717200	-8.193600	29.543964	-8.267109E-6	20.818063
2698.732972	-2.983100	2.714700	-8.096900	29.431346	-1.067629E-5	20.820238
2699.732132	-3.008400	2.710400	-8.151800	29.445774	-1.041227E-5	20.823875
2700.736961	-3.010900	2.706000	-8.146200	29.434581	-8.894155E-6	20.828240
2701.739652	-3.021400	2.701500	-8.161100	29.452344	-7.541055E-6	20.818170
2702.735888	-2.984000	2.697600	-8.049700	29.477746	-9.224179E-6	20.830023
2703.733992	-2.996000	2.693300	-8.067500	29.508589	-1.014825E-5	20.809904
2704.733895	-2.998400	2.691100	-8.067200	29.607325	-1.001624E-5	20.820769
2705.736542	-2.974000	2.685700	-7.986800	29.660716	-7.937085E-6	20.805842
2706.737469	-3.005500	2.682100	-8.060200	29.629358	-1.136934E-5	20.826386
2707.738783	-2.989300	2.678000	-8.004200	29.652647	-9.686214E-6	20.818096
2708.733636	-2.996000	2.672800	-8.007100	29.648074	-1.100631E-5	20.817753
2709.735267	-2.982400	2.669900	-7.961800	29.581659	-6.319965E-6	20.827138
2710.733795	-2.996800	2.665700	-7.987600	29.668914	-8.861153E-6	20.793718
2711.737907	-3.035900	2.660400	-8.075300	29.724840	-1.011525E-5	20.789411
2712.736661	-2.996800	2.656500	-7.959900	29.701049	-8.003089E-6	20.811418
2713.733236	-2.989800	2.650000	-7.921500	29.675231	-8.498126E-6	20.815734
2714.735312	-3.002900	2.647600	-7.949600	29.706905	-8.003089E-6	20.812580
2715.734149	-2.988800	2.641900	-7.895600	29.699356	-9.125172E-6	20.795960
2716.735245	-3.000300	2.637200	-7.910800	29.700864	-9.587206E-6	20.787523
2717.734525	-3.014700	2.632800	-7.935800	29.617699	-1.077529E-5	20.832649
2718.736825	-3.016600	2.625900	-7.920200	29.631727	-9.455196E-6	20.811705
2719.736650	-3.011900	2.621900	-7.896200	29.629133	-8.729143E-6	20.813356
2720.737553	-2.999100	2.616900	-7.847200	29.610717	-9.884228E-6	20.809490
2721.740108	-3.032400	2.611400	-7.917700	29.568515	-7.739070E-6	20.784491
2722.739097	-2.996600	2.606400	-7.809500	29.581522	-8.465124E-6	20.807560
2723.738585	-3.034100	2.600800	-7.889200	29.606517	-9.026165E-6	20.806678
2724.737549	-2.991900	2.595600	-7.765200	29.568239	-9.851226E-6	20.807446
2725.737914	-3.006300	2.588700	-7.782200	29.600937	-8.696141E-6	20.813381
2726.738020	-3.014800	2.582900	-7.785900	29.589260	-9.092170E-6	20.801609
2727.740865	-2.986400	2.580200	-7.704500	29.583267	-9.125172E-6	20.813586
2728.743424	-3.004000	2.572000	-7.725200	29.636700	-8.399119E-6	20.796803
2729.746807	-2.973900	2.568000	-7.636400	29.651214	-6.220958E-6	20.794840
2730.741136	-2.993900	2.560600	-7.665200	29.691872	-7.640063E-6	20.806433
2731.740081	-3.013700	2.554200	-7.696500	29.730874	-7.607060E-6	20.817779
2732.741643	-3.011700	2.549000	-7.676200	29.764361	-6.980014E-6	20.805550
2733.744186	-3.032400	2.541500	-7.706000	29.786812	-8.234107E-6	20.790728
2734.745010	-3.000300	2.536200	-7.608400	29.808298	-6.187956E-6	20.788685
2735.742975	-2.969600	2.530700	-7.514100	29.836683	-7.013017E-6	20.795020
2736.743469	-3.029500	2.523600	-7.644300	29.834826	-7.871080E-6	20.806424
2737.745195	-3.006600	2.517300	-7.567400	29.800004	-8.267109E-6	20.815409
2738.745809	-3.000300	2.510500	-7.531500	29.741690	-1.018125E-5	20.791227
2739.747858	-3.026700	2.504800	-7.580500	29.792813	-7.277036E-6	20.792985
2740.743483	-3.011700	2.498500	-7.523400	29.852331	-5.923936E-6	20.799893
