LabVIEW Measurement	
Writer_Version	2
Reader_Version	2
Separator	Tab
Decimal_Separator	.
Multi_Headings	No
X_Columns	One
Time_Pref	Absolute
Operator	admin
Description	Clolumns are: time, Current, Voltage, Power, Battery Temp, and Chamber Temp
Date	2024/08/16
Time	13:07:17.8513970375061035156
***End_of_Header***	
	
Channels	6						
Samples	1	1	1	1	1	1	
Date	2024/09/04	2024/09/04	2024/09/04	2024/09/04	2024/09/04	2024/09/04	
Time	20:48:59.7150526046752929688	20:48:59.7210407257080078125	20:48:59.7280430793762207031	20:48:59.6977734565734863281	20:48:59.6987895965576171875	20:48:59.6987895965576171875	
X_Dimension	Time	Time	Time	Time	Time	Time	
X0	0.0000000000000000E+0	0.0000000000000000E+0	0.0000000000000000E+0	0.0000000000000000E+0	0.0000000000000000E+0	0.0000000000000000E+0	
Delta_X	1.000000	1.000000	1.000000	1.000000	1.000000	1.000000	
***End_of_Header***							
X_Value	Untitled	Untitled 1	Untitled 2	Untitled 3	Untitled 4	Untitled 5	Comment
0.000000	-0.003715	4.087600	-0.015071	20.790359	0.000458	20.856264
1.000435	-3.004800	3.923200	-11.788000	20.784514	0.000456	20.859429
2.000675	-2.993700	3.918000	-11.728000	20.789479	0.000455	20.853489
3.000194	-3.006600	3.913400	-11.765000	20.800983	0.000455	20.861673
4.000006	-3.012900	3.909200	-11.778000	20.800007	0.000456	20.852163
4.999924	-3.011100	3.907400	-11.765000	20.794466	0.000454	20.869855
6.003132	-2.991000	3.905000	-11.679000	20.813606	0.000450	20.855804
6.999957	-3.003700	3.901200	-11.717000	20.836765	0.000454	20.875169
8.001967	-2.988700	3.900100	-11.656000	20.827329	0.000453	20.870001
9.001932	-2.981400	3.899000	-11.623000	20.834990	0.000451	20.869127
10.000660	-3.014400	3.895400	-11.742000	20.856723	0.000452	20.859567
11.001354	-3.004800	3.894900	-11.703000	20.848467	0.000451	20.878336
12.004288	-2.993000	3.894800	-11.656000	20.842179	0.000450	20.863040
13.005789	-3.021600	3.891500	-11.758000	20.867854	0.000447	20.880655
14.001384	-3.010100	3.891000	-11.711000	20.881956	0.000449	20.862991
15.002433	-3.013700	3.889400	-11.721000	20.862991	0.000448	20.870577
16.002356	-2.983000	3.890000	-11.603000	20.881779	0.000447	20.870400
17.004010	-2.988700	3.888400	-11.621000	20.898974	0.000447	20.871001
18.004133	-2.987700	3.886800	-11.613000	20.904515	0.000446	20.861844
19.005226	-2.990100	3.887200	-11.622000	20.913975	0.000446	20.873675
20.004096	-2.992200	3.886600	-11.629000	20.921086	0.000448	20.889795
21.003741	-3.027200	3.883400	-11.755000	20.919239	0.000446	20.877518
22.002835	-3.023600	3.884500	-11.743000	20.912329	0.000446	20.884831
23.012533	-2.975400	3.883900	-11.555000	20.955899	0.000445	20.871034
24.005334	-2.995300	3.883300	-11.631000	20.960389	0.000446	20.894015
25.006556	-2.987500	3.883100	-11.599000	20.943898	0.000444	20.864722
26.005590	-2.981800	3.882300	-11.575000	20.972393	0.000444	20.870461
27.007010	-3.000800	3.881300	-11.647000	20.968253	0.000443	20.865846
28.006374	-3.013200	3.880400	-11.691000	20.978683	0.000444	20.865372
29.011271	-2.981900	3.880900	-11.571000	21.006179	0.000445	20.890500
30.010954	-3.024600	3.880800	-11.736000	21.002637	0.000443	20.876528
31.010169	-3.028300	3.878700	-11.745000	21.016934	0.000444	20.869490
32.010220	-2.992800	3.878800	-11.607000	21.023722	0.000443	20.893822
33.008403	-2.982900	3.878900	-11.569000	21.027164	0.000444	20.891101
34.007947	-2.995400	3.878300	-11.616000	21.048221	0.000443	20.889877
35.013541	-2.988000	3.877500	-11.586000	21.045054	0.000441	20.888133
36.008600	-3.012500	3.877500	-11.681000	21.042384	0.000442	20.879772
37.010100	-3.010900	3.877900	-11.675000	21.059102	0.000441	20.890804
38.012319	-3.015200	3.875000	-11.683000	21.060450	0.000443	20.892151
39.010326	-3.004500	3.875800	-11.643000	21.093534	0.000441	20.903905
40.013781	-2.981100	3.875700	-11.553000	21.094680	0.000443	20.895570
41.016527	-3.004900	3.874100	-11.640000	21.096325	0.000442	20.887733
42.013400	-2.992700	3.875800	-11.598000	21.095551	0.000443	20.895492
43.012504	-3.011000	3.874100	-11.664000	21.094504	0.000443	20.883540
44.017282	-2.986700	3.874400	-11.570000	21.122496	0.000442	20.904900
45.014293	-3.026600	3.873300	-11.721000	21.128008	0.000443	20.913732
46.016095	-2.980700	3.874900	-11.548000	21.128408	0.000443	20.893745
47.019843	-2.997800	3.874000	-11.612000	21.136344	0.000442	20.897890
48.016653	-3.009000	3.871800	-11.650000	21.141633	0.000442	20.904128
49.036319	-3.000900	3.871300	-11.616000	21.153880	0.000441	20.884138
50.020397	-3.019100	3.873100	-11.693000	21.170393	0.000441	20.894018
51.016398	-3.009100	3.872400	-11.652000	21.193220	0.000441	20.890773
52.019463	-3.019000	3.872900	-11.691000	21.207139	0.000440	20.904222
53.021641	-3.006100	3.871200	-11.636000	21.187008	0.000443	20.890250
54.017684	-2.993000	3.872500	-11.590000	21.207089	0.000441	20.908440
55.017140	-2.991500	3.871400	-11.580000	21.232161	0.000441	20.905545
56.019547	-2.996900	3.871500	-11.602000	21.237870	0.000441	20.897508
57.020849	-3.010500	3.870000	-11.650000	21.255829	0.000442	20.903619
58.020149	-3.007900	3.869900	-11.639000	21.247849	0.000442	20.921238
59.020632	-3.001400	3.871700	-11.619000	21.276959	0.000443	20.922859
60.018161	-2.996700	3.869300	-11.594000	21.252660	0.000441	20.908035
61.020976	-2.976900	3.869600	-11.518000	21.277180	0.000443	20.906011
62.019947	-3.019300	3.868600	-11.679000	21.274237	0.000440	20.904490
63.019466	-3.001800	3.869700	-11.615000	21.300748	0.000440	20.924372
64.024393	-2.998500	3.869500	-11.602000	21.291371	0.000440	20.905510
65.026141	-2.972200	3.870400	-11.503000	21.302520	0.000442	20.919507
66.025272	-2.997900	3.868100	-11.595000	21.326390	0.000440	20.908302
67.023849	-3.009400	3.867900	-11.639000	21.340807	0.000440	20.925569
68.025375	-3.002400	3.868400	-11.614000	21.340206	0.000440	20.914063
69.022541	-3.005900	3.868600	-11.628000	21.357565	0.000440	20.945652
70.025225	-3.020900	3.868000	-11.684000	21.340256	0.000443	20.921699
71.028632	-2.984900	3.868000	-11.544000	21.359957	0.000440	20.931451
72.026747	-2.980600	3.868600	-11.529000	21.358761	0.000441	20.931749
73.028123	-2.970600	3.867900	-11.489000	21.375696	0.000440	20.917327
74.028629	-2.972300	3.868300	-11.497000	21.369458	0.000442	20.927206
75.023726	-3.004900	3.866600	-11.618000	21.382675	0.000439	20.921939
76.026087	-3.004900	3.867500	-11.620000	21.410559	0.000443	20.925181
77.028111	-2.976600	3.866900	-11.508000	21.394793	0.000441	20.915098
78.023571	-2.980200	3.866800	-11.523000	21.436571	0.000443	20.908535
79.027963	-3.002000	3.867100	-11.608000	21.431532	0.000442	20.912975
80.028391	-2.996700	3.866200	-11.584000	21.423875	0.000439	20.910056
81.024445	-3.005500	3.866000	-11.618000	21.438588	0.000443	20.927620
82.032076	-3.001100	3.865700	-11.601000	21.448013	0.000442	20.912871
83.026972	-2.996100	3.865300	-11.579000	21.471457	0.000442	20.909301
84.023645	-3.003700	3.865800	-11.611000	21.487616	0.000442	20.921675
85.030852	-3.007500	3.865600	-11.624000	21.491856	0.000443	20.927340
86.026956	-3.012000	3.865200	-11.640000	21.495972	0.000443	20.915338
87.024196	-3.003600	3.864500	-11.607000	21.485869	0.000442	20.918505
88.027400	-3.016000	3.864200	-11.653000	21.529712	0.000442	20.903108
89.028390	-2.998700	3.866100	-11.592000	21.509656	0.000443	20.902006
90.024905	-2.970300	3.864900	-11.479000	21.522696	0.000443	20.921690
91.029734	-3.010900	3.864800	-11.636000	21.529553	0.000443	20.911009
92.026900	-2.993400	3.864800	-11.568000	21.528680	0.000446	20.906342
93.024922	-2.995200	3.865300	-11.577000	21.526807	0.000442	20.897356
94.024803	-3.009500	3.865000	-11.631000	21.521644	0.000444	20.914000
95.025827	-3.004700	3.863300	-11.607000	21.569175	0.000445	20.905612
96.027820	-2.991700	3.864100	-11.560000	21.557927	0.000444	20.904788
97.028075	-2.960900	3.864500	-11.442000	21.571417	0.000443	20.905011
98.031620	-2.983700	3.864900	-11.531000	21.585332	0.000444	20.896651
99.029024	-3.020500	3.862800	-11.666000	21.594310	0.000444	20.922228
100.030069	-2.998300	3.864200	-11.585000	21.601837	0.000447	20.885193
101.032503	-2.981000	3.862800	-11.514000	21.595625	0.000445	20.907898
102.030195	-2.990300	3.863400	-11.551000	21.611137	0.000444	20.908722
103.031913	-2.982900	3.862700	-11.521000	21.626200	0.000446	20.906726
104.032139	-2.985200	3.863400	-11.532000	21.609391	0.000445	20.904130
105.029216	-2.994200	3.861600	-11.561000	21.633101	0.000446	20.897038
106.029605	-2.996700	3.862000	-11.572000	21.653901	0.000448	20.896043
107.034071	-2.996500	3.862600	-11.573000	21.644750	0.000447	20.898264
108.031792	-3.016900	3.862200	-11.651000	21.657315	0.000447	20.891872
109.032451	-2.999500	3.860600	-11.578000	21.688511	0.000448	20.891324
110.032795	-2.979100	3.861300	-11.502000	21.675267	0.000447	20.913629
111.032675	-3.001500	3.862100	-11.591000	21.705267	0.000446	20.909040
112.036866	-2.988800	3.862500	-11.544000	21.706361	0.000447	20.915824
113.035960	-2.996100	3.860900	-11.566000	21.713567	0.000448	20.904544
114.032623	-2.990800	3.860100	-11.544000	21.718453	0.000447	20.877195
115.032694	-2.991100	3.860400	-11.546000	21.743387	0.000449	20.891242
116.039830	-3.010800	3.860600	-11.622000	21.738074	0.000448	20.911053
117.034450	-3.000100	3.859800	-11.579000	21.762335	0.000449	20.871326
118.035933	-3.007200	3.860200	-11.608000	21.771810	0.000447	20.886498
119.033614	-2.995200	3.860700	-11.562000	21.769940	0.000448	20.885101
120.034110	-2.998500	3.859000	-11.570000	21.752359	0.000448	20.873196
121.032536	-3.023000	3.859900	-11.667000	21.769265	0.000448	20.891537
122.032394	-2.999500	3.860800	-11.579000	21.795892	0.000449	20.887841
123.035664	-2.979900	3.861300	-11.506000	21.764401	0.000450	20.901841
124.032532	-2.994700	3.858900	-11.554000	21.778286	0.000451	20.900091
125.035074	-2.994700	3.858300	-11.553000	21.792774	0.000449	20.874764
126.034308	-2.995800	3.858900	-11.560000	21.807832	0.000450	20.886990
127.035557	-2.990300	3.859300	-11.539000	21.794190	0.000450	20.870492
128.034919	-3.004700	3.859500	-11.596000	21.822843	0.000450	20.883048
129.038999	-3.006000	3.859200	-11.599000	21.827354	0.000449	20.876658
130.034659	-3.003800	3.858300	-11.589000	21.839520	0.000452	20.879352
131.038912	-3.016300	3.857300	-11.634000	21.830365	0.000451	20.853595
132.039421	-2.990800	3.858400	-11.539000	21.879183	0.000451	20.883490
133.037395	-2.992400	3.858400	-11.544000	21.841013	0.000451	20.888432
134.037770	-3.000400	3.857500	-11.573000	21.855696	0.000453	20.875154
135.042006	-3.007100	3.855700	-11.592000	21.860235	0.000452	20.875904
136.038563	-2.988600	3.857700	-11.529000	21.882298	0.000453	20.873806
137.039352	-3.022400	3.856200	-11.653000	21.890872	0.000452	20.880965
138.041877	-3.002600	3.857300	-11.581000	21.892043	0.000454	20.869335
139.040164	-3.001500	3.858100	-11.579000	21.920288	0.000454	20.872952
140.040100	-2.980700	3.856300	-11.494000	21.925248	0.000453	20.852788
141.042018	-3.009000	3.855500	-11.600000	21.929088	0.000454	20.871329
142.039332	-3.009500	3.855400	-11.602000	21.945664	0.000456	20.879861
143.039055	-2.996500	3.855300	-11.552000	21.956435	0.000455	20.873573
144.041842	-3.007100	3.855600	-11.594000	21.955510	0.000456	20.868854
145.037253	-2.992200	3.856400	-11.539000	21.959173	0.000456	20.883899
146.038444	-2.986100	3.856600	-11.515000	22.000778	0.000455	20.869125
147.042429	-3.007600	3.854400	-11.592000	22.013617	0.000456	20.856373
148.038350	-3.001700	3.855700	-11.573000	22.013614	0.000454	20.853526
149.043850	-3.021700	3.854300	-11.646000	22.034802	0.000457	20.878528
150.048733	-2.992200	3.854300	-11.532000	22.033480	0.000456	20.868196
151.042351	-3.011100	3.853400	-11.602000	22.031310	0.000454	20.863654
152.043930	-2.994400	3.854500	-11.541000	22.030413	0.000455	20.872238
153.046106	-2.997900	3.853700	-11.551000	22.027692	0.000458	20.846282
154.044929	-2.994500	3.852900	-11.537000	22.045016	0.000457	20.856512
155.042661	-3.004700	3.854100	-11.580000	22.024201	0.000458	20.868864
156.047258	-3.007700	3.854900	-11.593000	22.041299	0.000457	20.873653
157.046453	-3.005500	3.854400	-11.583000	22.058725	0.000458	20.848899
158.044855	-3.021000	3.851100	-11.633000	22.034892	0.000458	20.865342
159.049547	-2.992100	3.853400	-11.528000	22.063235	0.000461	20.862897
160.045497	-2.981800	3.854400	-11.492000	22.052691	0.000458	20.834325
161.050147	-3.002500	3.852900	-11.567000	22.065051	0.000460	20.857602
162.049445	-2.985300	3.854000	-11.504000	22.078513	0.000460	20.861596
163.044565	-2.957400	3.853600	-11.396000	22.095038	0.000460	20.840682
164.047754	-2.994800	3.852900	-11.538000	22.105309	0.000459	20.864240
165.047987	-3.004400	3.851500	-11.570000	22.107327	0.000460	20.859149
166.044095	-2.994900	3.851000	-11.533000	22.129284	0.000460	20.857423
167.048138	-3.009300	3.851400	-11.590000	22.147207	0.000461	20.860194
168.048900	-3.002600	3.852100	-11.565000	22.155233	0.000460	20.845471
169.046094	-3.004500	3.850300	-11.568000	22.140227	0.000460	20.828077
170.048897	-2.984900	3.851400	-11.495000	22.142069	0.000462	20.865481
171.047406	-2.984100	3.851500	-11.492000	22.175471	0.000462	20.841551
172.046004	-3.012400	3.850700	-11.599000	22.193440	0.000463	20.857644
173.046176	-3.016100	3.850800	-11.613000	22.195659	0.000464	20.836634
174.053841	-2.977200	3.850300	-11.462000	22.221006	0.000463	20.861063
175.046014	-3.011800	3.850200	-11.595000	22.247823	0.000463	20.853775
176.052590	-3.005200	3.849600	-11.568000	22.231395	0.000462	20.848706
177.048615	-2.996600	3.849500	-11.535000	22.243110	0.000465	20.831513
178.051806	-3.004600	3.849200	-11.564000	22.245076	0.000462	20.842964
179.047017	-3.024900	3.848100	-11.639000	22.218433	0.000464	20.835728
180.048018	-2.994300	3.850000	-11.527000	22.249785	0.000465	20.838195
181.048818	-2.979500	3.849700	-11.469000	22.262893	0.000466	20.838518
182.049808	-2.990800	3.848600	-11.509000	22.264343	0.000464	20.844712
183.053570	-2.964400	3.850600	-11.413000	22.265608	0.000464	20.845504
184.050368	-2.989300	3.848500	-11.504000	22.254342	0.000465	20.846551
185.050590	-2.987600	3.849400	-11.499000	22.302093	0.000466	20.828931
186.051341	-3.004700	3.847300	-11.558000	22.313158	0.000464	20.855657
187.049203	-3.005400	3.847800	-11.563000	22.301743	0.000466	20.841857
188.051016	-2.999500	3.848500	-11.542000	22.304009	0.000465	20.830376
189.052836	-3.006000	3.846700	-11.561000	22.314799	0.000467	20.831223
190.051425	-2.997100	3.847700	-11.530000	22.292119	0.000466	20.832695
191.053330	-3.004700	3.847100	-11.559000	22.305800	0.000468	20.837859
192.056488	-2.981600	3.848000	-11.471000	22.308192	0.000467	20.830297
193.053939	-3.007900	3.846800	-11.570000	22.325688	0.000468	20.832643
194.054659	-2.977100	3.847000	-11.452000	22.328254	0.000469	20.839954
195.056990	-3.017600	3.845400	-11.602000	22.343203	0.000467	20.844018
196.058432	-2.974500	3.846400	-11.441000	22.360002	0.000469	20.847562
197.058824	-3.010500	3.846600	-11.579000	22.368324	0.000472	20.845465
198.058709	-3.000600	3.845100	-11.537000	22.357260	0.000471	20.834860
199.058826	-2.990800	3.845800	-11.501000	22.353593	0.000473	20.830715
200.063480	-3.008600	3.845400	-11.568000	22.382576	0.000471	20.852150
201.056341	-2.987800	3.846600	-11.492000	22.390799	0.000471	20.819608
202.058656	-3.017800	3.844400	-11.601000	22.425736	0.000470	20.841791
203.063989	-3.012700	3.844600	-11.581000	22.393911	0.000471	20.841690
204.060524	-2.998900	3.845700	-11.532000	22.397173	0.000473	20.849224
205.063294	-2.960900	3.845700	-11.386000	22.411678	0.000473	20.839093
206.061013	-2.984500	3.844000	-11.472000	22.382468	0.000473	20.825016
207.063036	-2.976400	3.844800	-11.443000	22.392860	0.000474	20.799861
208.059706	-2.984100	3.844900	-11.472000	22.394330	0.000473	20.831204
209.062037	-2.996200	3.843300	-11.513000	22.389742	0.000473	20.843204
210.066188	-3.012800	3.843000	-11.577000	22.386777	0.000473	20.836916
211.061503	-3.017500	3.842500	-11.594000	22.414636	0.000476	20.830676
212.065995	-2.999600	3.843500	-11.528000	22.414336	0.000476	20.820893
213.066134	-2.999400	3.842400	-11.524000	22.444012	0.000474	20.827377
214.062376	-3.000600	3.842300	-11.529000	22.421907	0.000474	20.827526
215.069423	-2.995000	3.842400	-11.507000	22.481463	0.000475	20.827424
216.064671	-2.984500	3.843300	-11.469000	22.480015	0.000475	20.825027
217.062698	-3.007300	3.841200	-11.551000	22.511139	0.000477	20.838178
218.065600	-3.001500	3.842200	-11.531000	22.515398	0.000475	20.831064
219.070560	-3.010300	3.841600	-11.562000	22.491973	0.000475	20.814243
220.066304	-3.002700	3.841500	-11.534000	22.510262	0.000477	20.830662
221.067677	-2.999200	3.840900	-11.518000	22.513175	0.000477	20.825993
222.067708	-3.006000	3.841400	-11.547000	22.519253	0.000477	20.802683
223.066792	-2.995500	3.840600	-11.503000	22.533479	0.000478	20.829732
224.066869	-2.997200	3.840400	-11.510000	22.544769	0.000477	20.830134
225.068194	-2.983100	3.841500	-11.459000	22.539259	0.000479	20.817978
226.067654	-2.978800	3.840200	-11.438000	22.565122	0.000478	20.835345
227.069706	-2.989700	3.840600	-11.482000	22.552188	0.000479	20.818124
228.069883	-3.020900	3.840700	-11.602000	22.553085	0.000478	20.810014
229.068733	-2.995100	3.840500	-11.502000	22.579446	0.000479	20.813182
230.070207	-3.003300	3.840800	-11.534000	22.567734	0.000478	20.831798
231.069342	-3.007500	3.840000	-11.547000	22.585325	0.000479	20.827131
232.068671	-3.005800	3.839700	-11.541000	22.587291	0.000480	20.812030
233.076046	-3.000000	3.839400	-11.518000	22.583876	0.000481	20.822834
234.070582	-3.012500	3.837700	-11.560000	22.587688	0.000481	20.839928
235.074678	-3.004400	3.838000	-11.530000	22.600172	0.000480	20.821613
236.072787	-3.015000	3.837700	-11.569000	22.590677	0.000483	20.823008
237.077174	-3.011800	3.836700	-11.555000	22.622643	0.000483	20.823256
238.076499	-2.995200	3.837700	-11.494000	22.641626	0.000484	20.799597
239.074595	-2.986300	3.838700	-11.463000	22.649225	0.000484	20.815742
240.076754	-2.990200	3.837800	-11.473000	22.650519	0.000483	20.814194
241.078400	-3.004900	3.836900	-11.529000	22.647354	0.000485	20.786368
242.081288	-3.013900	3.837000	-11.564000	22.640826	0.000484	20.813968
243.077374	-3.006500	3.836000	-11.533000	22.654327	0.000485	20.836973
244.076362	-2.984100	3.836900	-11.449000	22.653333	0.000486	20.809899
245.076227	-2.994400	3.836300	-11.486000	22.673936	0.000485	20.818682
246.076241	-2.988100	3.836000	-11.461000	22.686068	0.000486	20.795747
247.078698	-2.992100	3.836400	-11.477000	22.700841	0.000486	20.818131
248.078055	-2.996700	3.835500	-11.493000	22.693090	0.000487	20.796142
249.078925	-3.000900	3.835000	-11.507000	22.706272	0.000486	20.807449
250.077132	-3.002800	3.836000	-11.518000	22.716609	0.000488	20.803580
251.079648	-2.999600	3.835500	-11.504000	22.735367	0.000489	20.810990
252.079754	-3.018800	3.833800	-11.573000	22.753602	0.000489	20.808867
253.078233	-2.991000	3.835300	-11.470000	22.762122	0.000489	20.816928
254.079528	-2.987400	3.835300	-11.457000	22.760576	0.000489	20.819172
255.078963	-2.999300	3.834300	-11.498000	22.739301	0.000490	20.806869
256.080625	-3.013800	3.833400	-11.552000	22.755219	0.000489	20.807642
257.081347	-2.980100	3.833100	-11.422000	22.743457	0.000491	20.809610
258.082004	-3.005300	3.833600	-11.520000	22.752998	0.000492	20.807314
259.081210	-3.009400	3.832400	-11.532000	22.755539	0.000491	20.808911
260.085231	-3.013400	3.832000	-11.546000	22.750729	0.000491	20.796032
261.082706	-3.014000	3.832900	-11.552000	22.759824	0.000490	20.788547
262.083466	-3.019200	3.831900	-11.568000	22.773645	0.000493	20.789116
263.079715	-3.001200	3.832400	-11.501000	22.778953	0.000490	20.799649
264.081438	-3.016800	3.832700	-11.562000	22.802991	0.000489	20.781529
265.082482	-3.027200	3.831000	-11.597000	22.791181	0.000493	20.814743
266.083204	-3.008200	3.831800	-11.525000	22.776285	0.000493	20.799346
267.082495	-3.001300	3.831000	-11.497000	22.806077	0.000491	20.784147
268.083402	-3.001000	3.832700	-11.500000	22.814171	0.000492	20.793203
269.083848	-2.985400	3.831800	-11.439000	22.839951	0.000492	20.778726
270.084994	-2.999800	3.830600	-11.490000	22.849268	0.000492	20.808448
271.085856	-3.001100	3.830900	-11.496000	22.860925	0.000494	20.783616
272.084784	-2.987800	3.830900	-11.444000	22.888401	0.000493	20.788857
273.084581	-2.976900	3.830000	-11.401000	22.891538	0.000493	20.789629
274.084708	-2.991000	3.829900	-11.455000	22.899482	0.000493	20.801381
275.083922	-2.998700	3.830500	-11.485000	22.885656	0.000494	20.786581
276.086381	-2.991700	3.829900	-11.457000	22.907152	0.000495	20.799582
277.086267	-3.009500	3.829000	-11.523000	22.888072	0.000495	20.785208
278.086292	-2.997600	3.829100	-11.477000	22.869735	0.000493	20.820417
279.086763	-3.017400	3.828500	-11.551000	22.881342	0.000495	20.800278
280.085622	-2.993000	3.829800	-11.461000	22.894791	0.000495	20.806164
281.086384	-3.014900	3.828100	-11.540000	22.894642	0.000496	20.795109
282.090607	-3.013600	3.827600	-11.533000	22.915538	0.000496	20.783802
283.086566	-3.003400	3.827900	-11.495000	22.966202	0.000496	20.791888
284.086623	-3.007300	3.829400	-11.515000	22.979476	0.000496	20.788117
285.086584	-3.005000	3.827400	-11.501000	22.971131	0.000497	20.781179
286.089561	-2.995700	3.828800	-11.469000	22.990631	0.000495	20.803087
287.087653	-3.005800	3.828200	-11.505000	22.962759	0.000501	20.820680
288.086383	-3.010700	3.828000	-11.524000	22.945447	0.000498	20.779153
289.088852	-3.016600	3.826600	-11.541000	22.943827	0.000499	20.796971
290.088056	-2.993600	3.827200	-11.456000	22.944073	0.000500	20.787260
291.085842	-2.999100	3.826400	-11.475000	22.959663	0.000500	20.789603
292.086667	-3.026700	3.827600	-11.584000	22.983623	0.000499	20.794643
293.085429	-3.003900	3.827000	-11.495000	23.025838	0.000503	20.795215
294.087949	-2.997500	3.826100	-11.468000	23.019936	0.000502	20.802577
295.088881	-2.989700	3.825600	-11.436000	23.042000	0.000501	20.799080
296.088966	-3.004800	3.824900	-11.493000	23.060728	0.000502	20.789871
297.088313	-3.000100	3.824200	-11.472000	23.058536	0.000501	20.800950
298.091630	-2.997500	3.824700	-11.463000	23.079504	0.000502	20.791614
299.089992	-3.005300	3.824000	-11.491000	23.080525	0.000502	20.814922
300.092223	-3.010800	3.824400	-11.513000	23.062987	0.000502	20.787392
301.092283	-3.014400	3.822300	-11.521000	23.092125	0.000501	20.794778
302.090895	-3.023000	3.823300	-11.556000	23.100442	0.000503	20.790309
303.091242	-3.003200	3.823700	-11.482000	23.095706	0.000502	20.796469
304.092060	-3.007100	3.824000	-11.498000	23.101135	0.000502	20.779149
305.093643	-2.995900	3.822500	-11.451000	23.093264	0.000505	20.799712
306.093448	-2.988800	3.823800	-11.428000	23.085267	0.000503	20.788380
307.094200	-3.006200	3.820900	-11.485000	23.124141	0.000505	20.789875
308.093108	-3.010100	3.823000	-11.506000	23.147652	0.000506	20.786407
309.094854	-2.980200	3.823300	-11.393000	23.119806	0.000504	20.801652
310.092905	-2.956300	3.823000	-11.301000	23.107751	0.000505	20.788624
311.092024	-2.978800	3.822400	-11.385000	23.120149	0.000504	20.802470
312.094656	-3.002700	3.821400	-11.473000	23.095967	0.000505	20.795308
313.096790	-2.997400	3.821400	-11.453000	23.095291	0.000506	20.794631
314.095074	-2.997000	3.821300	-11.452000	23.115414	0.000506	20.795354
315.096081	-3.021500	3.820700	-11.543000	23.140616	0.000507	20.792159
316.098648	-3.024900	3.819100	-11.551000	23.139695	0.000504	20.795029
317.095989	-3.015500	3.820000	-11.518000	23.151845	0.000507	20.781599
318.095563	-3.017400	3.818900	-11.522000	23.155380	0.000506	20.818333
319.099166	-3.002700	3.819700	-11.469000	23.197789	0.000509	20.798717
320.096553	-2.989700	3.819800	-11.419000	23.148876	0.000507	20.786685
321.097163	-3.008300	3.818300	-11.485000	23.150493	0.000508	20.796367
322.098003	-3.009200	3.818100	-11.488000	23.187723	0.000506	20.793845
323.095490	-2.988700	3.819900	-11.415000	23.162494	0.000510	20.786581
324.096296	-2.987900	3.818600	-11.408000	23.188070	0.000508	20.787555
325.099855	-3.000700	3.819400	-11.460000	23.229978	0.000509	20.802051
326.096127	-2.990300	3.817900	-11.416000	23.226540	0.000510	20.793864
327.098024	-2.983600	3.817800	-11.390000	23.244817	0.000509	20.807438
328.100450	-2.993100	3.817100	-11.424000	23.225517	0.000508	20.796158
329.096240	-3.008200	3.817300	-11.483000	23.226090	0.000511	20.797680
330.097968	-3.019400	3.816200	-11.522000	23.245933	0.000510	20.799548
331.096960	-3.014200	3.816000	-11.501000	23.226982	0.000510	20.787195
332.097635	-3.014200	3.816200	-11.502000	23.248945	0.000509	20.791661
333.097199	-2.986000	3.817300	-11.397000	23.250662	0.000510	20.826098
334.097012	-3.016600	3.815600	-11.507000	23.261817	0.000511	20.817363
335.100156	-3.012400	3.815200	-11.492000	23.248369	0.000512	20.808153
336.098811	-2.994600	3.815600	-11.426000	23.241146	0.000510	20.801863
337.100509	-3.000000	3.815400	-11.445000	23.243088	0.000511	20.806654
338.101195	-2.998500	3.814900	-11.438000	23.242962	0.000512	20.789458
339.098884	-3.010600	3.814300	-11.483000	23.234295	0.000512	20.802584
340.102882	-3.010400	3.814500	-11.482000	23.249661	0.000512	20.810870
341.100923	-3.001200	3.815000	-11.449000	23.275879	0.000510	20.787359
342.106370	-2.994600	3.814900	-11.422000	23.277052	0.000512	20.791380
343.104227	-3.007700	3.812900	-11.467000	23.249235	0.000513	20.828461
344.103422	-3.001800	3.813200	-11.446000	23.284695	0.000511	20.808996
345.101023	-3.004900	3.813000	-11.455000	23.311786	0.000512	20.830457
346.102193	-2.980300	3.813200	-11.363000	23.366915	0.000514	20.800836
347.104253	-2.979500	3.812900	-11.359000	23.378366	0.000514	20.811839
348.102721	-2.989300	3.813000	-11.397000	23.386036	0.000515	20.809570
349.100576	-2.997700	3.813500	-11.431000	23.377742	0.000516	20.798886
350.102967	-3.009900	3.812300	-11.474000	23.364572	0.000513	20.806075
351.101270	-3.000300	3.812100	-11.436000	23.360337	0.000516	20.787132
352.103979	-3.016600	3.812100	-11.499000	23.401173	0.000515	20.826163
353.104104	-3.000600	3.811500	-11.436000	23.402914	0.000515	20.808943
354.102339	-2.979300	3.811800	-11.355000	23.371941	0.000517	20.815831
355.105175	-2.991700	3.811600	-11.402000	23.368107	0.000515	20.829057
356.108730	-2.991800	3.811500	-11.402000	23.373584	0.000517	20.823167
357.108135	-3.012700	3.811000	-11.480000	23.368704	0.000515	20.827759
358.105429	-3.000600	3.810000	-11.432000	23.374457	0.000517	20.822620
359.110109	-3.014700	3.810200	-11.486000	23.359368	0.000517	20.809868
360.108420	-3.007100	3.809700	-11.455000	23.389794	0.000519	20.824241
361.108505	-2.999800	3.809900	-11.428000	23.365942	0.000518	20.804603
362.110548	-2.985700	3.811200	-11.378000	23.383421	0.000518	20.814535
363.109240	-2.992500	3.809200	-11.398000	23.412875	0.000517	20.807547
364.114843	-2.994000	3.807400	-11.398000	23.437499	0.000520	20.809468
365.108489	-2.986500	3.807900	-11.372000	23.428488	0.000520	20.813239
366.111747	-3.007500	3.807900	-11.451000	23.469418	0.000519	20.805427
367.107168	-3.004100	3.807500	-11.437000	23.477115	0.000520	20.813141
368.110014	-3.004900	3.809100	-11.446000	23.481917	0.000517	20.792825
369.111367	-3.002400	3.807600	-11.431000	23.461602	0.000520	20.807549
370.109329	-3.004100	3.809300	-11.442000	23.458241	0.000519	20.802758
371.107820	-3.014600	3.806000	-11.473000	23.450674	0.000521	20.807501
372.109077	-2.998400	3.806600	-11.413000	23.437900	0.000519	20.810818
373.109361	-3.009100	3.805900	-11.451000	23.451593	0.000521	20.808423
374.109906	-3.015500	3.807000	-11.478000	23.483785	0.000521	20.838318
375.109831	-3.007900	3.804600	-11.442000	23.462399	0.000520	20.819253
376.114995	-2.981700	3.806800	-11.349000	23.471959	0.000523	20.823620
377.110013	-2.997600	3.806000	-11.407000	23.493919	0.000522	20.808648
378.110160	-2.985300	3.806600	-11.363000	23.512315	0.000525	20.823769
379.123635	-2.967200	3.805900	-11.292000	23.532308	0.000521	20.814413
380.109402	-2.991400	3.804400	-11.380000	23.511470	0.000521	20.803956
381.110282	-3.007900	3.804300	-11.443000	23.534871	0.000521	20.817930
382.119697	-3.006200	3.802600	-11.429000	23.545201	0.000522	20.809793
383.109803	-3.016400	3.803400	-11.471000	23.509876	0.000523	20.834600
384.109419	-2.992400	3.804100	-11.382000	23.535716	0.000522	20.805501
385.114238	-3.003200	3.803500	-11.421000	23.552172	0.000523	20.819152
386.111315	-3.004400	3.804200	-11.429000	23.522721	0.000523	20.822347
387.111590	-3.004000	3.804400	-11.428000	23.545178	0.000525	20.823047
388.112964	-3.012900	3.802500	-11.456000	23.555733	0.000524	20.822247
389.111578	-3.011000	3.803000	-11.450000	23.537534	0.000522	20.827237
390.111675	-3.019800	3.801100	-11.478000	23.552841	0.000524	20.826461
391.111938	-2.987500	3.802500	-11.359000	23.558742	0.000524	20.822419
392.117162	-2.980600	3.802300	-11.332000	23.557648	0.000524	20.831753
393.114223	-2.979500	3.802500	-11.328000	23.567182	0.000525	20.821397
394.114633	-2.997100	3.801000	-11.390000	23.537135	0.000524	20.847226
395.113082	-2.982000	3.801600	-11.335000	23.536036	0.000525	20.831426
396.113904	-2.980300	3.800800	-11.327000	23.561455	0.000524	20.829880
397.114021	-3.000400	3.800400	-11.402000	23.591800	0.000523	20.811937
398.115937	-3.004900	3.800400	-11.418000	23.563919	0.000525	20.832824
399.115767	-3.002700	3.799400	-11.407000	23.573505	0.000526	20.826312
400.113672	-3.027800	3.800200	-11.505000	23.607931	0.000524	20.824788
401.115075	-3.006300	3.797900	-11.417000	23.616172	0.000524	20.827834
402.113690	-3.016900	3.798300	-11.458000	23.638026	0.000526	20.837414
403.113812	-3.013300	3.798800	-11.447000	23.632599	0.000525	20.843826
404.115267	-3.018700	3.798000	-11.464000	23.594760	0.000526	20.835766
405.119289	-2.998300	3.798200	-11.388000	23.607754	0.000525	20.842628
406.114527	-2.989700	3.797300	-11.351000	23.625079	0.000525	20.827279
407.116287	-3.004000	3.797600	-11.407000	23.619128	0.000524	20.849289
408.116137	-3.022600	3.797000	-11.475000	23.616365	0.000524	20.810009
409.113776	-2.982300	3.797800	-11.325000	23.595430	0.000525	20.819842
410.115024	-3.004900	3.797700	-11.411000	23.624133	0.000526	20.836288
411.113275	-3.007600	3.797000	-11.419000	23.662416	0.000525	20.827727
412.115469	-2.999900	3.797200	-11.390000	23.668364	0.000529	20.841750
413.117604	-2.967900	3.798900	-11.273000	23.652957	0.000525	20.832468
414.117863	-2.993100	3.794300	-11.356000	23.663236	0.000527	20.838506
415.121347	-2.978700	3.796200	-11.306000	23.668340	0.000527	20.835562
416.117572	-3.018700	3.795400	-11.456000	23.684395	0.000528	20.840752
417.118229	-3.001500	3.795500	-11.390000	23.736067	0.000527	20.833288
418.120850	-2.996600	3.796400	-11.376000	23.724667	0.000526	20.819963
419.117864	-2.991000	3.795400	-11.351000	23.713666	0.000528	20.832640
420.118914	-3.006700	3.794000	-11.407000	23.743411	0.000529	20.842547
421.119906	-3.003400	3.794800	-11.397000	23.721854	0.000527	20.838479
422.117753	-3.010000	3.793700	-11.418000	23.742537	0.000527	20.835508
423.122034	-3.001200	3.794200	-11.387000	23.742585	0.000528	20.819909
424.121352	-3.035200	3.793200	-11.512000	23.710577	0.000526	20.841871
425.118563	-3.005100	3.793400	-11.399000	23.752617	0.000527	20.832812
426.117780	-3.019000	3.793100	-11.450000	23.758016	0.000529	20.847233
427.119638	-2.989600	3.794100	-11.342000	23.753886	0.000527	20.858739
428.117428	-2.993900	3.791900	-11.352000	23.748283	0.000529	20.838424
429.117305	-3.004100	3.792100	-11.391000	23.731033	0.000527	20.838198
430.118711	-3.012600	3.791100	-11.420000	23.764511	0.000530	20.862754
431.120394	-3.005900	3.790700	-11.394000	23.772402	0.000529	20.846958
432.122433	-3.010000	3.791300	-11.411000	23.796745	0.000529	20.856666
433.120316	-3.010700	3.791300	-11.413000	23.801571	0.000529	20.862928
434.120951	-3.002500	3.790000	-11.379000	23.779570	0.000531	20.854145
435.122355	-3.004900	3.791000	-11.391000	23.808142	0.000530	20.875205
436.121459	-3.016500	3.790800	-11.434000	23.811252	0.000531	20.848453
437.120682	-2.983400	3.790600	-11.307000	23.821431	0.000530	20.852021
438.125278	-3.003700	3.789600	-11.382000	23.853861	0.000531	20.852770
439.121285	-2.997000	3.788700	-11.353000	23.860529	0.000533	20.858033
440.120861	-2.992300	3.789500	-11.338000	23.861175	0.000531	20.849199
441.120961	-2.977800	3.790500	-11.286000	23.830837	0.000531	20.828736
442.123038	-2.997400	3.789400	-11.358000	23.832902	0.000529	20.852143
443.124166	-2.996900	3.789000	-11.354000	23.843528	0.000532	20.845729
444.123680	-3.028100	3.788600	-11.471000	23.825433	0.000531	20.858879
445.123559	-3.007400	3.787500	-11.389000	23.845542	0.000530	20.879040
446.121199	-3.022300	3.786500	-11.442000	23.841833	0.000531	20.875322
447.120361	-2.981200	3.789300	-11.296000	23.841334	0.000533	20.871502
448.127254	-3.003000	3.787700	-11.373000	23.843250	0.000534	20.872949
449.122087	-2.987400	3.786700	-11.312000	23.887648	0.000533	20.871950
450.123195	-2.988500	3.785900	-11.313000	23.879312	0.000533	20.863591
451.124014	-2.994800	3.787200	-11.341000	23.858655	0.000532	20.866585
452.120357	-3.007800	3.784100	-11.381000	23.856414	0.000533	20.890415
453.121516	-2.991500	3.786400	-11.326000	23.877221	0.000534	20.868606
454.121015	-3.014800	3.784700	-11.409000	23.887248	0.000534	20.885772
455.122696	-3.001800	3.786600	-11.365000	23.915768	0.000533	20.861267
456.121815	-3.006100	3.784900	-11.377000	23.907455	0.000534	20.875215
457.122699	-3.000800	3.784700	-11.357000	23.917507	0.000533	20.875812
458.124469	-3.019200	3.783800	-11.423000	23.907352	0.000535	20.888387
459.122842	-2.999500	3.785100	-11.353000	23.934928	0.000534	20.882849
460.124723	-3.004600	3.783900	-11.368000	23.936421	0.000535	20.883398
461.122729	-3.010100	3.784300	-11.390000	23.955555	0.000533	20.885042
462.123114	-2.991000	3.783300	-11.315000	23.960257	0.000535	20.872214
463.122588	-2.997200	3.784000	-11.340000	23.961426	0.000533	20.886187
464.124943	-3.002200	3.782400	-11.354000	23.998430	0.000534	20.883467
465.122393	-2.975000	3.784500	-11.258000	23.984741	0.000534	20.875430
466.124387	-2.982500	3.783300	-11.282000	23.986009	0.000534	20.880494
467.126901	-2.988500	3.782700	-11.304000	23.978966	0.000535	20.880544
468.125036	-2.995300	3.782700	-11.330000	23.968288	0.000535	20.862724
469.129034	-3.006100	3.780300	-11.364000	23.985658	0.000536	20.882039
470.129342	-3.006900	3.780800	-11.368000	23.937131	0.000533	20.884584
471.124001	-3.010500	3.782300	-11.385000	23.959851	0.000533	20.871333
472.125335	-2.990300	3.781800	-11.307000	23.972566	0.000532	20.879816
473.128161	-2.998000	3.781500	-11.335000	23.990034	0.000535	20.883582
474.123865	-2.989500	3.780300	-11.300000	23.956513	0.000533	20.875572
475.124188	-2.993500	3.781400	-11.318000	23.977665	0.000535	20.868808
476.124205	-2.999800	3.780600	-11.340000	23.999935	0.000536	20.886872
477.125442	-3.005800	3.779100	-11.358000	24.029596	0.000534	20.874419
478.124045	-3.012400	3.779100	-11.383000	24.014268	0.000533	20.904090
479.123674	-2.997200	3.778600	-11.325000	24.040121	0.000535	20.888767
480.124930	-2.989200	3.779800	-11.298000	24.037956	0.000534	20.891337
481.126535	-2.981100	3.779700	-11.266000	24.042060	0.000534	20.884548
482.127056	-2.984500	3.778900	-11.278000	24.038152	0.000533	20.900068
483.128783	-3.000300	3.778700	-11.337000	24.043227	0.000535	20.880503
484.126720	-2.977500	3.778800	-11.250000	24.045641	0.000534	20.903310
485.130843	-2.993900	3.777100	-11.307000	24.046933	0.000536	20.896072
486.128672	-2.990700	3.776700	-11.295000	24.036581	0.000534	20.914138
487.127345	-2.990000	3.779200	-11.298000	24.059476	0.000534	20.900590
488.133960	-2.999800	3.777100	-11.330000	24.080972	0.000535	20.913139
489.135495	-2.995700	3.777800	-11.317000	24.107422	0.000534	20.911691
490.129985	-3.003000	3.777100	-11.342000	24.095977	0.000533	20.899265
491.130445	-3.011100	3.777000	-11.372000	24.091348	0.000534	20.902683
492.130864	-3.004200	3.777200	-11.346000	24.078086	0.000535	20.910718
493.134923	-3.022200	3.775400	-11.408000	24.076967	0.000536	20.903433
494.129292	-3.029500	3.774600	-11.435000	24.067759	0.000536	20.904155
495.130354	-2.998700	3.775400	-11.321000	24.092889	0.000533	20.906599
496.133316	-2.998300	3.774800	-11.317000	24.127999	0.000537	20.904828
497.130106	-2.998600	3.776000	-11.322000	24.143648	0.000537	20.892549
498.131880	-2.983900	3.774500	-11.261000	24.126005	0.000537	20.896666
499.135980	-2.958900	3.774800	-11.169000	24.131082	0.000536	20.893697
500.130969	-2.993400	3.773600	-11.295000	24.123741	0.000535	20.910514
501.132575	-3.006700	3.773300	-11.344000	24.144292	0.000535	20.912160
502.133872	-2.987100	3.774400	-11.274000	24.130211	0.000536	20.912736
503.130583	-3.007200	3.773500	-11.347000	24.126676	0.000537	20.891175
504.132893	-2.962800	3.774900	-11.182000	24.097911	0.000535	20.905471
505.134398	-3.008700	3.772800	-11.350000	24.128913	0.000535	20.910960
506.131775	-3.009700	3.772300	-11.353000	24.157079	0.000536	20.914554
507.138970	-2.996900	3.770700	-11.299000	24.162379	0.000535	20.897111
508.134463	-2.990300	3.770700	-11.275000	24.177207	0.000536	20.912457
509.133346	-3.002200	3.771400	-11.322000	24.196887	0.000535	20.921289
510.136242	-2.998600	3.771300	-11.308000	24.245079	0.000535	20.900404
511.138708	-3.001500	3.769600	-11.314000	24.238808	0.000534	20.927302
512.133260	-3.000600	3.769300	-11.309000	24.260028	0.000536	20.922035
513.135392	-3.006900	3.770000	-11.335000	24.242761	0.000535	20.927000
514.136015	-3.001500	3.770000	-11.315000	24.247588	0.000538	20.903868
515.141128	-2.984900	3.769100	-11.250000	24.241242	0.000538	20.941596
516.139561	-2.963200	3.771500	-11.175000	24.222433	0.000537	20.922257
517.137790	-3.019500	3.768600	-11.378000	24.234748	0.000536	20.929393
518.138779	-2.965700	3.769400	-11.178000	24.210190	0.000537	20.934158
519.135771	-3.000500	3.767700	-11.303000	24.228750	0.000536	20.944238
520.136972	-3.001200	3.767100	-11.305000	24.223349	0.000535	20.921279
521.142967	-3.011900	3.767100	-11.344000	24.197549	0.000536	20.919583
522.138857	-3.019900	3.766100	-11.373000	24.193989	0.000536	20.926917
523.136588	-3.017400	3.766500	-11.364000	24.226631	0.000536	20.936898
524.141754	-2.985500	3.767500	-11.247000	24.266682	0.000538	20.944354
525.135543	-2.983200	3.767200	-11.237000	24.263352	0.000535	20.934850
526.137403	-2.971000	3.767400	-11.192000	24.240336	0.000536	20.947324
527.137809	-2.995500	3.765800	-11.279000	24.263648	0.000537	20.933251
528.138043	-3.005000	3.766200	-11.317000	24.242275	0.000536	20.947372
529.139061	-2.975800	3.767700	-11.211000	24.217744	0.000536	20.936044
530.151763	-3.000300	3.766700	-11.300000	24.249837	0.000537	20.948793
531.141282	-3.008100	3.763900	-11.322000	24.254787	0.000535	20.949965
532.138066	-3.000200	3.764500	-11.292000	24.317506	0.000536	20.909517
533.140461	-3.000100	3.764600	-11.293000	24.297775	0.000536	20.946620
534.142104	-2.996700	3.764800	-11.281000	24.324021	0.000537	20.925534
535.140907	-2.979500	3.765000	-11.217000	24.311457	0.000536	20.949438
536.137803	-3.003300	3.764300	-11.303000	24.305411	0.000535	20.949537
537.139129	-2.994600	3.764800	-11.273000	24.327452	0.000537	20.968325
538.142612	-2.992700	3.763300	-11.261000	24.279289	0.000535	20.947516
539.140978	-2.995500	3.763000	-11.271000	24.260729	0.000536	20.947390
540.140956	-2.999900	3.762600	-11.286000	24.291031	0.000537	20.948388
541.143796	-2.999800	3.762300	-11.285000	24.254605	0.000536	20.927500
542.145232	-2.998600	3.764000	-11.285000	24.283018	0.000536	20.951256
543.142462	-3.019400	3.761000	-11.356000	24.310558	0.000537	20.955647
544.143506	-3.005000	3.761600	-11.303000	24.327873	0.000537	20.976333
545.141472	-3.010100	3.761500	-11.322000	24.347525	0.000538	20.963806
546.143173	-3.004500	3.761700	-11.302000	24.378669	0.000536	20.947636
547.140182	-2.999000	3.759800	-11.274000	24.390784	0.000537	20.940824
548.141043	-2.985100	3.760900	-11.226000	24.381107	0.000537	20.973785
549.141357	-2.998700	3.759700	-11.273000	24.400857	0.000537	20.944291
550.141115	-2.995700	3.760300	-11.264000	24.406504	0.000538	20.950903
551.144641	-3.004800	3.760400	-11.299000	24.397276	0.000536	20.962981
552.142541	-3.001800	3.759900	-11.286000	24.412697	0.000537	20.964701
553.141647	-3.016600	3.758500	-11.337000	24.433220	0.000536	20.961583
554.144479	-3.003600	3.760100	-11.293000	24.441278	0.000538	20.981992
555.141945	-3.009400	3.760600	-11.316000	24.368441	0.000537	20.955392
556.152913	-3.008300	3.758400	-11.305000	24.367497	0.000536	20.984313
557.147056	-2.982100	3.759100	-11.210000	24.390855	0.000536	20.957489
558.145621	-2.985500	3.758000	-11.219000	24.408194	0.000535	20.960184
559.145098	-3.010600	3.758100	-11.313000	24.389537	0.000536	20.959959
560.147754	-3.003900	3.757300	-11.286000	24.402795	0.000536	20.969940
561.145685	-3.011600	3.758100	-11.317000	24.394587	0.000536	20.959336
562.148023	-3.018400	3.757100	-11.340000	24.424811	0.000537	20.964052
563.149364	-3.026200	3.757600	-11.370000	24.404388	0.000536	20.962056
564.146389	-3.022000	3.756900	-11.352000	24.394164	0.000536	20.959385
565.149379	-3.004100	3.757600	-11.287000	24.383045	0.000537	20.962455
566.150460	-2.988700	3.757200	-11.228000	24.395658	0.000536	20.961832
567.145754	-3.015300	3.755700	-11.323000	24.404836	0.000534	20.959660
568.146963	-2.991200	3.756300	-11.235000	24.427473	0.000536	20.956766
569.146745	-2.998000	3.756000	-11.260000	24.421302	0.000535	20.954843
570.153820	-2.998200	3.756100	-11.261000	24.451800	0.000534	20.964575
571.148679	-3.013100	3.754700	-11.312000	24.420683	0.000535	20.967970
572.148359	-3.009800	3.754800	-11.299000	24.467968	0.000534	20.962779
573.149701	-3.005000	3.753800	-11.279000	24.475556	0.000534	20.962805
574.149748	-2.991600	3.754500	-11.231000	24.421230	0.000535	20.939125
575.150284	-3.001000	3.753200	-11.262000	24.407201	0.000535	20.948284
576.152380	-2.985800	3.754600	-11.210000	24.390262	0.000536	20.967798
577.151635	-3.002100	3.754200	-11.270000	24.417648	0.000535	20.950230
578.150372	-2.971400	3.753900	-11.154000	24.430634	0.000535	20.942396
579.153450	-2.990400	3.753900	-11.225000	24.452798	0.000534	20.952302
580.151378	-2.981500	3.753000	-11.188000	24.465980	0.000533	20.931865
581.150740	-3.018900	3.750900	-11.322000	24.462574	0.000536	20.944567
582.152978	-2.999900	3.752700	-11.256000	24.441581	0.000534	20.929672
583.152344	-3.004200	3.751400	-11.268000	24.416531	0.000534	20.945791
584.151609	-2.996400	3.752500	-11.243000	24.451555	0.000537	20.959115
585.150737	-2.996200	3.752500	-11.241000	24.455485	0.000535	20.944093
586.150660	-3.017100	3.751300	-11.317000	24.444068	0.000536	20.957293
587.150564	-2.998700	3.751600	-11.250000	24.473270	0.000536	20.951031
588.153995	-2.992400	3.752600	-11.229000	24.480707	0.000537	20.949008
589.151648	-3.000700	3.750600	-11.254000	24.488567	0.000536	20.926552
590.153239	-2.991200	3.750900	-11.219000	24.481976	0.000536	20.942696
591.152516	-3.010300	3.749000	-11.285000	24.504338	0.000537	20.938106
592.153665	-2.987700	3.750900	-11.206000	24.505979	0.000537	20.936433
593.155444	-3.031400	3.749700	-11.366000	24.510829	0.000539	20.932765
594.155902	-2.976500	3.749300	-11.158000	24.520054	0.000537	20.940123
595.156528	-3.013600	3.748500	-11.296000	24.532543	0.000536	20.936533
596.156044	-3.000000	3.747800	-11.242000	24.518987	0.000534	20.923881
597.158008	-2.991400	3.749700	-11.216000	24.538088	0.000535	20.935933
598.158038	-3.010700	3.746900	-11.279000	24.542067	0.000538	20.925227
599.156831	-2.977100	3.748400	-11.159000	24.535377	0.000535	20.937479
600.156256	-3.004500	3.746500	-11.254000	24.498513	0.000537	20.935107
601.156996	-2.990700	3.747400	-11.207000	24.504809	0.000537	20.932889
602.160349	-2.990200	3.746600	-11.201000	24.483539	0.000537	20.940471
603.159147	-2.990200	3.747100	-11.203000	24.484185	0.000535	20.931638
604.158580	-2.995100	3.747200	-11.222000	24.472021	0.000538	20.928443
605.157640	-3.000800	3.747100	-11.244000	24.468738	0.000534	20.949328
606.159308	-3.006300	3.746500	-11.263000	24.475253	0.000536	20.924100
607.157693	-3.003500	3.745800	-11.250000	24.529775	0.000537	20.922852
608.161247	-2.992800	3.745500	-11.209000	24.550992	0.000536	20.928491
609.159114	-2.969500	3.746200	-11.123000	24.527784	0.000537	20.924173
610.160520	-2.969200	3.746000	-11.122000	24.531638	0.000535	20.936099
611.163939	-3.016200	3.743700	-11.291000	24.557456	0.000535	20.925020
612.158970	-2.984400	3.745300	-11.177000	24.503481	0.000535	20.930608
613.159135	-2.977900	3.744000	-11.148000	24.504051	0.000537	20.934499
614.159081	-3.008400	3.744500	-11.264000	24.499773	0.000536	20.920725
615.162533	-2.984400	3.745500	-11.178000	24.533574	0.000536	20.927611
616.160980	-3.004600	3.743700	-11.248000	24.558173	0.000536	20.930481
617.159172	-2.997400	3.743900	-11.221000	24.589385	0.000537	20.917703
618.160775	-3.002500	3.742900	-11.238000	24.609381	0.000533	20.917852
619.164549	-3.002000	3.743300	-11.236000	24.601422	0.000535	20.904178
620.164625	-2.996600	3.741800	-11.211000	24.599357	0.000536	20.927708
621.162818	-2.996500	3.743300	-11.215000	24.604656	0.000535	20.912637
622.163428	-2.998800	3.742500	-11.223000	24.606743	0.000535	20.919472
623.167253	-2.986900	3.741800	-11.175000	24.616666	0.000534	20.915205
624.163488	-3.011600	3.742700	-11.271000	24.636538	0.000536	20.917126
625.164243	-3.011700	3.740700	-11.265000	24.620073	0.000535	20.923364
626.166646	-3.016600	3.741300	-11.285000	24.635467	0.000534	20.912259
627.163628	-2.974700	3.741700	-11.129000	24.608359	0.000532	20.913982
628.165242	-2.984300	3.740500	-11.162000	24.590676	0.000535	20.916628
629.163289	-2.992000	3.740600	-11.191000	24.578961	0.000533	20.922416
630.164520	-2.973100	3.740800	-11.121000	24.551577	0.000534	20.915330
631.165451	-2.976700	3.740200	-11.132000	24.554163	0.000531	20.908916
632.164002	-3.003600	3.739500	-11.231000	24.553094	0.000533	20.911636
633.162552	-2.989900	3.739500	-11.180000	24.540359	0.000534	20.908342
634.164752	-2.992100	3.738800	-11.186000	24.535210	0.000531	20.910288
635.164346	-2.998100	3.740200	-11.212000	24.549637	0.000531	20.904375
636.165549	-3.017700	3.738400	-11.280000	24.580304	0.000531	20.891050
637.164491	-3.005600	3.738200	-11.235000	24.597069	0.000529	20.903129
638.165790	-3.003900	3.738200	-11.228000	24.554811	0.000532	20.918574
639.168530	-3.008900	3.737900	-11.246000	24.562099	0.000531	20.909292
640.164970	-2.987300	3.738700	-11.168000	24.594136	0.000530	20.914883
641.164266	-2.995600	3.737600	-11.196000	24.613859	0.000531	20.911915
642.169394	-3.011500	3.737600	-11.255000	24.588911	0.000530	20.898263
643.167299	-2.985200	3.737200	-11.155000	24.579139	0.000532	20.906476
644.165551	-3.003600	3.736500	-11.222000	24.623037	0.000533	20.901211
645.168385	-3.006700	3.737900	-11.238000	24.642684	0.000530	20.902432
646.166929	-2.997900	3.734900	-11.196000	24.667007	0.000530	20.914510
647.167202	-2.983600	3.736500	-11.147000	24.632987	0.000531	20.905030
648.172112	-2.987300	3.735300	-11.157000	24.632364	0.000530	20.885440
649.168170	-3.006400	3.735900	-11.231000	24.655122	0.000530	20.891206
650.166160	-2.982900	3.735000	-11.140000	24.662385	0.000531	20.895649
651.170491	-2.992100	3.735300	-11.175000	24.681783	0.000531	20.909897
652.170345	-3.007500	3.734800	-11.231000	24.686881	0.000531	20.920702
653.167775	-3.006700	3.734000	-11.226000	24.692576	0.000528	20.906978
654.169513	-2.996100	3.734400	-11.188000	24.700361	0.000532	20.912418
655.174728	-2.996100	3.734900	-11.189000	24.634631	0.000531	20.897197
656.168577	-3.003500	3.733300	-11.212000	24.630627	0.000529	20.908352
657.172340	-3.004300	3.734600	-11.219000	24.648509	0.000530	20.910648
658.172200	-3.008300	3.733600	-11.231000	24.640105	0.000529	20.897474
659.171167	-3.002000	3.733200	-11.206000	24.644134	0.000530	20.882078
660.171507	-3.001200	3.731900	-11.199000	24.664129	0.000532	20.899296
661.171196	-3.003700	3.731300	-11.207000	24.637269	0.000530	20.877087
662.173190	-2.990800	3.733200	-11.165000	24.635777	0.000530	20.900244
663.172521	-2.975600	3.733500	-11.107000	24.699793	0.000531	20.881505
664.171683	-3.008700	3.731800	-11.227000	24.710761	0.000527	20.905786
665.177188	-3.015000	3.731900	-11.250000	24.746570	0.000530	20.901892
666.173219	-2.994900	3.730900	-11.172000	24.721678	0.000529	20.882604
667.173062	-2.989500	3.731300	-11.154000	24.721529	0.000529	20.897626
668.175611	-3.005800	3.730300	-11.211000	24.689275	0.000527	20.878537
669.175606	-2.987100	3.730400	-11.142000	24.664329	0.000529	20.888118
670.173379	-2.980600	3.731400	-11.121000	24.662191	0.000527	20.889765
671.173311	-2.988500	3.730100	-11.147000	24.712925	0.000529	20.880459
672.177656	-3.012700	3.729200	-11.233000	24.730829	0.000529	20.912173
673.173301	-3.019100	3.729400	-11.258000	24.707976	0.000529	20.891612
674.176118	-3.007700	3.728200	-11.212000	24.711333	0.000529	20.901144
675.175233	-3.000300	3.728400	-11.185000	24.755099	0.000529	20.893383
676.173794	-3.020000	3.729200	-11.261000	24.759800	0.000525	20.896202
677.174951	-3.014800	3.727700	-11.238000	24.737941	0.000527	20.883277
678.176503	-3.012700	3.727800	-11.230000	24.753657	0.000527	20.888617
679.173751	-3.020300	3.728700	-11.261000	24.731997	0.000527	20.898173
680.175268	-3.015400	3.728400	-11.242000	24.714614	0.000525	20.875989
681.178648	-3.013000	3.727600	-11.230000	24.728964	0.000526	20.879958
682.176557	-3.001600	3.726700	-11.185000	24.698126	0.000525	20.890263
683.175621	-2.999300	3.726300	-11.175000	24.725209	0.000526	20.879035
684.175562	-2.977700	3.727200	-11.097000	24.731077	0.000525	20.886345
685.177993	-2.984800	3.727600	-11.125000	24.726899	0.000526	20.870300
686.174251	-2.987800	3.725100	-11.129000	24.737717	0.000526	20.877836
687.176046	-3.005900	3.726100	-11.199000	24.731401	0.000527	20.888093
688.178553	-3.019100	3.725900	-11.248000	24.781907	0.000524	20.870975
689.175292	-2.993900	3.725700	-11.154000	24.783772	0.000524	20.867157
690.177314	-3.003200	3.725000	-11.187000	24.784593	0.000525	20.882204
691.179266	-2.965000	3.726100	-11.047000	24.815204	0.000524	20.902492
692.182312	-3.009500	3.723700	-11.206000	24.809931	0.000524	20.881080
693.180046	-2.998800	3.725500	-11.171000	24.812991	0.000526	20.878935
694.178443	-3.006300	3.725300	-11.199000	24.771712	0.000523	20.888718
695.179721	-2.977700	3.725200	-11.092000	24.728566	0.000525	20.887619
696.178665	-2.991800	3.723900	-11.140000	24.717326	0.000522	20.886771
697.177953	-3.012700	3.724400	-11.219000	24.744853	0.000524	20.860817
698.179536	-2.971800	3.724700	-11.068000	24.736250	0.000521	20.892010
699.180655	-3.020600	3.720700	-11.238000	24.743685	0.000523	20.881455
700.180716	-2.981400	3.724000	-11.102000	24.795656	0.000522	20.883824
701.181602	-2.985000	3.724500	-11.116000	24.787824	0.000521	20.872646
702.179782	-2.991700	3.723700	-11.139000	24.824277	0.000521	20.862288
703.185341	-3.024100	3.721900	-11.255000	24.834945	0.000522	20.886269
704.183146	-3.012100	3.721400	-11.208000	24.855483	0.000521	20.871321
705.181909	-3.011500	3.721600	-11.206000	24.847800	0.000521	20.875464
706.181259	-3.008200	3.722500	-11.197000	24.856976	0.000521	20.879457
707.181654	-3.011100	3.720300	-11.201000	24.811145	0.000520	20.885144
708.181964	-2.996700	3.720800	-11.149000	24.789339	0.000521	20.875114
709.183980	-3.014800	3.720200	-11.215000	24.763651	0.000519	20.896748
710.182620	-2.990000	3.720800	-11.123000	24.752412	0.000521	20.884048
711.189518	-3.002900	3.720800	-11.171000	24.758030	0.000520	20.860764
712.185112	-2.982900	3.720500	-11.097000	24.767257	0.000519	20.874764
713.194581	-2.983000	3.720100	-11.096000	24.797295	0.000519	20.864607
714.188867	-3.002500	3.719200	-11.165000	24.820248	0.000520	20.871046
715.185844	-3.001100	3.719700	-11.162000	24.817958	0.000522	20.879179
716.187175	-3.001700	3.717600	-11.158000	24.806074	0.000520	20.869150
717.188821	-3.023400	3.717800	-11.239000	24.830939	0.000520	20.878456
718.186235	-3.002600	3.718700	-11.165000	24.839742	0.000519	20.853628
719.187681	-3.028200	3.718600	-11.258000	24.849166	0.000520	20.869723
720.189810	-2.998800	3.718400	-11.150000	24.840365	0.000518	20.869425
721.185839	-3.003800	3.717800	-11.166000	24.855409	0.000520	20.863186
722.190068	-3.006000	3.717400	-11.174000	24.805079	0.000518	20.871470
723.197403	-3.004700	3.717800	-11.170000	24.821070	0.000521	20.885147
724.187197	-2.989400	3.716700	-11.109000	24.837755	0.000519	20.843573
725.187650	-3.003400	3.716300	-11.160000	24.849865	0.000520	20.854778
726.193207	-3.018600	3.716000	-11.216000	24.882015	0.000519	20.838208
727.188323	-2.967900	3.717000	-11.031000	24.865903	0.000518	20.853805
728.189305	-3.000900	3.715500	-11.149000	24.874258	0.000520	20.846070
729.187172	-2.993500	3.716900	-11.126000	24.871597	0.000519	20.866631
730.188738	-2.986500	3.715600	-11.096000	24.863144	0.000517	20.848192
731.188848	-2.998300	3.716600	-11.142000	24.849769	0.000519	20.846622
732.188469	-2.998800	3.715600	-11.142000	24.887338	0.000517	20.862041
733.188783	-3.006700	3.714600	-11.167000	24.865558	0.000517	20.848717
734.187763	-3.011500	3.715000	-11.186000	24.825872	0.000516	20.837338
735.199008	-3.018700	3.714000	-11.211000	24.837857	0.000517	20.846995
736.192317	-3.004600	3.714400	-11.159000	24.834651	0.000516	20.859897
737.189800	-3.000100	3.714000	-11.141000	24.827192	0.000517	20.840559
738.191560	-3.010000	3.713700	-11.178000	24.775048	0.000515	20.830428
739.192677	-2.991200	3.714100	-11.109000	24.799540	0.000518	20.845050
740.192522	-3.008800	3.713100	-11.171000	24.802674	0.000518	20.851040
741.192995	-3.007100	3.711900	-11.161000	24.833807	0.000515	20.840085
742.191179	-3.012100	3.713100	-11.182000	24.835150	0.000517	20.833372
743.190319	-2.986800	3.713000	-11.089000	24.815579	0.000515	20.847396
744.191996	-3.001500	3.713400	-11.145000	24.826049	0.000516	20.833248
745.197454	-3.011900	3.710600	-11.175000	24.841044	0.000515	20.829805
746.197529	-3.009400	3.711500	-11.168000	24.846787	0.000516	20.837940
747.193763	-2.978400	3.712700	-11.057000	24.870882	0.000516	20.833672
748.192806	-2.989800	3.711300	-11.095000	24.830549	0.000516	20.836342
749.192028	-2.987100	3.711200	-11.085000	24.805857	0.000515	20.827209
750.192802	-3.015100	3.709200	-11.182000	24.800188	0.000512	20.834321
751.191368	-2.976300	3.711200	-11.044000	24.848874	0.000515	20.851413
752.191872	-3.018200	3.709500	-11.195000	24.866480	0.000513	20.818823
753.193075	-2.986500	3.710100	-11.079000	24.851710	0.000514	20.834346
754.192625	-2.992100	3.711500	-11.104000	24.834948	0.000516	20.844549
755.193326	-2.985500	3.709400	-11.073000	24.817766	0.000514	20.826832
756.199308	-3.016000	3.709500	-11.186000	24.795063	0.000514	20.824437
757.203376	-3.006300	3.710000	-11.152000	24.812346	0.000514	20.822815
758.193103	-3.014400	3.708600	-11.178000	24.829801	0.000514	20.832746
759.198525	-3.005000	3.709800	-11.147000	24.824379	0.000514	20.832046
760.192136	-3.017300	3.707600	-11.185000	24.830098	0.000514	20.820716
761.194978	-3.006600	3.709800	-11.153000	24.825322	0.000512	20.829200
762.198067	-3.014600	3.708000	-11.177000	24.790063	0.000512	20.803297
763.206778	-3.013300	3.707800	-11.172000	24.770244	0.000512	20.835090
764.196779	-2.987000	3.707800	-11.074000	24.836164	0.000512	20.818270
765.194150	-2.992000	3.708200	-11.094000	24.824602	0.000511	20.832744
766.198244	-2.993100	3.707500	-11.096000	24.820026	0.000512	20.822462
767.203029	-3.013700	3.707700	-11.173000	24.845213	0.000512	20.810756
768.200069	-3.002600	3.707500	-11.131000	24.895118	0.000508	20.821962
769.198784	-3.004200	3.706400	-11.134000	24.894371	0.000510	20.813626
770.195933	-3.002400	3.706300	-11.126000	24.951061	0.000510	20.806040
771.195920	-3.015100	3.706000	-11.172000	24.918141	0.000511	20.844594
772.197190	-2.989700	3.706000	-11.079000	24.917569	0.000512	20.828848
773.195701	-3.000100	3.705500	-11.116000	24.969136	0.000512	20.815647
774.196800	-3.004800	3.705700	-11.133000	24.962473	0.000511	20.816545
775.200716	-2.984700	3.704500	-11.057000	24.929477	0.000508	20.817567
776.198764	-3.007900	3.704900	-11.142000	24.971993	0.000509	20.833688
777.199671	-3.015800	3.703600	-11.168000	24.954812	0.000509	20.815969
778.202797	-3.010000	3.704500	-11.150000	24.970974	0.000509	20.829820
779.202817	-2.997200	3.703600	-11.100000	24.971022	0.000511	20.810428
780.199464	-2.984900	3.704000	-11.055000	24.967913	0.000510	20.839076
781.208877	-2.999300	3.703300	-11.106000	24.943872	0.000510	20.812575
782.204494	-3.010100	3.703000	-11.146000	24.958864	0.000508	20.818139
783.200993	-3.016300	3.701400	-11.163000	24.997150	0.000510	20.807257
784.201466	-3.013500	3.702700	-11.156000	25.016916	0.000508	20.818562
785.203869	-2.990200	3.704500	-11.076000	24.997996	0.000510	20.812373
786.200171	-3.012600	3.704100	-11.158000	24.944168	0.000509	20.822355
787.201555	-3.003600	3.703700	-11.123000	24.929723	0.000508	20.806908
788.205602	-3.000500	3.702800	-11.109000	24.940212	0.000507	20.818858
789.204807	-2.985700	3.702500	-11.053000	24.942326	0.000507	20.805808
790.201346	-2.974100	3.702700	-11.011000	24.996328	0.000506	20.802164
791.201391	-3.009500	3.701500	-11.138000	24.997697	0.000508	20.794529
792.204953	-3.000700	3.701000	-11.105000	25.013408	0.000507	20.808876
793.200846	-2.993500	3.701300	-11.078000	25.053484	0.000505	20.818759
794.203665	-3.008600	3.699300	-11.129000	25.029245	0.000507	20.811972
795.210010	-2.991400	3.702200	-11.074000	25.061887	0.000505	20.811547
796.201537	-3.002600	3.699800	-11.108000	25.062905	0.000505	20.811146
797.202142	-3.003600	3.700100	-11.113000	25.051943	0.000504	20.819583
798.205246	-2.976500	3.700900	-11.014000	25.066659	0.000503	20.809225
799.204372	-3.011600	3.700200	-11.142000	25.020343	0.000503	20.815364
800.202507	-3.009900	3.699200	-11.133000	24.987301	0.000504	20.808276
801.202528	-3.016500	3.699900	-11.160000	24.975393	0.000502	20.805332
802.203219	-3.010300	3.699100	-11.135000	24.966069	0.000505	20.811620
803.201893	-2.988800	3.698900	-11.054000	24.962015	0.000503	20.814664
804.204457	-2.999100	3.698300	-11.091000	24.966640	0.000503	20.798443
805.207106	-2.995400	3.698000	-11.076000	24.965347	0.000502	20.804258
806.207809	-2.992300	3.698900	-11.068000	24.996997	0.000502	20.797620
807.204099	-2.995200	3.698000	-11.076000	24.983075	0.000501	20.781274
808.207025	-3.016300	3.697800	-11.153000	25.003311	0.000504	20.789259
809.207564	-2.981900	3.697900	-11.026000	24.998908	0.000503	20.785787
810.205998	-3.010600	3.696900	-11.129000	25.026481	0.000502	20.807774
811.204671	-3.009600	3.697200	-11.127000	25.037271	0.000501	20.806277
812.206999	-3.011500	3.697200	-11.133000	25.030732	0.000502	20.816309
813.204812	-2.997600	3.697000	-11.082000	25.051592	0.000502	20.811169
814.206821	-3.012400	3.695500	-11.132000	25.070284	0.000500	20.807174
815.206646	-2.983800	3.696400	-11.028000	25.079358	0.000501	20.804429
816.207746	-2.993100	3.696100	-11.061000	25.062552	0.000497	20.806050
817.207680	-3.009400	3.694800	-11.117000	25.020089	0.000498	20.806100
818.206129	-2.994900	3.694500	-11.064000	24.991198	0.000498	20.791799
819.207377	-2.975200	3.694400	-10.991000	24.986573	0.000499	20.796640
820.207182	-3.001800	3.695500	-11.091000	25.010440	0.000498	20.790251
821.207016	-2.979100	3.695100	-11.007000	25.009347	0.000499	20.795317
822.207174	-2.988000	3.694800	-11.039000	25.024064	0.000498	20.788279
823.206371	-2.999100	3.694200	-11.077000	25.051163	0.000498	20.807420
824.206976	-2.987000	3.694300	-11.034000	25.072790	0.000497	20.788352
825.206413	-2.983700	3.694100	-11.022000	25.089472	0.000499	20.810314
826.207808	-2.993900	3.693700	-11.058000	25.143265	0.000497	20.797933
827.209066	-2.999600	3.692000	-11.074000	25.098420	0.000497	20.797486
828.208640	-2.985600	3.693600	-11.027000	25.050116	0.000499	20.792618
829.209283	-3.020500	3.691100	-11.148000	25.039922	0.000497	20.807990
830.208366	-3.001000	3.693200	-11.082000	25.027242	0.000494	20.799056
831.211445	-3.000600	3.691800	-11.077000	25.012003	0.000497	20.796087
832.211225	-3.006700	3.692500	-11.101000	25.043078	0.000495	20.801201
833.209520	-3.025300	3.689700	-11.162000	25.032934	0.000497	20.806666
834.208043	-3.006500	3.691100	-11.096000	25.061325	0.000498	20.803396
835.210003	-2.986800	3.691000	-11.023000	25.047625	0.000496	20.816671
836.209620	-2.999400	3.691100	-11.070000	25.033578	0.000495	20.792139
837.214964	-3.006900	3.689600	-11.093000	25.056899	0.000495	20.802746
838.209359	-3.006700	3.689100	-11.092000	25.092100	0.000493	20.796357
839.214255	-3.024800	3.688800	-11.157000	25.051526	0.000493	20.789767
840.209679	-2.981100	3.689700	-10.999000	25.014981	0.000491	20.791015
841.211023	-3.011000	3.689300	-11.108000	24.999518	0.000493	20.818168
842.212409	-3.003800	3.688500	-11.077000	24.999492	0.000493	20.802969
843.211742	-3.001900	3.689000	-11.074000	25.009362	0.000493	20.805290
844.219004	-2.981700	3.688700	-10.998000	25.024304	0.000492	20.804167
845.211648	-2.982300	3.689400	-11.002000	25.033900	0.000493	20.800049
846.214151	-2.984700	3.689200	-11.010000	25.017490	0.000490	20.818190
847.215599	-2.997400	3.689300	-11.057000	25.027287	0.000495	20.801946
848.213651	-3.004800	3.688800	-11.083000	25.009189	0.000489	20.799900
849.214301	-3.007600	3.687700	-11.091000	24.996284	0.000490	20.817767
850.213684	-3.013300	3.688200	-11.113000	24.982187	0.000490	20.797927
851.215136	-3.011400	3.687700	-11.104000	24.999242	0.000490	20.792287
852.229645	-3.004100	3.687600	-11.076000	25.021518	0.000490	20.833138
853.217362	-3.005100	3.687000	-11.079000	25.041433	0.000491	20.815671
854.216598	-3.009500	3.685800	-11.092000	25.053490	0.000491	20.799799
855.214116	-3.011300	3.687500	-11.103000	25.058960	0.000490	20.801022
856.215386	-3.030300	3.684500	-11.164000	25.073702	0.000490	20.802070
857.217179	-3.001100	3.687200	-11.065000	25.019232	0.000490	20.819939
858.214400	-3.031700	3.683100	-11.164000	25.010655	0.000489	20.822235
859.214263	-3.015700	3.687000	-11.119000	25.039694	0.000488	20.812503
860.213857	-3.014900	3.684600	-11.108000	25.008318	0.000488	20.818941
861.217381	-2.993800	3.685500	-11.033000	25.009461	0.000487	20.789742
862.213600	-3.009300	3.684900	-11.089000	25.040887	0.000489	20.798053
863.214056	-3.006400	3.684700	-11.077000	25.051850	0.000488	20.797678
864.218482	-3.016600	3.683300	-11.111000	25.058065	0.000488	20.803443
865.219775	-2.991800	3.683400	-11.019000	25.072982	0.000485	20.814624
866.217648	-3.010700	3.682500	-11.085000	25.127299	0.000487	20.796130
867.217145	-2.980700	3.684100	-10.980000	25.120463	0.000488	20.804441
868.217172	-2.983500	3.685000	-10.992000	25.126255	0.000487	20.812152
869.215962	-2.999000	3.683000	-11.044000	25.126827	0.000488	20.819838
870.218388	-3.002800	3.684100	-11.061000	25.109128	0.000486	20.801596
871.215768	-2.989500	3.681900	-11.006000	25.114074	0.000486	20.820786
872.218108	-2.995400	3.683400	-11.032000	25.068207	0.000484	20.816943
873.218422	-3.004900	3.682500	-11.065000	25.045384	0.000487	20.811577
874.216747	-2.991200	3.681600	-11.012000	25.066540	0.000483	20.814795
875.220165	-2.992800	3.681100	-11.016000	25.048991	0.000484	20.802869
876.216675	-2.996300	3.682000	-11.031000	25.092396	0.000484	20.824155
877.217465	-2.996700	3.680500	-11.029000	25.058685	0.000483	20.828246
878.217485	-3.006500	3.680800	-11.065000	25.054161	0.000483	20.811852
879.218003	-2.991000	3.681100	-11.009000	25.050159	0.000481	20.816369
880.217643	-2.990700	3.680900	-11.008000	25.107810	0.000484	20.828722
881.217159	-2.988900	3.680700	-11.000000	25.089562	0.000483	20.811353
882.217364	-3.005300	3.680600	-11.060000	25.047797	0.000481	20.806412
883.221220	-3.006600	3.679400	-11.061000	25.012968	0.000479	20.840676
884.218976	-3.013700	3.680000	-11.090000	25.008716	0.000481	20.820763
885.221356	-2.982900	3.679100	-10.974000	25.005585	0.000481	20.824731
886.220520	-2.999300	3.680600	-11.037000	25.045936	0.000481	20.831096
887.218696	-3.026400	3.677800	-11.130000	25.073953	0.000480	20.823185
888.223869	-2.986200	3.678400	-10.983000	25.093420	0.000480	20.810484
889.221406	-2.979200	3.679200	-10.960000	25.101251	0.000479	20.805069
890.220320	-2.992300	3.678000	-11.004000	25.096553	0.000479	20.822637
891.221148	-2.980300	3.677100	-10.958000	25.116316	0.000479	20.803597
892.223357	-3.001800	3.677400	-11.037000	25.117312	0.000477	20.833519
893.222357	-3.004000	3.677000	-11.045000	25.090291	0.000479	20.828206
894.222456	-3.010400	3.677200	-11.069000	25.070777	0.000476	20.825686
895.223219	-3.025500	3.676300	-11.122000	25.105680	0.000479	20.828955
896.223780	-3.003500	3.676800	-11.043000	25.097129	0.000476	20.810414
897.224850	-3.003900	3.676300	-11.042000	25.115551	0.000476	20.816579
898.224544	-3.004500	3.675600	-11.042000	25.108219	0.000477	20.808744
899.231441	-2.978100	3.676100	-10.946000	25.142327	0.000476	20.833501
900.228492	-2.992600	3.676600	-11.002000	25.137853	0.000478	20.842760
901.229590	-2.996200	3.675000	-11.011000	25.129699	0.000474	20.827937
902.225854	-3.008900	3.674500	-11.055000	25.168057	0.000479	20.834202
903.226057	-2.990600	3.675000	-10.989000	25.163957	0.000475	20.843361
904.239472	-3.016700	3.673800	-11.082000	25.105639	0.000475	20.831758
905.231678	-3.008300	3.673800	-11.051000	25.143527	0.000475	20.826645
906.228544	-2.996500	3.674100	-11.008000	25.154266	0.000475	20.829366
907.227389	-3.001300	3.674100	-11.026000	25.183599	0.000477	20.834157
908.232297	-3.009500	3.673700	-11.055000	25.117650	0.000472	20.827220
909.228557	-3.001600	3.673500	-11.025000	25.091895	0.000474	20.829341
910.228559	-3.004700	3.671600	-11.031000	25.058360	0.000473	20.827446
911.231028	-3.003900	3.673500	-11.033000	25.053785	0.000473	20.834233
912.234572	-2.991200	3.673700	-10.988000	25.075663	0.000474	20.822056
913.229344	-3.011300	3.672700	-11.058000	25.085733	0.000471	20.828371
914.235804	-3.000600	3.671800	-11.016000	25.092867	0.000472	20.830791
915.234546	-2.993000	3.671000	-10.987000	25.120289	0.000475	20.843145
916.230765	-2.987700	3.672400	-10.972000	25.137740	0.000472	20.830793
917.232968	-2.965200	3.672300	-10.888000	25.173039	0.000471	20.834462
918.234069	-3.024300	3.670300	-11.099000	25.152905	0.000470	20.812353
919.236325	-2.996200	3.670800	-10.998000	25.146070	0.000472	20.817819
920.233191	-2.965200	3.670100	-10.882000	25.129091	0.000472	20.828275
921.234297	-3.007900	3.669300	-11.036000	25.091977	0.000471	20.824208
922.233684	-2.980800	3.671300	-10.943000	25.108112	0.000472	20.837560
923.233468	-2.997300	3.669800	-10.999000	25.121910	0.000470	20.841928
924.233052	-2.983800	3.669500	-10.948000	25.164368	0.000469	20.823386
925.234934	-3.008200	3.669800	-11.038000	25.179409	0.000468	20.847968
926.233632	-3.004900	3.668900	-11.024000	25.144782	0.000468	20.826957
927.232896	-2.992500	3.669000	-10.979000	25.115075	0.000469	20.837437
928.236296	-2.982300	3.668600	-10.940000	25.154750	0.000467	20.830325
929.234935	-3.017600	3.668100	-11.067000	25.160393	0.000469	20.842154
930.233966	-2.984300	3.668300	-10.946000	25.158953	0.000470	20.853510
931.234280	-2.978100	3.668500	-10.923000	25.186346	0.000469	20.835019
932.234762	-2.992200	3.668000	-10.974000	25.229673	0.000467	20.839636
933.239967	-3.017200	3.666400	-11.061000	25.221246	0.000467	20.834969
934.235602	-3.030400	3.666700	-11.110000	25.225350	0.000467	20.835770
935.237009	-2.985000	3.665600	-10.941000	25.223882	0.000467	20.846149
936.236525	-2.994500	3.666000	-10.977000	25.192859	0.000468	20.841557
937.236112	-2.984200	3.667600	-10.944000	25.223508	0.000466	20.843404
938.237502	-2.996700	3.665400	-10.982000	25.242971	0.000466	20.848245
939.235614	-2.995900	3.665200	-10.980000	25.270488	0.000466	20.849793
940.234737	-2.992500	3.666000	-10.970000	25.269517	0.000467	20.836965
941.236147	-2.988600	3.666200	-10.956000	25.202878	0.000465	20.862520
942.239632	-3.011900	3.664400	-11.036000	25.198055	0.000467	20.860522
943.236507	-3.016500	3.663100	-11.049000	25.203697	0.000465	20.831101
944.237360	-2.985000	3.665800	-10.942000	25.152291	0.000465	20.847296
945.236982	-3.000500	3.664900	-10.996000	25.122784	0.000465	20.837590
946.237132	-3.016700	3.663500	-11.051000	25.118480	0.000463	20.850338
947.238775	-3.011000	3.664400	-11.033000	25.066921	0.000466	20.860695
948.241746	-2.989600	3.663600	-10.952000	25.078979	0.000464	20.826807
949.237245	-3.013100	3.662700	-11.035000	25.081912	0.000464	20.851088
950.238476	-2.993400	3.663800	-10.966000	25.072315	0.000464	20.850937
951.241698	-3.001900	3.662700	-10.994000	25.083303	0.000463	20.851061
952.237318	-3.013400	3.661800	-11.033000	25.132774	0.000463	20.839558
953.237525	-2.980600	3.663300	-10.917000	25.137320	0.000464	20.860242
954.239799	-3.012100	3.662000	-11.030000	25.177196	0.000462	20.881780
955.243104	-2.983000	3.661700	-10.923000	25.171129	0.000462	20.855302
956.238532	-2.980000	3.662400	-10.913000	25.169986	0.000464	20.839931
957.238083	-3.010100	3.660000	-11.015000	25.203171	0.000460	20.867081
958.239086	-2.982700	3.661700	-10.921000	25.249256	0.000463	20.848391
959.238906	-3.008000	3.661500	-11.012000	25.250349	0.000463	20.874143
960.238489	-2.980100	3.660100	-10.907000	25.201480	0.000462	20.854952
961.243212	-3.012400	3.659700	-11.024000	25.189497	0.000464	20.871371
962.240420	-2.975200	3.661200	-10.892000	25.216618	0.000463	20.861141
963.241585	-3.009000	3.660100	-11.012000	25.239883	0.000460	20.860791
964.245527	-3.009900	3.660000	-11.016000	25.246743	0.000460	20.861040
965.242178	-3.015700	3.658800	-11.032000	25.241993	0.000460	20.879030
966.238963	-2.999700	3.658700	-10.975000	25.238291	0.000460	20.858719
967.239497	-3.018000	3.659400	-11.044000	25.251465	0.000459	20.884272
968.241011	-3.009400	3.657900	-11.007000	25.220667	0.000459	20.872792
969.239606	-3.009900	3.659100	-11.012000	25.195810	0.000460	20.866804
970.241069	-2.995100	3.657900	-10.955000	25.166179	0.000458	20.870247
971.241220	-2.976600	3.658900	-10.890000	25.169436	0.000458	20.865456
972.241006	-2.995000	3.658800	-10.957000	25.178880	0.000459	20.875411
973.243271	-2.981600	3.656300	-10.900000	25.193474	0.000457	20.872518
974.242816	-2.972200	3.657500	-10.870000	25.212413	0.000457	20.868299
975.242243	-2.998500	3.657300	-10.966000	25.190216	0.000456	20.850282
976.244435	-2.975500	3.657600	-10.883000	25.220690	0.000458	20.885142
977.245152	-2.996200	3.656000	-10.954000	25.226456	0.000455	20.866751
978.242468	-3.006800	3.655400	-10.990000	25.198441	0.000454	20.891254
979.245370	-3.012400	3.654900	-11.009000	25.233613	0.000456	20.871565
980.245178	-3.004100	3.655800	-10.982000	25.212709	0.000455	20.852950
981.244199	-2.996400	3.655000	-10.951000	25.172267	0.000455	20.887262
982.244079	-3.025800	3.654500	-11.057000	25.207018	0.000452	20.874262
983.247258	-3.003300	3.654500	-10.975000	25.218824	0.000455	20.895596
984.246235	-2.991000	3.655100	-10.931000	25.251784	0.000453	20.874161
985.246215	-3.008300	3.653900	-10.991000	25.286632	0.000453	20.868846
986.246959	-3.004500	3.653800	-10.977000	25.252156	0.000455	20.883068
987.245680	-3.021300	3.651900	-11.032000	25.243257	0.000453	20.899737
988.253391	-3.000700	3.652500	-10.959000	25.244921	0.000451	20.890977
989.247260	-3.002400	3.651900	-10.963000	25.233463	0.000452	20.891801
990.249213	-3.014900	3.653100	-11.013000	25.205149	0.000451	20.880920
991.247122	-3.005100	3.652300	-10.975000	25.193119	0.000450	20.884963
992.247558	-2.986200	3.652600	-10.906000	25.207984	0.000451	20.867646
993.248220	-2.982300	3.651800	-10.890000	25.235474	0.000452	20.872485
994.248115	-2.990500	3.650600	-10.917000	25.229186	0.000450	20.897464
995.249434	-3.006600	3.650200	-10.975000	25.187550	0.000450	20.895019
996.250241	-3.008000	3.650800	-10.981000	25.174077	0.000450	20.903777
997.251043	-3.010500	3.650100	-10.988000	25.174947	0.000450	20.907021
998.248890	-3.001300	3.650300	-10.955000	25.218423	0.000450	20.901831
999.252750	-2.989500	3.651100	-10.913000	25.242160	0.000451	20.887258
1000.252982	-3.023800	3.648500	-11.031000	25.300174	0.000449	20.905199
1001.250968	-2.995700	3.650000	-10.934000	25.295476	0.000449	20.889578
1002.250579	-2.993000	3.648500	-10.919000	25.308972	0.000449	20.893645
1003.254076	-2.996400	3.649900	-10.935000	25.354181	0.000445	20.903475
1004.251589	-3.013200	3.648300	-10.992000	25.402248	0.000449	20.912858
1005.252989	-3.005800	3.647400	-10.962000	25.404186	0.000448	20.902003
1006.256512	-2.998200	3.647100	-10.935000	25.424986	0.000449	20.893018
1007.250758	-3.005400	3.646800	-10.958000	25.417233	0.000447	20.904198
1008.254489	-2.991500	3.647800	-10.912000	25.432145	0.000447	20.888827
1009.257346	-3.018900	3.645600	-11.005000	25.427794	0.000446	20.918595
1010.251406	-3.018900	3.647100	-11.009000	25.411193	0.000447	20.911409
1011.253675	-3.017200	3.646400	-11.001000	25.385942	0.000446	20.908339
1012.254556	-3.011600	3.645800	-10.978000	25.365065	0.000446	20.904921
1013.256185	-2.983900	3.646300	-10.879000	25.379578	0.000446	20.901476
1014.254063	-3.007600	3.645700	-10.964000	25.355793	0.000444	20.911257
1015.254673	-3.029300	3.645500	-11.042000	25.326935	0.000444	20.911680
1016.258259	-2.996000	3.646500	-10.924000	25.323980	0.000444	20.918194
1017.255327	-2.993200	3.646400	-10.914000	25.310407	0.000444	20.910731
1018.256360	-3.017100	3.644900	-10.996000	25.287391	0.000444	20.891417
1019.262140	-2.977900	3.645600	-10.855000	25.332602	0.000443	20.922584
1020.257343	-3.001800	3.645300	-10.941000	25.332700	0.000441	20.897554
1021.258403	-2.987700	3.644400	-10.886000	25.349898	0.000441	20.899650
1022.257760	-3.019900	3.643000	-11.001000	25.309436	0.000443	20.895533
1023.255547	-2.995700	3.644600	-10.917000	25.309037	0.000444	20.928320
1024.257005	-3.024500	3.643000	-11.017000	25.326361	0.000443	20.906362
1025.259706	-3.005700	3.643300	-10.949000	25.354074	0.000442	20.914746
1026.258894	-3.022400	3.642000	-11.007000	25.345696	0.000442	20.921507
1027.258398	-2.975400	3.643400	-10.840000	25.350021	0.000441	20.933908
1028.263146	-3.006300	3.641600	-10.946000	25.359341	0.000439	20.924302
1029.257362	-3.000000	3.642400	-10.926000	25.341943	0.000440	20.912049
1030.257946	-2.993700	3.641900	-10.902000	25.329218	0.000439	20.903066
1031.261660	-3.009900	3.640600	-10.957000	25.353475	0.000442	20.931687
1032.260413	-2.993400	3.639800	-10.894000	25.322060	0.000438	20.941394
1033.260659	-3.015300	3.640100	-10.975000	25.317286	0.000437	20.905785
1034.263501	-2.994600	3.640200	-10.901000	25.354890	0.000438	20.930263
1035.262516	-2.998200	3.640100	-10.913000	25.374502	0.000438	20.912499
1036.261127	-2.990100	3.639600	-10.881000	25.356881	0.000437	20.935580
1037.270792	-3.014100	3.638200	-10.965000	25.348280	0.000434	20.941643
1038.262827	-2.989800	3.638700	-10.879000	25.366301	0.000435	20.934607
1039.263759	-2.986100	3.639400	-10.867000	25.344654	0.000439	20.929469
1040.269824	-2.981900	3.637900	-10.846000	25.389637	0.000433	20.927695
1041.262704	-2.998600	3.638700	-10.910000	25.361852	0.000434	20.928719
1042.263293	-3.002100	3.640300	-10.927000	25.350991	0.000434	20.939149
1043.267099	-3.004500	3.638300	-10.930000	25.320174	0.000433	20.930019
1044.263492	-3.002600	3.638400	-10.923000	25.276204	0.000433	20.925226
1045.262852	-3.018800	3.637300	-10.979000	25.303844	0.000434	20.941122
1046.268139	-2.998800	3.636000	-10.902000	25.298948	0.000433	20.920562
1047.265841	-2.998300	3.636200	-10.901000	25.315825	0.000434	20.924230
1048.265918	-3.016400	3.635300	-10.965000	25.337224	0.000433	20.934810
1049.269457	-3.013900	3.637300	-10.962000	25.382633	0.000432	20.925878
1050.265661	-2.994200	3.637200	-10.889000	25.414046	0.000431	20.926127
1051.264430	-3.007700	3.635900	-10.934000	25.449635	0.000432	20.935784
1052.264893	-3.013300	3.635800	-10.955000	25.460720	0.000429	20.957344
1053.267605	-3.000000	3.635600	-10.907000	25.482316	0.000431	20.936359
1054.267510	-2.980900	3.634900	-10.834000	25.468721	0.000431	20.949732
1055.266162	-2.987700	3.634200	-10.856000	25.478364	0.000428	20.933813
1056.268663	-3.008200	3.633100	-10.928000	25.473295	0.000430	20.941999
1057.269070	-3.019200	3.633400	-10.969000	25.448470	0.000429	20.946940
1058.268394	-3.002800	3.633000	-10.908000	25.437038	0.000430	20.942100
1059.268071	-3.005500	3.633400	-10.919000	25.440964	0.000427	20.945568
1060.272062	-3.006000	3.632500	-10.919000	25.448072	0.000427	20.935637
1061.268219	-2.996700	3.632600	-10.885000	25.435471	0.000428	20.944319
1062.271008	-2.995800	3.632700	-10.882000	25.438754	0.000431	20.944770
1063.269518	-3.014800	3.631700	-10.947000	25.410820	0.000429	20.956548
1064.268773	-2.995600	3.632100	-10.879000	25.388351	0.000427	20.961486
1065.268788	-3.021400	3.631600	-10.971000	25.432912	0.000428	20.971143
1066.270422	-2.979500	3.632800	-10.822000	25.434577	0.000427	20.957170
1067.270547	-2.996800	3.630400	-10.879000	25.408507	0.000429	20.970819
1068.272572	-3.017400	3.629400	-10.950000	25.451428	0.000427	20.946118
1069.270586	-2.987400	3.629200	-10.841000	25.463556	0.000425	20.936487
1070.275595	-2.979800	3.630500	-10.818000	25.475334	0.000426	20.956846
1071.273562	-3.014400	3.629200	-10.939000	25.486817	0.000423	20.958893
1072.276196	-3.005600	3.628600	-10.905000	25.476255	0.000424	20.965831
1073.278887	-3.000200	3.629000	-10.886000	25.476901	0.000424	20.954153
1074.273781	-2.976800	3.628800	-10.800000	25.456449	0.000423	20.946418
1075.274280	-2.989200	3.628000	-10.844000	25.459033	0.000425	20.958968
1076.278844	-3.024800	3.626700	-10.968000	25.466488	0.000425	20.945120
1077.277192	-2.997000	3.627400	-10.870000	25.452746	0.000424	20.951233
1078.272964	-2.985400	3.629100	-10.834000	25.400308	0.000421	20.962587
1079.278192	-3.002500	3.627500	-10.891000	25.418177	0.000422	20.947815
1080.276196	-2.989900	3.626600	-10.843000	25.392354	0.000421	20.963135
1081.277288	-2.988800	3.626500	-10.838000	25.378439	0.000423	20.939209
1082.284989	-3.011100	3.626000	-10.917000	25.387137	0.000421	20.963112
1083.277069	-2.989900	3.627900	-10.846000	25.370212	0.000420	20.930948
1084.278759	-2.995400	3.625700	-10.860000	25.382762	0.000422	20.947341
1085.281399	-3.011400	3.625800	-10.918000	25.382514	0.000421	20.948041
1086.278567	-3.005700	3.624500	-10.893000	25.394915	0.000422	20.948165
1087.279006	-2.964200	3.625800	-10.746000	25.403240	0.000421	20.938982
1088.283980	-2.976800	3.624600	-10.789000	25.395239	0.000419	20.952757
1089.278338	-2.999700	3.624300	-10.870000	25.424439	0.000420	20.926605
1090.279286	-2.978300	3.624300	-10.793000	25.455779	0.000417	20.930100
1091.281241	-2.987100	3.624500	-10.826000	25.471532	0.000418	20.942599
1092.280851	-2.983200	3.624300	-10.811000	25.485152	0.000419	20.921191
1093.281206	-2.986300	3.623900	-10.821000	25.494572	0.000417	20.921642
1094.281231	-2.994600	3.623400	-10.849000	25.491936	0.000419	20.946967
1095.282333	-2.977800	3.622300	-10.786000	25.485425	0.000417	20.918620
1096.283976	-2.998200	3.622100	-10.858000	25.487711	0.000417	20.944621
1097.281603	-2.977300	3.623000	-10.785000	25.529758	0.000417	20.933268
1098.281399	-2.978000	3.622400	-10.786000	25.494969	0.000416	20.939108
1099.281672	-3.013800	3.622000	-10.914000	25.458587	0.000417	20.926282
1100.281903	-2.980200	3.623100	-10.797000	25.449292	0.000415	20.940654
1101.285043	-2.991100	3.621400	-10.831000	25.492459	0.000412	20.938484
1102.282120	-3.013100	3.620400	-10.907000	25.502051	0.000416	20.913506
1103.281812	-3.026400	3.620100	-10.955000	25.476505	0.000415	20.927205
1104.282011	-3.016800	3.618100	-10.915000	25.483513	0.000414	20.933768
1105.282452	-2.986300	3.620500	-10.811000	25.423818	0.000414	20.916974
1106.282197	-2.999200	3.618600	-10.852000	25.406496	0.000413	20.928028
1107.311219	-3.015700	3.618700	-10.912000	25.380351	0.000413	20.923587
1108.286206	-2.980200	3.620000	-10.788000	25.446408	0.000412	20.916898
1109.284426	-2.970000	3.617700	-10.744000	25.430776	0.000411	20.919693
1110.284286	-3.009600	3.617500	-10.887000	25.428763	0.000411	20.909612
1111.285530	-2.972800	3.618500	-10.756000	25.452673	0.000413	20.921766
1112.290372	-3.015600	3.616900	-10.906000	25.421060	0.000411	20.922264
1113.285444	-3.004800	3.617500	-10.869000	25.443477	0.000411	20.931023
1114.285815	-2.980600	3.617600	-10.782000	25.408982	0.000410	20.909189
1115.285472	-2.998400	3.616400	-10.843000	25.387036	0.000409	20.917024
1116.286078	-3.027300	3.615900	-10.945000	25.451057	0.000410	20.930100
1117.286972	-3.024600	3.615000	-10.933000	25.446980	0.000408	20.923162
1118.287483	-3.004300	3.615700	-10.862000	25.416734	0.000408	20.910809
1119.287334	-2.996300	3.614700	-10.830000	25.428564	0.000408	20.905619
1120.288739	-3.020500	3.614600	-10.918000	25.486146	0.000409	20.914604
1121.291771	-3.027500	3.614000	-10.941000	25.452546	0.000408	20.911209
1122.289640	-3.014000	3.615100	-10.895000	25.462561	0.000406	20.918420
1123.291383	-2.978900	3.615100	-10.768000	25.460424	0.000407	20.893043
1124.292129	-2.987800	3.615000	-10.800000	25.491911	0.000407	20.922289
1125.300780	-3.006400	3.613900	-10.864000	25.514748	0.000405	20.913929
1126.290380	-3.007200	3.613400	-10.865000	25.472627	0.000406	20.905770
1127.288492	-3.021000	3.612100	-10.911000	25.508907	0.000405	20.897634
1128.293821	-3.026200	3.612400	-10.931000	25.493874	0.000405	20.909562
1129.292332	-3.003700	3.611500	-10.846000	25.500209	0.000404	20.909760
1130.297298	-3.012600	3.610900	-10.877000	25.482366	0.000404	20.904170
1131.302864	-3.000000	3.610600	-10.831000	25.492755	0.000405	20.928825
1132.288969	-3.017300	3.611700	-10.896000	25.519417	0.000406	20.874999
1133.288747	-3.010600	3.609600	-10.866000	25.549935	0.000406	20.893791
1134.288209	-3.013600	3.609800	-10.877000	25.542280	0.000404	20.888475
1135.289354	-3.004000	3.611100	-10.847000	25.512013	0.000403	20.884632
1136.291483	-3.001500	3.610200	-10.835000	25.507765	0.000401	20.897435
1137.294017	-3.024600	3.608300	-10.913000	25.482341	0.000402	20.878069
1138.288359	-3.020000	3.609900	-10.901000	25.439497	0.000402	20.894313
1139.289974	-3.014700	3.607700	-10.876000	25.442081	0.000404	20.891692
1140.288652	-3.002500	3.609600	-10.837000	25.448095	0.000402	20.887775
1141.288239	-3.024200	3.607200	-10.908000	25.476178	0.000400	20.906017
1142.296093	-2.988400	3.607900	-10.781000	25.468126	0.000402	20.893191
1143.289003	-3.034600	3.606000	-10.942000	25.445534	0.000401	20.882833
1144.290836	-3.001500	3.608900	-10.831000	25.468698	0.000401	20.889972
1145.295114	-2.995900	3.606600	-10.804000	25.445387	0.000400	20.895487
1146.289814	-3.019800	3.606300	-10.890000	25.393421	0.000399	20.899729
1147.291197	-3.028200	3.607100	-10.922000	25.445189	0.000398	20.893865
1148.294459	-2.998200	3.607400	-10.814000	25.476204	0.000398	20.905569
1149.289127	-3.010600	3.606200	-10.856000	25.511392	0.000397	20.907714
1150.291383	-3.006400	3.605200	-10.838000	25.521684	0.000399	20.892446
1151.295335	-2.996700	3.605000	-10.802000	25.520713	0.000398	20.878670
1152.292607	-2.993700	3.607700	-10.799000	25.546234	0.000400	20.876799
1153.294230	-2.986700	3.604200	-10.764000	25.525908	0.000398	20.884836
1154.296650	-3.002400	3.604300	-10.821000	25.521707	0.000398	20.879194
1155.299569	-3.006100	3.605100	-10.837000	25.461172	0.000395	20.885260
1156.292892	-3.004800	3.603400	-10.826000	25.484731	0.000396	20.899434
1157.294900	-3.010200	3.604900	-10.851000	25.488632	0.000394	20.888179
1158.294020	-2.999300	3.604100	-10.809000	25.504065	0.000395	20.887082
1159.294222	-3.012300	3.602500	-10.851000	25.453419	0.000393	20.884113
1160.295798	-2.996000	3.602200	-10.791000	25.422952	0.000393	20.881968
1161.293783	-2.996000	3.602800	-10.793000	25.450164	0.000395	20.861405
1162.293432	-2.980900	3.603800	-10.742000	25.454266	0.000396	20.883541
1163.295282	-3.010400	3.602600	-10.844000	25.480409	0.000393	20.857164
1164.297400	-2.994600	3.602900	-10.789000	25.477477	0.000392	20.884564
1165.293669	-2.999300	3.601600	-10.801000	25.452280	0.000393	20.869219
1166.293451	-3.015800	3.600200	-10.856000	25.481431	0.000391	20.866724
1167.298185	-3.023800	3.599800	-10.884000	25.497783	0.000394	20.868921
1168.294149	-3.012400	3.600200	-10.845000	25.500342	0.000390	20.871016
1169.294899	-3.031900	3.599300	-10.911000	25.511253	0.000391	20.900463
1170.296328	-3.024100	3.599600	-10.885000	25.549994	0.000391	20.866351
1171.305978	-3.011100	3.598700	-10.834000	25.514731	0.000392	20.868397
1172.294533	-3.024800	3.597800	-10.882000	25.495150	0.000389	20.877181
1173.299130	-3.007700	3.599000	-10.824000	25.484540	0.000391	20.885018
1174.297015	-2.996200	3.599100	-10.783000	25.489385	0.000390	20.877082
1175.294405	-3.011200	3.598500	-10.835000	25.508645	0.000390	20.879827
1176.297238	-3.006900	3.599000	-10.821000	25.492490	0.000390	20.865028
1177.305328	-2.996200	3.598000	-10.779000	25.490082	0.000387	20.874463
1178.298432	-3.007200	3.597000	-10.816000	25.480290	0.000390	20.866527
1179.301061	-2.997200	3.596500	-10.778000	25.462869	0.000389	20.873214
1180.299437	-2.994000	3.597800	-10.771000	25.420919	0.000389	20.874711
1181.308383	-2.976200	3.597400	-10.706000	25.414061	0.000388	20.861661
1182.298018	-2.981300	3.597000	-10.723000	25.448182	0.000386	20.871268
1183.304062	-2.998200	3.595600	-10.780000	25.481830	0.000386	20.860962
1184.301267	-3.016900	3.594600	-10.843000	25.476214	0.000387	20.870020
1185.302619	-3.039000	3.594700	-10.922000	25.486952	0.000385	20.850458
1186.307042	-2.982800	3.595700	-10.724000	25.524399	0.000387	20.867674
1187.300498	-3.005600	3.595100	-10.805000	25.552977	0.000385	20.863183
1188.301357	-3.035800	3.592200	-10.905000	25.542839	0.000385	20.842572
1189.300525	-3.016700	3.594500	-10.843000	25.558694	0.000383	20.860390
1190.302451	-3.017700	3.592100	-10.839000	25.555339	0.000383	20.856073
1191.301906	-3.012600	3.592800	-10.822000	25.571019	0.000382	20.857595
1192.302268	-3.016000	3.591300	-10.831000	25.552383	0.000384	20.860690
1193.301647	-3.018700	3.592000	-10.842000	25.531136	0.000380	20.867328
1194.303171	-2.987800	3.593500	-10.736000	25.554992	0.000380	20.864733
1195.302783	-2.988000	3.592300	-10.733000	25.542743	0.000383	20.881828
1196.302289	-2.985800	3.592300	-10.725000	25.520975	0.000382	20.872770
1197.304557	-2.990600	3.592100	-10.742000	25.512876	0.000381	20.872697
1198.306013	-2.990100	3.592100	-10.740000	25.485715	0.000379	20.844475
1199.307786	-3.000900	3.590300	-10.773000	25.474383	0.000380	20.849216
1200.304115	-2.978300	3.591700	-10.696000	25.491208	0.000378	20.872748
1201.305515	-2.985000	3.591000	-10.718000	25.502242	0.000380	20.861071
1202.307885	-3.006000	3.589100	-10.787000	25.515860	0.000380	20.856255
1203.306402	-2.997700	3.590500	-10.762000	25.518892	0.000379	20.860721
1204.305696	-3.013100	3.587700	-10.809000	25.486141	0.000381	20.851066
1205.305304	-2.981100	3.589100	-10.699000	25.500207	0.000379	20.844329
1206.309327	-3.019600	3.588700	-10.836000	25.547073	0.000378	20.868160
1207.303923	-3.011200	3.587800	-10.803000	25.572892	0.000379	20.851890
1208.305886	-2.989500	3.589300	-10.729000	25.605120	0.000380	20.855808
1209.308463	-2.992700	3.586900	-10.733000	25.583926	0.000377	20.839264
1210.310288	-3.007200	3.587100	-10.786000	25.618268	0.000378	20.842461
1211.306353	-3.013100	3.586500	-10.806000	25.620901	0.000375	20.849372
1212.309395	-2.986500	3.587400	-10.713000	25.575281	0.000377	20.846229
1213.307594	-2.997100	3.585200	-10.744000	25.584847	0.000374	20.834974
1214.307696	-2.998300	3.585300	-10.749000	25.588177	0.000373	20.851593
1215.308379	-2.983500	3.587000	-10.700000	25.590689	0.000377	20.838944
1216.309812	-2.995700	3.586100	-10.742000	25.641180	0.000376	20.873531
1217.309779	-2.997500	3.584700	-10.744000	25.624683	0.000373	20.844636
1218.308655	-2.992100	3.586100	-10.729000	25.658278	0.000375	20.848031
1219.312475	-2.988900	3.585000	-10.714000	25.668987	0.000372	20.852623
1220.310728	-3.002300	3.584600	-10.761000	25.664813	0.000373	20.839422
1221.307933	-3.012300	3.583200	-10.793000	25.686308	0.000374	20.849631
1222.308697	-3.011900	3.583500	-10.792000	25.656170	0.000373	20.840698
1223.309514	-2.980700	3.584000	-10.682000	25.612489	0.000371	20.847088
1224.308802	-3.023000	3.582500	-10.829000	25.555935	0.000372	20.843870
1225.310567	-2.999600	3.582300	-10.744000	25.560310	0.000371	20.844470
1226.312027	-3.011000	3.583100	-10.787000	25.587545	0.000369	20.834838
1227.311220	-2.975500	3.583300	-10.662000	25.586031	0.000371	20.830473
1228.312910	-3.020100	3.581000	-10.814000	25.630410	0.000368	20.829051
1229.309999	-3.015400	3.581500	-10.799000	25.626187	0.000370	20.825758
1230.309585	-3.016200	3.581300	-10.801000	25.658838	0.000370	20.824886
1231.309802	-2.984700	3.581500	-10.689000	25.655040	0.000369	20.814434
1232.309619	-3.002500	3.580200	-10.749000	25.647684	0.000369	20.803727
1233.314424	-3.002800	3.580600	-10.751000	25.602611	0.000366	20.828633
1234.311009	-2.998900	3.580100	-10.735000	25.590883	0.000366	20.827285
1235.312492	-3.019600	3.578300	-10.805000	25.563354	0.000370	20.829036
1236.314334	-2.977800	3.580200	-10.660000	25.604926	0.000368	20.804879
1237.309674	-3.007600	3.578400	-10.761000	25.605249	0.000368	20.816584
1238.310426	-2.990600	3.579800	-10.704000	25.571457	0.000365	20.822948
1239.310253	-3.005200	3.577600	-10.750000	25.585820	0.000365	20.818408
1240.309288	-2.982000	3.579600	-10.674000	25.557195	0.000366	20.826170
1241.311466	-2.996500	3.578800	-10.723000	25.588308	0.000363	20.823277
1242.310497	-2.982900	3.579700	-10.676000	25.582393	0.000366	20.844837
1243.309573	-3.001100	3.579500	-10.741000	25.593153	0.000365	20.829091
1244.309026	-3.000500	3.577900	-10.735000	25.636416	0.000364	20.811849
1245.310848	-3.012400	3.576300	-10.773000	25.632962	0.000363	20.815968
1246.311963	-2.986800	3.577100	-10.684000	25.632739	0.000365	20.813847
1247.308707	-2.981300	3.577300	-10.664000	25.583466	0.000363	20.813199
1248.311566	-3.009000	3.576300	-10.760000	25.568286	0.000361	20.812652
1249.313909	-2.993100	3.576500	-10.703000	25.564309	0.000362	20.795382
1250.312634	-2.987500	3.575700	-10.681000	25.572261	0.000362	20.797678
1251.313359	-2.981700	3.575600	-10.661000	25.568659	0.000363	20.807811
1252.318987	-3.002000	3.574700	-10.730000	25.556682	0.000363	20.800051
1253.314431	-3.003500	3.574500	-10.736000	25.601161	0.000363	20.794934
1254.317226	-2.999800	3.574500	-10.722000	25.643727	0.000361	20.818718
1255.316544	-2.986000	3.574700	-10.673000	25.629514	0.000361	20.805392
1256.315068	-2.996600	3.573100	-10.707000	25.634212	0.000359	20.810585
1257.318519	-3.012800	3.571700	-10.759000	25.651109	0.000360	20.804796
1258.319870	-3.027400	3.572100	-10.812000	25.626088	0.000361	20.808589
1259.316682	-3.038900	3.571500	-10.852000	25.600917	0.000360	20.794689
1260.329057	-2.999100	3.572100	-10.713000	25.611427	0.000358	20.796710
1261.316359	-3.013800	3.570800	-10.761000	25.650888	0.000359	20.801729
1262.316488	-3.004400	3.571800	-10.731000	25.655485	0.000357	20.811088
1263.316679	-3.014600	3.571300	-10.765000	25.681153	0.000358	20.816953
1264.316401	-2.981200	3.571000	-10.644000	25.686195	0.000357	20.819647
1265.317654	-2.986700	3.569900	-10.661000	25.708832	0.000359	20.807296
1266.318810	-3.008100	3.570000	-10.738000	25.703614	0.000357	20.801582
1267.317951	-3.000500	3.570200	-10.711000	25.686519	0.000357	20.797687
1268.316171	-3.023800	3.568900	-10.790000	25.699390	0.000358	20.788804
1269.318579	-3.006800	3.569600	-10.733000	25.710648	0.000354	20.789206
1270.318799	-3.020500	3.569300	-10.781000	25.670346	0.000355	20.794720
1271.321932	-3.012700	3.568600	-10.750000	25.667936	0.000354	20.794196
1272.319018	-2.988800	3.568000	-10.663000	25.694199	0.000354	20.818203
1273.316964	-3.023900	3.568000	-10.789000	25.669902	0.000356	20.811343
1274.323143	-2.998600	3.567900	-10.698000	25.665604	0.000355	20.814613
1275.318704	-3.008100	3.567200	-10.730000	25.666423	0.000355	20.802159
1276.319692	-2.983500	3.567400	-10.643000	25.672038	0.000352	20.811118
1277.320338	-2.990700	3.566900	-10.666000	25.678400	0.000352	20.812766
1278.319490	-2.988900	3.567600	-10.662000	25.669826	0.000352	20.813164
1279.320519	-3.010900	3.565300	-10.734000	25.612381	0.000351	20.804780
1280.321969	-3.025000	3.566400	-10.787000	25.648957	0.000351	20.798367
1281.320961	-3.023200	3.566200	-10.781000	25.608057	0.000352	20.791429
1282.320919	-2.993200	3.565100	-10.670000	25.596926	0.000350	20.801113
1283.321715	-3.001000	3.564300	-10.696000	25.561616	0.000351	20.803109
1284.321537	-2.974800	3.565400	-10.605000	25.566587	0.000351	20.800988
1285.322256	-3.008200	3.565100	-10.723000	25.573073	0.000351	20.786639
1286.322210	-3.017400	3.562700	-10.749000	25.572698	0.000349	20.802384
1287.322517	-3.005200	3.562700	-10.705000	25.571158	0.000350	20.782345
1288.323014	-3.009000	3.562500	-10.719000	25.602516	0.000351	20.774958
1289.322946	-3.003300	3.562600	-10.698000	25.569218	0.000348	20.798889
1290.326307	-3.003900	3.563100	-10.703000	25.579283	0.000348	20.798092
1291.323409	-2.990600	3.562800	-10.654000	25.560221	0.000348	20.782267
1292.328655	-2.995700	3.562600	-10.672000	25.546283	0.000349	20.800512
1293.325901	-3.009400	3.562100	-10.718000	25.598290	0.000348	20.770239
1294.323866	-2.971000	3.562200	-10.582000	25.641126	0.000349	20.800459
1295.329391	-3.010000	3.560800	-10.717000	25.636207	0.000348	20.789355
1296.327134	-3.028900	3.559800	-10.781000	25.613892	0.000348	20.796341
1297.326139	-3.009200	3.560300	-10.712000	25.563524	0.000347	20.811663
1298.324912	-2.980900	3.562300	-10.618000	25.588944	0.000346	20.806373
1299.325530	-3.004000	3.560400	-10.695000	25.614760	0.000349	20.791523
1300.329365	-2.980700	3.561300	-10.614000	25.646614	0.000348	20.780367
1301.327791	-2.999200	3.559700	-10.676000	25.636774	0.000346	20.779019
1302.325981	-2.996400	3.560800	-10.669000	25.636325	0.000345	20.784258
1303.327942	-3.004500	3.558400	-10.691000	25.659087	0.000345	20.780566
1304.325896	-3.001600	3.557300	-10.677000	25.650340	0.000344	20.806394
1305.327103	-2.987400	3.559100	-10.631000	25.612198	0.000345	20.781837
1306.329898	-2.987900	3.558200	-10.630000	25.647380	0.000346	20.785403
1307.326747	-2.984000	3.557900	-10.616000	25.624074	0.000345	20.789971
1308.327340	-3.007200	3.556900	-10.695000	25.613015	0.000343	20.792141
1309.328701	-2.987400	3.556900	-10.624000	25.631652	0.000342	20.789996
1310.327096	-3.001600	3.556600	-10.674000	25.668871	0.000345	20.794661
1311.327819	-2.994200	3.556500	-10.648000	25.688897	0.000342	20.808610
1312.332433	-2.964000	3.557700	-10.544000	25.649739	0.000343	20.805316
1313.335347	-3.008500	3.555100	-10.694000	25.658659	0.000340	20.807637
1314.329359	-2.993500	3.556800	-10.646000	25.668521	0.000341	20.801422
1315.329566	-2.989400	3.555200	-10.626000	25.682212	0.000341	20.793361
1316.327354	-2.992900	3.554400	-10.637000	25.688522	0.000342	20.803018
1317.328255	-2.983800	3.554700	-10.606000	25.641587	0.000341	20.795707
1318.328267	-2.995700	3.553700	-10.645000	25.635424	0.000342	20.801370
1319.331947	-3.009000	3.553900	-10.693000	25.671352	0.000339	20.783876
1320.326360	-3.015100	3.552600	-10.710000	25.729712	0.000338	20.799346
1321.328584	-2.992900	3.552800	-10.632000	25.721737	0.000338	20.786593
1322.333717	-3.006600	3.552400	-10.679000	25.756794	0.000338	20.810901
1323.330386	-3.012100	3.552000	-10.698000	25.737638	0.000338	20.813945
1324.330663	-3.003900	3.553200	-10.673000	25.735725	0.000339	20.794954
1325.333412	-3.002700	3.552300	-10.665000	25.771875	0.000337	20.827946
1326.331993	-2.985300	3.552600	-10.605000	25.793089	0.000339	20.798994
1327.334111	-3.006400	3.551400	-10.676000	25.805559	0.000339	20.820530
1328.336749	-2.986500	3.550900	-10.604000	25.744468	0.000336	20.815115
1329.343832	-3.022200	3.550700	-10.730000	25.724790	0.000337	20.817161
1330.333581	-3.008500	3.549100	-10.676000	25.718231	0.000337	20.780227
1331.336845	-3.001000	3.551300	-10.656000	25.736788	0.000336	20.794125
1332.333659	-3.010100	3.549700	-10.684000	25.704067	0.000337	20.806304
1333.336065	-2.992500	3.548800	-10.619000	25.705459	0.000336	20.793003
1334.338512	-2.989300	3.549800	-10.611000	25.696514	0.000335	20.834752
1335.335137	-2.968900	3.549200	-10.536000	25.687097	0.000333	20.803958
1336.336114	-3.003200	3.547900	-10.654000	25.664013	0.000333	20.838144
1337.339063	-2.985100	3.548300	-10.591000	25.633923	0.000333	20.808872
1338.338604	-3.006100	3.548600	-10.667000	25.625004	0.000334	20.808923
1339.346278	-3.021600	3.547100	-10.718000	25.654769	0.000333	20.816058
1340.336215	-2.995000	3.546700	-10.622000	25.647067	0.000331	20.822547
1341.340394	-3.003200	3.545300	-10.647000	25.622069	0.000333	20.813087
1342.339368	-2.985600	3.546900	-10.589000	25.612453	0.000333	20.813388
1343.340361	-3.003700	3.546000	-10.649000	25.594785	0.000332	20.810342
1344.341532	-3.011300	3.545000	-10.674000	25.637844	0.000332	20.826561
1345.339730	-3.009600	3.544600	-10.668000	25.701949	0.000333	20.820297
1346.339972	-2.994200	3.544100	-10.611000	25.704035	0.000330	20.830927
1347.342003	-2.994200	3.545000	-10.614000	25.734670	0.000331	20.817128
1348.341727	-3.000300	3.545600	-10.637000	25.684233	0.000330	20.827159
1349.341455	-2.993100	3.545000	-10.610000	25.676680	0.000328	20.833797
1350.340620	-3.000800	3.544600	-10.636000	25.657149	0.000330	20.834570
1351.342767	-2.980900	3.544600	-10.566000	25.629271	0.000330	20.811786
1352.340525	-2.978600	3.543900	-10.555000	25.588444	0.000327	20.794491
1353.345266	-2.987800	3.542800	-10.584000	25.625020	0.000328	20.803249
1354.344690	-3.031200	3.542000	-10.735000	25.614483	0.000329	20.807840
1355.340067	-2.997500	3.543400	-10.621000	25.630859	0.000326	20.827605
1356.340019	-3.012500	3.541500	-10.668000	25.639379	0.000326	20.823361
1357.343209	-3.013000	3.541400	-10.670000	25.648125	0.000325	20.825506
1358.339986	-3.006200	3.541400	-10.646000	25.691010	0.000324	20.837285
1359.342547	-2.993600	3.541100	-10.600000	25.665840	0.000325	20.838557
1360.343091	-3.007000	3.540700	-10.646000	25.666807	0.000326	20.838106
1361.341527	-2.975200	3.541600	-10.536000	25.661441	0.000324	20.817069
1362.340818	-2.982200	3.541400	-10.561000	25.634754	0.000324	20.834362
1363.341412	-2.979500	3.540200	-10.547000	25.679652	0.000324	20.826352
1364.345357	-3.010500	3.539600	-10.655000	25.733815	0.000323	20.841872
1365.342206	-2.990900	3.539900	-10.586000	25.735153	0.000323	20.833734
1366.342558	-3.009000	3.538800	-10.648000	25.744446	0.000323	20.855869
1367.346620	-3.020200	3.538900	-10.687000	25.715748	0.000321	20.835105
1368.343172	-3.018300	3.538200	-10.679000	25.703053	0.000323	20.859337
1369.346119	-3.008900	3.537800	-10.644000	25.689757	0.000321	20.853569
1370.345351	-2.995800	3.537900	-10.598000	25.705361	0.000324	20.842215
1371.343625	-3.002700	3.536500	-10.618000	25.669829	0.000321	20.832606
1372.346968	-3.034100	3.535000	-10.724000	25.614245	0.000321	20.843636
1373.350356	-3.027000	3.535600	-10.701000	25.610219	0.000322	20.847179
1374.346476	-2.985300	3.535700	-10.555000	25.668236	0.000322	20.848550
1375.347696	-2.991500	3.536900	-10.580000	25.710126	0.000321	20.835148
1376.349452	-2.992000	3.535200	-10.576000	25.718970	0.000320	20.849720
1377.345849	-2.982800	3.534700	-10.542000	25.715739	0.000320	20.852165
1378.347705	-2.995200	3.534900	-10.587000	25.737999	0.000318	20.851290
1379.349368	-3.013000	3.533200	-10.645000	25.723491	0.000321	20.844778
1380.344060	-3.009800	3.533800	-10.635000	25.781601	0.000318	20.863791
1381.345870	-2.982500	3.533600	-10.538000	25.803312	0.000318	20.843402
1382.348279	-2.992600	3.533800	-10.574000	25.794345	0.000318	20.848619
1383.346749	-3.028700	3.532800	-10.699000	25.793151	0.000318	20.843152
1384.352386	-2.987000	3.533900	-10.554000	25.816006	0.000316	20.847144
1385.346231	-3.009900	3.532100	-10.630000	25.781424	0.000319	20.844649
1386.347152	-3.004500	3.532700	-10.613000	25.705347	0.000315	20.852633
1387.346574	-3.002300	3.532100	-10.604000	25.697248	0.000315	20.862041
1388.347256	-3.014800	3.531200	-10.645000	25.685023	0.000315	20.858298
1389.345860	-3.020400	3.531600	-10.666000	25.660873	0.000313	20.833094
1390.347876	-3.006100	3.530800	-10.613000	25.662910	0.000314	20.858846
1391.349323	-2.981500	3.531100	-10.527000	25.668473	0.000314	20.860640
1392.348246	-3.005000	3.530000	-10.607000	25.703410	0.000314	20.840256
1393.348161	-2.994200	3.529800	-10.568000	25.722613	0.000314	20.862862
1394.348478	-2.985800	3.529900	-10.539000	25.715434	0.000313	20.854703
1395.350010	-2.994700	3.529600	-10.569000	25.700254	0.000313	20.865534
1396.352667	-3.013500	3.528200	-10.631000	25.666313	0.000312	20.848515
1397.349611	-3.004100	3.529200	-10.601000	25.665368	0.000311	20.844720
1398.352613	-3.005300	3.527400	-10.600000	25.691109	0.000313	20.847341
1399.350007	-3.030800	3.528000	-10.691000	25.675135	0.000313	20.861641
1400.355413	-3.004000	3.526700	-10.593000	25.719610	0.000312	20.862691
1401.350698	-3.019400	3.527400	-10.650000	25.703210	0.000310	20.859969
1402.349971	-3.009100	3.525900	-10.609000	25.725423	0.000312	20.859995
1403.348970	-3.027600	3.525800	-10.674000	25.707607	0.000309	20.872445
1404.351807	-2.991200	3.526200	-10.547000	25.670115	0.000311	20.851859
1405.350759	-2.979600	3.525500	-10.503000	25.678314	0.000310	20.881429
1406.349469	-3.003600	3.524500	-10.586000	25.667332	0.000308	20.866132
1407.354384	-2.994200	3.525500	-10.556000	25.688252	0.000308	20.851584
1408.352224	-3.016700	3.524700	-10.632000	25.642932	0.000308	20.865807
1409.352210	-2.998600	3.525900	-10.572000	25.680227	0.000309	20.875764
1410.355466	-3.004400	3.523200	-10.584000	25.690489	0.000309	20.876588
1411.351786	-3.011300	3.523600	-10.610000	25.697593	0.000307	20.868077
1412.351423	-3.003000	3.524300	-10.583000	25.714439	0.000309	20.877410
1413.352022	-2.989400	3.523000	-10.531000	25.766662	0.000307	20.865855
1414.352244	-3.029700	3.521600	-10.668000	25.760303	0.000306	20.854727
1415.352364	-3.012600	3.522700	-10.612000	25.781023	0.000308	20.875064
1416.352930	-2.983400	3.522700	-10.508000	25.753618	0.000307	20.865555
1417.353436	-3.011300	3.520600	-10.601000	25.746339	0.000307	20.880054
1418.353330	-2.982200	3.521800	-10.502000	25.688175	0.000307	20.878531
1419.356420	-2.995400	3.521500	-10.548000	25.654506	0.000305	20.876484
1420.354923	-2.986400	3.521700	-10.516000	25.635674	0.000305	20.882224
1421.354023	-2.990100	3.519900	-10.524000	25.675179	0.000306	20.893926
1422.353960	-2.988700	3.520900	-10.522000	25.648495	0.000307	20.883721
1423.353917	-2.993100	3.519800	-10.534000	25.652096	0.000306	20.874063
1424.354004	-2.996900	3.518300	-10.542000	25.656644	0.000307	20.899017
1425.359442	-3.002800	3.518300	-10.564000	25.684221	0.000306	20.882621
1426.357110	-3.008000	3.518500	-10.583000	25.651946	0.000305	20.899989
1427.354443	-3.005100	3.517600	-10.570000	25.675625	0.000304	20.897693
1428.362002	-2.976700	3.518500	-10.472000	25.676419	0.000305	20.903231
1429.361822	-2.998100	3.517100	-10.544000	25.734758	0.000306	20.874585
1430.354998	-2.997500	3.517600	-10.543000	25.763353	0.000304	20.874859
1431.357122	-3.012800	3.516700	-10.593000	25.724395	0.000304	20.891203
1432.355007	-2.989300	3.517700	-10.515000	25.703923	0.000304	20.903356
1433.355697	-3.010600	3.517000	-10.587000	25.692791	0.000305	20.902132
1434.357399	-3.011900	3.515900	-10.588000	25.699326	0.000304	20.889257
1435.357339	-3.006900	3.514900	-10.568000	25.682232	0.000302	20.889157
1436.357021	-2.980100	3.516700	-10.479000	25.700842	0.000302	20.887934
1437.357037	-2.971800	3.516300	-10.448000	25.730185	0.000300	20.879950
1438.356690	-3.000600	3.516100	-10.548000	25.813710	0.000301	20.895569
1439.361253	-2.989600	3.514800	-10.507000	25.814603	0.000300	20.902630
1440.356550	-3.018200	3.514800	-10.607000	25.833261	0.000301	20.886286
1441.360473	-3.024100	3.513000	-10.623000	25.832491	0.000300	20.904951
1442.364716	-2.986500	3.513700	-10.492000	25.851323	0.000302	20.892101
1443.358342	-3.026000	3.512900	-10.629000	25.860910	0.000298	20.900309
1444.359055	-3.007600	3.513700	-10.567000	25.800915	0.000299	20.906897
1445.363794	-2.985500	3.512900	-10.486000	25.804914	0.000299	20.875355
1446.357431	-3.000200	3.512300	-10.536000	25.830479	0.000299	20.897714
1447.360238	-3.014300	3.512800	-10.587000	25.832217	0.000298	20.889978
1448.357922	-2.982500	3.511400	-10.473000	25.870947	0.000300	20.880048
1449.358658	-3.001600	3.510800	-10.537000	25.896833	0.000299	20.905575
1450.358115	-3.000900	3.511600	-10.537000	25.915613	0.000298	20.898838
1451.359182	-2.997400	3.510000	-10.520000	25.841784	0.000298	20.885838
1452.360970	-2.986400	3.511000	-10.484000	25.873732	0.000296	20.902757
1453.360459	-3.016200	3.508900	-10.583000	25.915367	0.000297	20.901436
1454.358171	-2.989700	3.510300	-10.494000	25.883147	0.000298	20.897991
1455.361244	-3.022800	3.508900	-10.605000	25.890727	0.000297	20.915087
1456.360877	-3.013200	3.508500	-10.570000	25.854752	0.000296	20.906925
1457.363171	-3.007700	3.507000	-10.547000	25.819946	0.000294	20.913685
1458.364885	-2.996200	3.508000	-10.509000	25.767603	0.000294	20.915160
1459.361195	-3.005800	3.508000	-10.544000	25.719404	0.000294	20.890931
1460.363042	-3.006400	3.507000	-10.542000	25.758312	0.000295	20.910096
1461.364244	-2.996000	3.506900	-10.505000	25.806260	0.000294	20.913688
1462.362183	-3.002900	3.505800	-10.527000	25.788595	0.000294	20.918229
1463.360782	-3.001600	3.506400	-10.524000	25.759529	0.000294	20.924118
1464.361876	-3.011800	3.505100	-10.556000	25.765395	0.000294	20.888288
1465.363076	-2.999200	3.506000	-10.514000	25.790957	0.000292	20.891206
1466.363081	-3.046500	3.503400	-10.672000	25.823179	0.000294	20.909821
1467.363976	-2.989300	3.506000	-10.480000	25.782236	0.000294	20.913264
1468.362539	-3.023800	3.503700	-10.594000	25.771082	0.000292	20.923396
1469.363315	-3.011300	3.503100	-10.547000	25.761839	0.000292	20.920276
1470.367599	-3.003200	3.502900	-10.519000	25.805565	0.000291	20.905405
1471.364883	-3.008800	3.503200	-10.540000	25.808148	0.000289	20.909895
1472.366121	-3.008900	3.504400	-10.544000	25.760821	0.000291	20.908349
1473.365605	-3.005200	3.504600	-10.531000	25.780521	0.000291	20.907749
1474.365724	-3.012700	3.503600	-10.553000	25.780845	0.000292	20.922297
1475.364873	-2.991100	3.502700	-10.475000	25.819875	0.000289	20.909821
1476.364031	-3.011400	3.501300	-10.543000	25.839226	0.000292	20.921672
1477.364026	-3.004100	3.502400	-10.521000	25.795725	0.000288	20.924442
1478.364990	-2.993300	3.502200	-10.482000	25.704024	0.000289	20.928584
1479.370423	-3.011700	3.501400	-10.543000	25.707850	0.000289	20.930056
1480.368430	-2.982500	3.500100	-10.438000	25.711103	0.000288	20.923368
1481.366289	-2.992800	3.500700	-10.475000	25.754708	0.000287	20.935396
1482.365431	-3.013200	3.500500	-10.547000	25.794631	0.000287	20.934721
1483.367701	-3.000100	3.499300	-10.498000	25.837037	0.000287	20.921844
1484.368351	-3.006800	3.499600	-10.522000	25.848169	0.000288	20.920699
1485.366751	-3.005500	3.498800	-10.515000	25.830827	0.000287	20.945000
1486.367677	-3.009400	3.498400	-10.527000	25.816293	0.000287	20.922817
1487.369296	-3.002100	3.497600	-10.499000	25.811276	0.000285	20.925838
1488.368824	-3.005800	3.498300	-10.515000	25.782854	0.000286	20.931426
1489.368344	-2.984400	3.497500	-10.437000	25.750233	0.000287	20.928057
1490.373118	-2.996100	3.498300	-10.480000	25.822605	0.000286	20.938164
1491.367863	-3.005400	3.496600	-10.508000	25.829213	0.000286	20.945276
1492.370050	-3.015600	3.496600	-10.543000	25.833908	0.000286	20.927709
1493.371924	-3.016000	3.496100	-10.544000	25.840393	0.000284	20.938015
1494.368391	-2.995100	3.497300	-10.474000	25.833212	0.000285	20.936017
1495.371363	-2.995800	3.495600	-10.470000	25.820591	0.000284	20.950839
1496.368432	-3.007800	3.496100	-10.515000	25.804915	0.000284	20.943154
1497.368693	-3.016200	3.494600	-10.539000	25.800145	0.000285	20.955905
1498.369886	-2.990500	3.495400	-10.451000	25.809437	0.000283	20.948644
1499.371254	-2.996300	3.494300	-10.469000	25.859072	0.000286	20.967680
1500.372841	-3.005300	3.495500	-10.504000	25.858377	0.000284	20.964612
1501.370084	-2.999900	3.494600	-10.482000	25.841360	0.000280	20.949891
1502.370845	-3.015800	3.493700	-10.535000	25.849085	0.000282	20.951013
1503.373615	-3.021600	3.492300	-10.552000	25.861234	0.000283	20.948044
1504.375225	-3.006900	3.491900	-10.498000	25.868238	0.000283	20.957450
1505.373620	-3.011900	3.491500	-10.515000	25.862922	0.000281	20.960644
1506.372721	-3.013300	3.491600	-10.520000	25.831570	0.000282	20.953332
1507.372253	-2.992600	3.492600	-10.451000	25.826678	0.000280	20.955530
1508.375236	-2.995700	3.491500	-10.459000	25.774553	0.000280	20.966232
1509.377316	-3.023600	3.490700	-10.553000	25.800591	0.000280	20.951137
1510.375039	-2.964700	3.490900	-10.348000	25.810826	0.000279	20.941505
1511.373812	-2.995600	3.489800	-10.454000	25.825433	0.000280	20.935790
1512.373515	-2.979900	3.491600	-10.404000	25.804962	0.000279	20.960268
1513.373910	-2.994400	3.489700	-10.448000	25.796019	0.000279	20.952235
1514.373474	-2.969400	3.489500	-10.361000	25.830601	0.000278	20.966107
1515.373507	-2.986500	3.488300	-10.417000	25.886545	0.000277	20.952133
1516.374216	-3.014800	3.487400	-10.513000	25.875044	0.000277	20.970449
1517.374063	-2.990600	3.489300	-10.433000	25.908182	0.000277	20.973867
1518.381150	-3.011800	3.487100	-10.501000	25.916704	0.000276	20.967730
1519.376108	-3.011200	3.487300	-10.500000	25.869282	0.000276	20.956602
1520.375722	-2.994800	3.487000	-10.442000	25.833308	0.000275	20.937536
1521.376105	-2.988000	3.486900	-10.418000	25.788988	0.000277	20.969825
1522.378562	-2.997000	3.486600	-10.448000	25.809360	0.000273	20.973219
1523.376168	-2.993800	3.486400	-10.437000	25.841708	0.000274	20.968256
1524.375986	-3.008000	3.486200	-10.486000	25.805983	0.000273	20.964612
1525.376232	-3.019800	3.484800	-10.522000	25.771797	0.000271	20.946396
1526.381398	-3.004600	3.484800	-10.469000	25.834355	0.000276	20.966086
1527.388368	-3.015800	3.483600	-10.504000	25.882175	0.000273	20.991360
1528.381328	-2.979700	3.484700	-10.382000	25.893331	0.000273	20.964639
1529.378988	-3.011800	3.484500	-10.494000	25.941398	0.000272	20.974046
1530.378025	-3.038600	3.482600	-10.582000	25.904312	0.000271	20.958601
1531.380064	-3.004600	3.484100	-10.468000	25.852292	0.000270	20.959449
1532.380838	-3.019300	3.483000	-10.515000	25.812098	0.000273	20.952264
1533.379341	-2.981200	3.485400	-10.390000	25.807426	0.000273	20.969854
1534.381392	-2.983500	3.484300	-10.394000	25.841114	0.000270	20.953436
1535.381008	-3.000300	3.482200	-10.447000	25.814607	0.000271	20.931079
1536.381120	-3.014900	3.482300	-10.498000	25.795676	0.000270	20.952838
1537.379057	-2.990300	3.482600	-10.412000	25.802509	0.000269	20.941685
1538.382014	-2.997000	3.479800	-10.427000	25.826432	0.000271	20.949594
1539.378904	-3.018500	3.480200	-10.504000	25.852591	0.000270	20.967334
1540.380273	-3.011700	3.481200	-10.483000	25.837437	0.000269	20.929357
1541.379789	-3.006900	3.479100	-10.461000	25.844245	0.000270	20.939513
1542.383107	-3.000300	3.481500	-10.444000	25.879196	0.000268	20.929107
1543.380901	-3.007200	3.479800	-10.463000	25.906621	0.000269	20.948594
1544.380777	-3.026900	3.479600	-10.532000	25.912880	0.000270	20.946348
1545.385273	-2.986500	3.479800	-10.392000	25.945123	0.000267	20.947445
1546.382969	-2.974000	3.479800	-10.348000	25.934515	0.000268	20.948168
1547.382552	-2.996500	3.477400	-10.420000	25.949295	0.000268	20.934569
1548.385312	-3.000400	3.478900	-10.437000	25.923161	0.000266	20.948616
1549.383076	-2.982500	3.478800	-10.375000	25.938116	0.000267	20.947993
1550.384497	-3.012800	3.476200	-10.471000	25.942263	0.000267	20.931298
1551.389008	-3.018200	3.476900	-10.493000	25.940849	0.000266	20.929877
1552.386616	-3.001200	3.476300	-10.433000	25.876385	0.000265	20.936714
1553.386565	-3.008300	3.476200	-10.455000	25.871416	0.000266	20.935989
1554.387392	-3.004900	3.475200	-10.442000	25.827097	0.000266	20.954055
1555.383115	-2.989800	3.475500	-10.391000	25.816041	0.000264	20.937735
1556.382162	-2.987800	3.474400	-10.380000	25.805234	0.000264	20.930199
1557.384492	-3.003800	3.474800	-10.436000	25.786676	0.000264	20.935739
1558.389062	-3.014700	3.474100	-10.472000	25.836612	0.000264	20.926158
1559.385190	-2.994500	3.474300	-10.403000	25.866696	0.000264	20.954479
1560.396451	-3.004200	3.474900	-10.439000	25.930588	0.000262	20.948016
1561.384966	-3.016400	3.473600	-10.477000	25.921199	0.000263	20.923888
1562.385487	-2.999900	3.473800	-10.420000	25.921546	0.000261	20.913806
1563.387210	-2.978500	3.474700	-10.349000	25.952623	0.000263	20.940283
1564.389167	-3.008900	3.472600	-10.447000	25.938190	0.000261	20.945223
1565.386915	-3.016300	3.471900	-10.471000	25.933994	0.000262	20.924888
1566.388375	-2.994600	3.472800	-10.399000	25.929299	0.000263	20.916379
1567.391520	-3.009800	3.471500	-10.448000	25.939783	0.000262	20.914109
1568.388998	-2.997700	3.470900	-10.404000	25.956103	0.000261	20.918177
1569.389647	-3.002200	3.470600	-10.418000	25.933078	0.000261	20.919227
1570.389712	-2.992900	3.470900	-10.387000	25.966637	0.000261	20.923069
1571.387777	-3.004900	3.471200	-10.429000	25.935365	0.000260	20.914413
1572.391004	-2.998800	3.471800	-10.411000	25.893755	0.000259	20.938990
1573.391509	-3.010700	3.470500	-10.448000	25.903122	0.000262	20.895773
1574.388282	-3.004200	3.469200	-10.422000	25.952555	0.000261	20.911294
1575.390992	-3.012800	3.469900	-10.453000	25.956753	0.000259	20.934476
1576.391493	-2.993300	3.469500	-10.384000	25.975085	0.000259	20.927764
1577.389703	-3.005100	3.469800	-10.425000	25.978887	0.000258	20.902663
1578.390259	-3.005900	3.467400	-10.422000	25.977869	0.000258	20.921078
1579.391875	-3.004400	3.468100	-10.419000	25.909756	0.000258	20.914764
1580.395093	-3.006700	3.468400	-10.428000	25.925805	0.000257	20.921403
1581.391006	-3.000000	3.467100	-10.401000	25.876943	0.000256	20.892708
1582.393651	-3.009800	3.468700	-10.439000	25.894781	0.000255	20.912049
1583.391531	-2.997100	3.465900	-10.387000	25.919970	0.000256	20.917912
1584.395464	-3.017100	3.466700	-10.458000	25.870858	0.000256	20.894656
1585.395946	-2.996000	3.466300	-10.385000	25.851457	0.000255	20.886546
1586.394040	-2.983100	3.467200	-10.342000	25.859979	0.000255	20.900796
1587.393252	-3.011400	3.466000	-10.436000	25.908495	0.000255	20.917290
1588.394000	-3.002700	3.465600	-10.405000	25.937485	0.000255	20.914172
1589.396035	-2.956200	3.466600	-10.247000	25.909291	0.000254	20.895332
1590.394017	-2.996900	3.464500	-10.381000	25.864749	0.000253	20.914121
1591.397403	-2.985200	3.464200	-10.340000	25.871855	0.000253	20.894709
1592.398212	-3.010600	3.463100	-10.424000	25.886563	0.000254	20.917068
1593.398782	-2.977700	3.463200	-10.311000	25.892476	0.000252	20.915896
1594.400669	-3.021300	3.462000	-10.459000	25.946009	0.000253	20.886228
1595.405479	-3.012200	3.462800	-10.428000	25.951674	0.000251	20.893815
1596.397567	-3.006200	3.462900	-10.409000	25.959474	0.000251	20.907341
1597.399976	-3.010100	3.462300	-10.422000	25.939802	0.000252	20.897061
1598.401630	-3.006300	3.461400	-10.405000	25.912279	0.000252	20.892171
1599.397246	-3.026200	3.460500	-10.470000	25.901201	0.000251	20.907593
1600.398695	-3.022200	3.461400	-10.460000	25.908729	0.000250	20.894294
1601.398864	-3.029500	3.460100	-10.481000	25.915661	0.000249	20.901731
1602.397953	-3.022900	3.461200	-10.462000	25.862352	0.000251	20.906498
1603.402956	-3.008000	3.460300	-10.408000	25.865782	0.000249	20.902832
1604.398562	-2.992700	3.461400	-10.357000	25.871697	0.000249	20.902135
1605.400562	-3.008600	3.458600	-10.404000	25.904239	0.000249	20.870819
1606.399550	-3.021900	3.459100	-10.451000	25.881981	0.000249	20.895398
1607.401094	-2.997200	3.458700	-10.365000	25.887895	0.000248	20.891382
1608.400636	-3.000000	3.459000	-10.376000	25.880866	0.000246	20.893330
1609.399355	-3.010300	3.457900	-10.408000	25.833245	0.000248	20.892433
1610.402335	-2.978800	3.459600	-10.305000	25.786514	0.000246	20.909027
1611.402981	-3.022200	3.458400	-10.450000	25.843035	0.000248	20.903689
1612.401936	-2.989000	3.457100	-10.332000	25.892570	0.000247	20.911724
1613.401320	-2.986800	3.457700	-10.327000	25.858687	0.000247	20.886697
1614.400126	-2.994500	3.458000	-10.354000	25.915002	0.000245	20.882579
1615.401118	-3.016500	3.456100	-10.425000	25.897292	0.000247	20.862892
1616.400490	-3.002000	3.456400	-10.375000	25.915998	0.000244	20.878838
1617.404164	-2.989500	3.455400	-10.329000	25.920422	0.000244	20.877593
1618.403528	-2.992900	3.457100	-10.346000	25.955521	0.000244	20.881086
1619.400637	-3.014400	3.455600	-10.415000	25.911281	0.000243	20.884056
1620.398730	-2.992800	3.454300	-10.337000	25.892303	0.000245	20.883009
1621.406426	-2.983000	3.455900	-10.308000	25.912126	0.000244	20.853139
1622.401577	-2.991800	3.454700	-10.335000	25.916326	0.000244	20.873952
1623.402010	-3.021400	3.453300	-10.433000	25.929716	0.000242	20.890248
1624.406215	-2.991800	3.455100	-10.336000	25.902193	0.000242	20.899581
1625.407460	-2.988400	3.454300	-10.321000	25.875465	0.000242	20.893594
1626.404917	-3.011300	3.452800	-10.396000	25.891663	0.000241	20.881892
1627.402560	-2.997500	3.452800	-10.349000	25.905006	0.000241	20.864477
1628.404215	-2.997000	3.453000	-10.348000	25.961444	0.000243	20.872338
1629.402455	-2.997100	3.452300	-10.345000	25.958886	0.000240	20.866924
1630.403370	-2.979900	3.453100	-10.288000	25.957050	0.000240	20.893526
1631.403752	-3.001500	3.451300	-10.358000	25.880243	0.000240	20.868050
1632.405632	-3.015400	3.451600	-10.406000	25.874529	0.000239	20.859940
1633.402413	-2.993300	3.451900	-10.332000	25.890381	0.000240	20.878708
1634.404988	-3.000100	3.451900	-10.355000	25.884768	0.000237	20.872121
1635.408985	-3.014600	3.450100	-10.400000	25.844030	0.000237	20.877663
1636.408479	-2.998400	3.450300	-10.345000	25.842813	0.000237	20.884976
1637.406415	-2.987400	3.449800	-10.305000	25.843386	0.000238	20.856630
1638.409966	-2.983700	3.451000	-10.295000	25.844829	0.000238	20.896957
1639.408137	-3.004200	3.449500	-10.362000	25.898065	0.000239	20.859876
1640.407290	-2.999100	3.448900	-10.342000	25.890367	0.000238	20.872056
1641.410356	-2.993500	3.448200	-10.322000	25.831890	0.000238	20.883486
1642.409666	-2.988200	3.448400	-10.304000	25.848262	0.000238	20.874329
1643.409127	-2.979900	3.447100	-10.271000	25.824366	0.000235	20.856490
1644.419000	-2.980600	3.448700	-10.278000	25.827744	0.000235	20.864150
1645.411060	-2.987200	3.446600	-10.295000	25.854898	0.000236	20.857289
1646.409744	-2.979200	3.447400	-10.270000	25.878325	0.000237	20.859959
1647.414330	-2.999700	3.446600	-10.338000	25.882476	0.000236	20.865551
1648.410485	-2.988100	3.446600	-10.297000	25.908909	0.000235	20.882147
1649.411855	-2.989200	3.447500	-10.304000	25.910001	0.000235	20.856694
1650.414360	-2.972100	3.446400	-10.242000	25.860691	0.000236	20.854099
1651.410207	-3.040300	3.444000	-10.469000	25.798387	0.000235	20.846515
1652.410859	-3.017600	3.444600	-10.394000	25.815156	0.000235	20.845341
1653.414381	-2.985600	3.446600	-10.289000	25.800028	0.000234	20.854327
1654.410506	-2.996700	3.445100	-10.323000	25.829742	0.000235	20.859045
1655.410848	-2.998400	3.443800	-10.325000	25.857913	0.000234	20.846093
1656.417428	-3.010800	3.443500	-10.367000	25.924392	0.000234	20.847918
1657.410930	-2.971400	3.443800	-10.232000	25.938797	0.000234	20.860492
1658.410326	-2.988700	3.443400	-10.291000	25.931769	0.000233	20.861966
1659.411372	-3.005500	3.443200	-10.347000	25.958498	0.000233	20.866059
1660.411515	-2.986000	3.442800	-10.280000	25.981922	0.000234	20.854981
1661.414704	-2.988400	3.444300	-10.292000	25.917065	0.000233	20.866161
1662.413302	-3.003300	3.440900	-10.333000	25.916966	0.000232	20.842829
1663.417684	-3.012600	3.441300	-10.367000	25.925237	0.000231	20.873422
1664.412293	-3.002400	3.441600	-10.331000	25.949955	0.000232	20.845150
1665.413992	-3.004800	3.440800	-10.337000	25.951844	0.000230	20.843729
1666.423003	-2.992700	3.441100	-10.297000	25.947026	0.000232	20.855009
1667.414117	-2.994700	3.440100	-10.301000	25.970947	0.000231	20.847274
1668.414095	-3.005000	3.439400	-10.335000	26.007188	0.000229	20.836269
1669.416717	-2.993500	3.440100	-10.297000	26.048617	0.000231	20.849444
1670.413722	-2.989400	3.439200	-10.280000	26.062527	0.000227	20.840661
1671.413126	-2.992000	3.439400	-10.290000	26.053960	0.000229	20.849597
1672.415605	-2.994100	3.438600	-10.295000	25.966502	0.000229	20.849446
1673.419881	-2.977900	3.438100	-10.238000	25.982074	0.000229	20.852763
1674.414062	-3.007600	3.438000	-10.338000	25.959198	0.000228	20.844953
1675.414627	-3.020700	3.436700	-10.380000	25.966650	0.000225	20.847698
1676.421327	-3.015400	3.436200	-10.361000	25.987787	0.000227	20.855657
1677.416181	-3.022200	3.436300	-10.383000	25.982398	0.000227	20.852139
1678.416942	-2.999500	3.436400	-10.305000	25.954650	0.000228	20.842754
1679.417518	-3.013400	3.436100	-10.354000	25.923477	0.000225	20.837042
1680.414720	-2.998700	3.437100	-10.305000	25.935200	0.000225	20.842181
1681.417504	-3.014400	3.433300	-10.349000	25.943199	0.000226	20.829354
1682.418046	-3.002300	3.433800	-10.309000	25.967170	0.000225	20.846324
1683.422233	-3.004800	3.434200	-10.318000	25.941511	0.000224	20.838089
1684.417833	-2.993700	3.434000	-10.279000	25.936814	0.000222	20.842380
1685.418411	-3.017800	3.433000	-10.358000	25.934281	0.000224	20.859748
1686.419520	-3.003000	3.433400	-10.310000	25.945110	0.000224	20.843601
1687.421866	-2.991800	3.432600	-10.268000	25.932342	0.000223	20.837413
1688.421204	-2.998900	3.432500	-10.293000	25.902954	0.000220	20.849614
1689.421363	-3.008100	3.433500	-10.327000	25.881516	0.000224	20.835191
1690.420355	-3.009500	3.431000	-10.325000	25.847306	0.000221	20.840179
1691.423481	-3.026500	3.431000	-10.383000	25.840675	0.000221	20.837786
1692.424168	-3.007300	3.431000	-10.318000	25.897588	0.000222	20.833794
1693.422027	-3.010700	3.431300	-10.330000	25.963489	0.000223	20.824135
1694.423898	-2.996200	3.432200	-10.283000	26.023600	0.000220	20.845645
1695.430438	-3.042300	3.430800	-10.436000	26.071562	0.000221	20.826980
1696.424144	-3.007300	3.431000	-10.317000	26.070470	0.000221	20.841055
1697.423563	-3.000300	3.430000	-10.291000	26.090884	0.000219	20.828376
1698.424125	-3.026400	3.430100	-10.379000	26.111847	0.000222	20.847068
1699.426781	-2.975300	3.429100	-10.202000	26.092225	0.000219	20.861016
1700.425900	-2.980400	3.429100	-10.219000	26.044241	0.000218	20.805219
1701.429284	-2.996800	3.428800	-10.274000	26.068084	0.000217	20.830597
1702.428612	-3.006700	3.429700	-10.311000	26.038326	0.000217	20.831045
1703.429079	-2.994800	3.429900	-10.271000	25.991283	0.000219	20.818394
1704.432873	-3.023900	3.427600	-10.363000	25.991980	0.000219	20.829050
1705.429708	-2.998000	3.429000	-10.279000	26.018258	0.000215	20.825106
1706.431910	-3.022100	3.427800	-10.359000	26.020568	0.000217	20.799453
1707.429505	-3.013900	3.426300	-10.326000	25.984303	0.000216	20.814700
1708.429668	-3.014100	3.425700	-10.324000	26.021139	0.000216	20.826104
1709.430032	-3.005600	3.426400	-10.297000	26.038229	0.000215	20.831421
1710.428731	-2.985600	3.427100	-10.230000	25.992128	0.000216	20.828251
1711.430060	-3.002800	3.427100	-10.290000	25.972754	0.000214	20.835338
1712.435374	-3.015200	3.425600	-10.328000	26.045704	0.000216	20.825655
1713.429566	-3.002000	3.426800	-10.287000	26.029933	0.000215	20.834939
1714.429789	-3.003300	3.425500	-10.286000	26.011107	0.000214	20.832620
1715.432575	-3.014200	3.424500	-10.321000	25.957875	0.000214	20.838409
1716.430695	-2.999800	3.425700	-10.275000	25.937828	0.000214	20.839132
1717.435377	-2.995900	3.424900	-10.260000	25.955590	0.000215	20.841802
1718.430673	-3.010100	3.422700	-10.300000	25.980183	0.000212	20.805345
1719.430371	-3.006900	3.422700	-10.291000	26.005420	0.000213	20.826433
1720.431376	-2.972600	3.423400	-10.176000	26.012922	0.000214	20.805047
1721.432194	-3.009300	3.421800	-10.296000	26.040518	0.000215	20.810962
1722.432401	-3.010400	3.421500	-10.300000	26.057085	0.000212	20.824288
1723.433209	-3.004000	3.422300	-10.280000	26.022857	0.000212	20.842055
1724.432735	-2.985600	3.422100	-10.216000	26.034284	0.000212	20.830777
1725.433533	-2.983500	3.422300	-10.210000	26.015333	0.000213	20.805098
1726.432359	-2.993600	3.421000	-10.241000	26.078273	0.000211	20.819498
1727.437295	-3.010700	3.419700	-10.295000	26.037911	0.000213	20.816877
1728.432694	-2.998200	3.421100	-10.255000	26.041365	0.000214	20.818451
1729.433577	-2.987800	3.420700	-10.220000	26.024052	0.000212	20.800582
1730.434246	-3.011600	3.419500	-10.297000	26.026513	0.000211	20.818227
1731.434310	-2.986000	3.421200	-10.215000	25.975220	0.000212	20.819799
1732.434796	-3.008700	3.418800	-10.285000	26.001995	0.000209	20.792646
1733.438489	-2.987000	3.417800	-10.208000	26.022166	0.000211	20.794420
1734.435115	-3.009200	3.418100	-10.285000	26.058404	0.000212	20.809492
1735.436599	-2.942700	3.418800	-10.059000	26.111059	0.000210	20.807870
1736.440034	-3.019200	3.416600	-10.314000	26.086125	0.000210	20.802257
1737.437601	-3.028300	3.416200	-10.343000	26.071867	0.000210	20.820173
1738.442341	-3.000600	3.418900	-10.258000	26.049662	0.000209	20.802131
1739.439878	-2.993700	3.418600	-10.233000	26.010741	0.000208	20.795269
1740.443063	-3.015200	3.416800	-10.301000	26.007215	0.000209	20.804054
1741.439987	-3.008100	3.416800	-10.276000	25.954627	0.000209	20.810016
1742.440318	-2.991000	3.416000	-10.216000	25.913394	0.000208	20.814111
1743.440753	-2.977800	3.416700	-10.174000	25.924000	0.000208	20.808171
1744.440004	-3.008300	3.414300	-10.269000	25.950280	0.000208	20.804700
1745.442600	-2.988800	3.415600	-10.207000	25.983964	0.000208	20.800609
1746.440374	-2.988600	3.414700	-10.204000	25.993327	0.000208	20.786782
1747.441008	-3.013200	3.414900	-10.289000	25.984683	0.000208	20.802280
1748.440639	-3.009200	3.413700	-10.272000	26.005548	0.000205	20.823716
1749.443515	-3.001500	3.413800	-10.245000	26.033714	0.000205	20.790375
1750.441882	-3.011800	3.414000	-10.281000	26.056741	0.000206	20.790751
1751.442741	-3.000500	3.413000	-10.240000	26.058107	0.000206	20.813461
1752.442321	-3.035600	3.412900	-10.359000	26.051919	0.000206	20.796338
1753.443020	-2.990000	3.413300	-10.206000	26.047375	0.000206	20.810738
1754.444036	-3.007500	3.412500	-10.262000	26.001871	0.000205	20.812436
1755.441308	-3.013200	3.411700	-10.279000	25.974422	0.000206	20.802877
1756.443561	-2.999000	3.412400	-10.233000	25.943397	0.000207	20.787354
1757.443910	-3.016700	3.411500	-10.291000	25.989302	0.000205	20.792696
1758.442845	-2.996300	3.412000	-10.223000	25.970769	0.000204	20.806318
1759.445740	-2.986300	3.410000	-10.182000	26.040768	0.000204	20.813109
1760.444967	-2.984800	3.411600	-10.182000	26.056737	0.000202	20.823464
1761.445858	-2.980600	3.411000	-10.166000	26.052564	0.000203	20.823064
1762.443621	-2.994300	3.409600	-10.209000	26.029440	0.000203	20.805995
1763.446032	-2.991200	3.410600	-10.200000	26.008876	0.000201	20.809991
1764.446128	-3.002300	3.409100	-10.234000	26.014090	0.000202	20.770185
1765.448789	-3.005400	3.410400	-10.248000	26.017169	0.000200	20.781339
1766.446219	-3.018200	3.407500	-10.284000	26.004927	0.000200	20.799385
1767.446122	-3.012400	3.408100	-10.266000	25.970896	0.000201	20.803601
1768.450919	-3.014400	3.407700	-10.270000	25.984459	0.000202	20.792571
1769.446808	-2.984700	3.407000	-10.168000	25.977629	0.000201	20.801831
1770.468872	-3.008300	3.408100	-10.252000	26.016949	0.000200	20.779695
1771.448483	-2.999100	3.408000	-10.220000	26.001673	0.000198	20.805599
1772.448895	-2.994600	3.407800	-10.204000	26.022488	0.000201	20.799959
1773.450152	-3.002600	3.405500	-10.224000	26.100379	0.000199	20.789078
1774.450129	-3.015300	3.404900	-10.266000	26.087390	0.000197	20.784562
1775.448742	-2.990400	3.406400	-10.185000	26.078026	0.000197	20.794120
1776.452514	-3.002500	3.405400	-10.223000	26.054134	0.000197	20.798563
1777.448891	-2.995200	3.406100	-10.201000	26.086149	0.000197	20.810342
1778.452451	-3.019200	3.403400	-10.275000	26.040126	0.000198	20.796343
1779.450564	-3.003200	3.403900	-10.222000	26.003243	0.000197	20.814763
1780.452423	-2.993000	3.404400	-10.189000	26.016233	0.000198	20.794149
1781.451486	-3.004000	3.405300	-10.229000	26.067100	0.000197	20.799737
1782.450140	-2.989100	3.404400	-10.174000	26.105375	0.000197	20.786987
1783.450383	-3.005000	3.403200	-10.226000	26.114067	0.000201	20.792401
1784.452480	-3.005900	3.401700	-10.224000	26.144839	0.000197	20.782543
1785.451256	-2.982400	3.402700	-10.148000	26.130635	0.000197	20.783444
1786.457488	-2.995200	3.403100	-10.192000	26.076665	0.000194	20.806503
1787.452775	-2.989100	3.402400	-10.169000	26.102323	0.000197	20.810946
1788.452351	-2.970400	3.401400	-10.103000	26.130039	0.000195	20.793751
1789.455454	-2.988200	3.401300	-10.163000	26.103166	0.000195	20.793776
1790.453064	-2.998700	3.401000	-10.196000	26.067526	0.000196	20.799217
1791.458114	-2.996900	3.400600	-10.190000	26.060919	0.000194	20.779302
1792.452901	-2.978400	3.399500	-10.124000	26.074755	0.000193	20.804584
1793.453959	-2.991300	3.399000	-10.166000	26.059800	0.000191	20.796670
1794.453736	-3.008300	3.398900	-10.224000	26.079025	0.000194	20.810296
1795.454636	-3.017200	3.398600	-10.253000	26.127954	0.000191	20.811096
1796.452019	-2.989600	3.399600	-10.163000	26.131059	0.000190	20.802362
1797.456303	-2.984900	3.398100	-10.142000	26.098074	0.000191	20.775857
1798.452818	-3.038500	3.397600	-10.323000	26.053816	0.000191	20.800615
1799.455180	-2.986300	3.397800	-10.147000	26.060795	0.000194	20.792929
1800.464430	-2.975300	3.400400	-10.117000	26.033970	0.000192	20.771666
1801.454132	-3.006000	3.397700	-10.212000	26.049395	0.000191	20.804234
1802.460268	-2.985900	3.396900	-10.142000	26.059629	0.000191	20.798395
1803.454975	-2.991000	3.398100	-10.163000	26.116878	0.000190	20.811820
1804.455761	-2.987200	3.396200	-10.144000	26.108682	0.000191	20.789361
1805.456501	-2.983400	3.397600	-10.136000	26.130612	0.000190	20.807128
1806.456163	-3.001700	3.396600	-10.194000	26.132499	0.000188	20.808551
1807.458103	-2.990000	3.396300	-10.154000	26.119014	0.000188	20.808277
1808.456697	-3.018600	3.393900	-10.244000	26.147849	0.000188	20.810224
1809.456266	-2.991500	3.394900	-10.155000	26.204324	0.000186	20.802014
1810.458980	-3.018700	3.395500	-10.249000	26.215201	0.000189	20.825272
1811.456187	-2.987200	3.395600	-10.142000	26.233106	0.000187	20.803437
1812.462172	-3.022800	3.393900	-10.257000	26.205490	0.000186	20.814091
1813.457655	-2.995400	3.395400	-10.170000	26.130264	0.000186	20.802511
1814.459811	-2.992800	3.394100	-10.157000	26.152219	0.000183	20.788063
1815.457011	-3.011000	3.393500	-10.217000	26.151127	0.000188	20.801190
1816.455894	-3.001000	3.394200	-10.184000	26.157608	0.000184	20.802012
1817.456504	-3.009600	3.392000	-10.207000	26.194388	0.000187	20.799142
1818.459825	-2.990500	3.391900	-10.142000	26.197516	0.000186	20.814613
1819.458317	-3.011400	3.392100	-10.214000	26.208867	0.000186	20.804683
1820.456743	-3.010000	3.392000	-10.209000	26.189297	0.000184	20.812044
1821.464502	-2.992900	3.391700	-10.150000	26.180406	0.000183	20.828713
1822.456605	-2.994200	3.390800	-10.152000	26.214501	0.000184	20.819827
1823.462241	-3.008200	3.391600	-10.201000	26.168980	0.000183	20.821500
1824.458243	-3.021600	3.390400	-10.243000	26.160213	0.000181	20.822173
1825.458339	-3.015500	3.390600	-10.223000	26.183781	0.000181	20.833053
1826.458157	-3.017100	3.388800	-10.223000	26.172380	0.000182	20.841986
1827.460283	-3.014100	3.389000	-10.214000	26.147620	0.000183	20.822322
1828.459757	-3.018700	3.388300	-10.228000	26.132073	0.000181	20.810019
1829.458815	-3.013200	3.389000	-10.211000	26.126981	0.000183	20.834774
1830.460945	-3.017900	3.388900	-10.225000	26.138653	0.000181	20.832751
1831.464758	-3.012100	3.387000	-10.200000	26.132096	0.000181	20.819051
1832.460530	-2.990600	3.388900	-10.134000	26.123180	0.000179	20.835696
1833.464334	-3.000300	3.388300	-10.165000	26.144711	0.000183	20.819873
1834.463168	-3.003600	3.386200	-10.170000	26.185912	0.000179	20.824290
1835.462475	-3.023400	3.385300	-10.234000	26.182659	0.000181	20.824339
1836.463570	-3.017200	3.386900	-10.219000	26.171781	0.000180	20.829530
1837.463847	-3.010200	3.387100	-10.194000	26.165348	0.000178	20.847247
1838.467367	-2.995400	3.385300	-10.139000	26.149131	0.000178	20.812461
1839.469794	-2.982800	3.386100	-10.100000	26.181418	0.000180	20.842058
1840.467556	-3.000900	3.385700	-10.159000	26.222344	0.000179	20.832449
1841.466066	-3.004200	3.384900	-10.168000	26.231459	0.000181	20.822643
1842.469599	-2.985900	3.383900	-10.103000	26.237764	0.000180	20.826609
1843.465285	-3.001500	3.383300	-10.154000	26.183477	0.000177	20.823265
1844.469751	-3.028400	3.384000	-10.247000	26.170093	0.000179	20.803653
1845.465607	-3.000500	3.382900	-10.149000	26.185292	0.000179	20.832675
1846.466347	-3.011800	3.381700	-10.184000	26.154470	0.000177	20.850067
1847.465549	-2.993200	3.384400	-10.130000	26.160032	0.000177	20.828155
1848.467193	-3.009100	3.382000	-10.175000	26.203767	0.000177	20.836541
1849.469626	-3.011600	3.382500	-10.186000	26.204661	0.000177	20.842181
1850.469671	-2.973400	3.383500	-10.059000	26.266023	0.000177	20.831299
1851.469624	-2.999300	3.382800	-10.145000	26.262870	0.000177	20.836665
1852.472729	-3.027700	3.381100	-10.235000	26.240295	0.000176	20.836738
1853.472710	-2.997800	3.382200	-10.138000	26.241216	0.000175	20.843827
1854.474180	-3.010900	3.380500	-10.177000	26.230660	0.000175	20.828479
1855.470137	-2.996000	3.380600	-10.127000	26.280748	0.000174	20.825234
1856.469871	-3.009200	3.380700	-10.172000	26.258573	0.000174	20.839933
1857.472550	-2.993300	3.379500	-10.115000	26.231853	0.000173	20.844850
1858.470609	-3.015300	3.379500	-10.189000	26.172423	0.000175	20.857674
1859.472901	-2.994700	3.380500	-10.123000	26.188890	0.000173	20.853359
1860.468875	-3.006500	3.378500	-10.156000	26.219435	0.000173	20.839483
1861.471803	-3.004200	3.378100	-10.148000	26.251419	0.000172	20.831322
1862.472926	-3.005100	3.378100	-10.151000	26.197629	0.000172	20.825158
1863.472563	-3.039400	3.377300	-10.263000	26.224698	0.000171	20.846668
1864.472256	-3.016400	3.378500	-10.190000	26.258274	0.000172	20.847219
1865.470992	-3.025300	3.376400	-10.214000	26.249334	0.000170	20.852459
1866.471562	-3.004900	3.377800	-10.149000	26.283280	0.000173	20.828253
1867.470512	-2.999400	3.377300	-10.129000	26.217125	0.000170	20.858498
1868.471922	-2.999000	3.376700	-10.126000	26.166189	0.000169	20.845722
1869.471935	-3.017000	3.375300	-10.182000	26.167009	0.000170	20.848442
1870.473799	-2.996900	3.375900	-10.117000	26.196512	0.000171	20.852958
1871.472017	-2.991000	3.375500	-10.096000	26.255218	0.000171	20.857424
1872.472743	-2.988200	3.374700	-10.083000	26.282310	0.000169	20.855726
1873.473969	-2.980300	3.375600	-10.059000	26.322838	0.000171	20.853782
1874.471686	-2.993100	3.375200	-10.100000	26.306496	0.000168	20.832144
1875.474290	-2.982800	3.374500	-10.064000	26.247743	0.000169	20.846593
1876.472550	-3.015000	3.373000	-10.169000	26.209102	0.000168	20.851384
1877.470832	-3.000900	3.373100	-10.121000	26.237610	0.000169	20.857747
1878.472726	-2.990900	3.373500	-10.089000	26.212030	0.000168	20.836784
1879.473279	-2.993400	3.372500	-10.094000	26.226830	0.000168	20.867776
1880.478131	-2.999100	3.373400	-10.116000	26.152576	0.000169	20.865706
1881.475175	-2.993100	3.372400	-10.093000	26.170583	0.000166	20.861041
1882.472348	-2.995100	3.372100	-10.099000	26.188264	0.000167	20.860791
1883.473983	-3.000600	3.371700	-10.116000	26.254421	0.000167	20.857097
1884.474901	-3.011700	3.371500	-10.153000	26.287523	0.000166	20.859068
1885.473067	-3.010900	3.370200	-10.146000	26.267731	0.000167	20.863834
1886.477309	-3.018200	3.370700	-10.172000	26.261995	0.000166	20.859967
1887.475075	-2.985700	3.370500	-10.063000	26.302026	0.000167	20.862263
1888.473803	-2.993200	3.370600	-10.088000	26.354867	0.000166	20.872219
1889.474659	-3.025400	3.369400	-10.192000	26.395092	0.000164	20.855749
1890.474712	-3.016100	3.369400	-10.161000	26.364750	0.000162	20.842324
1891.478789	-2.988200	3.368700	-10.065000	26.341136	0.000162	20.873592
1892.477439	-2.986500	3.368300	-10.059000	26.379051	0.000160	20.874714
1893.477218	-2.991200	3.368800	-10.077000	26.353876	0.000160	20.854155
1894.476727	-2.983200	3.368900	-10.049000	26.305079	0.000160	20.863909
1895.478061	-3.010600	3.368200	-10.138000	26.295968	0.000159	20.868977
1896.478783	-2.989400	3.367500	-10.066000	26.326909	0.000161	20.854554
1897.480151	-2.995000	3.367900	-10.086000	26.337960	0.000161	20.865186
1898.478346	-2.991100	3.367800	-10.073000	26.303346	0.000156	20.871175
1899.480334	-3.009300	3.367000	-10.132000	26.264657	0.000159	20.869279
1900.480384	-3.016700	3.366500	-10.154000	26.271213	0.000161	20.866859
1901.479814	-3.008200	3.366700	-10.127000	26.300070	0.000161	20.887322
1902.480450	-3.018600	3.365200	-10.157000	26.314446	0.000160	20.880434
1903.479531	-2.989500	3.364900	-10.059000	26.340968	0.000157	20.877217
1904.481186	-2.999000	3.364300	-10.089000	26.354775	0.000158	20.893463
1905.480884	-2.984700	3.365100	-10.043000	26.367068	0.000160	20.865042
1906.481988	-3.008300	3.364300	-10.120000	26.417249	0.000156	20.868535
1907.480899	-3.017100	3.363500	-10.147000	26.394283	0.000156	20.866790
1908.483783	-2.986400	3.364600	-10.047000	26.366870	0.000156	20.868162
1909.481743	-3.006000	3.365000	-10.113000	26.371415	0.000155	20.861825
1910.484819	-3.002500	3.363600	-10.098000	26.404340	0.000156	20.867415
1911.483795	-3.016200	3.362800	-10.142000	26.446798	0.000155	20.892543
1912.481161	-3.016600	3.362700	-10.143000	26.378914	0.000156	20.896386
1913.486218	-3.015500	3.361800	-10.137000	26.411021	0.000155	20.885982
1914.482641	-3.002500	3.361400	-10.092000	26.446627	0.000154	20.880044
1915.485183	-2.994200	3.361700	-10.065000	26.445883	0.000154	20.889253
1916.482147	-2.995100	3.360600	-10.065000	26.417629	0.000153	20.894520
1917.482728	-3.010500	3.360800	-10.117000	26.377255	0.000153	20.876702
1918.482434	-2.994900	3.360700	-10.064000	26.389123	0.000154	20.867294
1919.483676	-2.997600	3.361400	-10.075000	26.375345	0.000153	20.892325
1920.485784	-3.022600	3.359700	-10.154000	26.354611	0.000153	20.874807
1921.483530	-3.013500	3.359800	-10.124000	26.308526	0.000152	20.876855
1922.483516	-3.012400	3.358100	-10.115000	26.291615	0.000152	20.893524
1923.483386	-3.018000	3.359700	-10.139000	26.272744	0.000154	20.888784
1924.483259	-3.008300	3.359400	-10.104000	26.329260	0.000152	20.882994
1925.482426	-2.989600	3.358200	-10.038000	26.315081	0.000153	20.887236
1926.483403	-3.003800	3.358400	-10.087000	26.313792	0.000151	20.888784
1927.484150	-3.014400	3.357100	-10.119000	26.330677	0.000151	20.879677
1928.484616	-3.008800	3.357900	-10.102000	26.338127	0.000153	20.886689
1929.489776	-2.988400	3.357900	-10.034000	26.345554	0.000151	20.891782
1930.483795	-2.992500	3.356900	-10.044000	26.362810	0.000150	20.893003
1931.485126	-3.000500	3.355800	-10.068000	26.354914	0.000149	20.893602
1932.485526	-3.024900	3.355600	-10.149000	26.369590	0.000149	20.894128
1933.485536	-3.005800	3.355500	-10.085000	26.351042	0.000149	20.899668
1934.485745	-3.000800	3.357400	-10.075000	26.371527	0.000151	20.894177
1935.485822	-2.999300	3.355600	-10.064000	26.381857	0.000150	20.886542
1936.485080	-3.020300	3.353500	-10.127000	26.371430	0.000151	20.907829
1937.487382	-3.016800	3.354900	-10.120000	26.343545	0.000149	20.904935
1938.483804	-3.004600	3.354900	-10.078000	26.343345	0.000149	20.897148
1939.486371	-3.013500	3.354600	-10.108000	26.368723	0.000148	20.888041
1940.486481	-3.010100	3.353100	-10.092000	26.411827	0.000147	20.897697
1941.485350	-3.001400	3.353700	-10.065000	26.452919	0.000149	20.905806
1942.486885	-3.031700	3.352800	-10.164000	26.512779	0.000146	20.899593
1943.486793	-2.986800	3.351200	-10.008000	26.541928	0.000149	20.903289
1944.487501	-3.003100	3.352900	-10.068000	26.540960	0.000149	20.912272
1945.488226	-2.994700	3.351600	-10.036000	26.521719	0.000149	20.909527
1946.487088	-2.985100	3.351900	-10.004000	26.507493	0.000148	20.926520
1947.487860	-3.017400	3.352600	-10.116000	26.489988	0.000147	20.921727
1948.488616	-3.012100	3.350400	-10.091000	26.456373	0.000146	20.902641
1949.494176	-3.015300	3.351400	-10.104000	26.455030	0.000149	20.895602
1950.493587	-2.976300	3.350500	-9.971400	26.464218	0.000145	20.916214
1951.489828	-3.016500	3.349500	-10.102000	26.395019	0.000144	20.920156
1952.489620	-3.007000	3.350100	-10.073000	26.399835	0.000146	20.918359
1953.491618	-3.023600	3.349400	-10.126000	26.439860	0.000145	20.927766
1954.489307	-3.005100	3.349000	-10.064000	26.414534	0.000146	20.909899
1955.493363	-2.966600	3.350300	-9.938000	26.448647	0.000146	20.915262
1956.490932	-2.985600	3.349800	-10.000000	26.425034	0.000145	20.919504
1957.490283	-2.989700	3.347600	-10.008000	26.411926	0.000143	20.927191
1958.491469	-3.004400	3.346900	-10.055000	26.442763	0.000144	20.897022
1959.490376	-2.986400	3.347300	-9.995000	26.484896	0.000144	20.912343
1960.494704	-2.988000	3.347600	-10.001000	26.494629	0.000143	20.922125
1961.490188	-3.012200	3.346700	-10.081000	26.542767	0.000141	20.909347
1962.490463	-3.008400	3.347100	-10.069000	26.527349	0.000143	20.911393
1963.491435	-2.997700	3.346900	-10.032000	26.506272	0.000140	20.939515
1964.490848	-3.000300	3.346100	-10.039000	26.483081	0.000141	20.905304
1965.490528	-2.994800	3.346300	-10.021000	26.530179	0.000141	20.917556
1966.493411	-2.964600	3.346400	-9.920000	26.495643	0.000138	20.926937
1967.490313	-2.990400	3.345500	-10.004000	26.533156	0.000140	20.934297
1968.490304	-3.004500	3.344900	-10.049000	26.527670	0.000141	20.934947
1969.491591	-3.000800	3.343800	-10.034000	26.444694	0.000139	20.925512
1970.490479	-2.987000	3.344900	-9.990400	26.472156	0.000139	20.923717
1971.494534	-3.003300	3.344300	-10.043000	26.522055	0.000139	20.928355
1972.490004	-2.983700	3.343600	-9.975300	26.531615	0.000140	20.931326
1973.490314	-2.982400	3.343900	-9.971300	26.533924	0.000139	20.936017
1974.490622	-2.989200	3.343400	-9.993800	26.514409	0.000137	20.941056
1975.490289	-2.995300	3.343500	-10.012000	26.487346	0.000139	20.953681
1976.492394	-2.984200	3.343400	-9.976400	26.520715	0.000139	20.932697
1977.491766	-2.994900	3.342800	-10.010000	26.498072	0.000137	20.939334
1978.490821	-3.007200	3.342400	-10.050000	26.478950	0.000138	20.946665
1979.489151	-3.006100	3.340200	-10.040000	26.440345	0.000137	20.938210
1980.490711	-2.991200	3.342700	-9.996600	26.460381	0.000138	20.943649
1981.491941	-3.019000	3.339700	-10.082000	26.498839	0.000135	20.944845
1982.492566	-3.019700	3.339700	-10.084000	26.516540	0.000135	20.940827
1983.491904	-2.990700	3.340000	-9.988100	26.521405	0.000139	20.952829
1984.492244	-2.967900	3.341900	-9.917700	26.549013	0.000136	20.946442
1985.495905	-2.985600	3.339600	-9.970000	26.588337	0.000135	20.945193
1986.492156	-2.985000	3.339200	-9.966100	26.597198	0.000134	20.930869
1987.493741	-2.983000	3.340100	-9.962500	26.595709	0.000136	20.935062
1988.492916	-2.996700	3.338900	-10.005000	26.555316	0.000135	20.954199
1989.493045	-2.982400	3.338200	-9.954600	26.513658	0.000135	20.944568
1990.493543	-2.994100	3.338900	-9.996100	26.478427	0.000133	20.958940
1991.494732	-2.992100	3.338300	-9.987200	26.544542	0.000132	20.952377
1992.494640	-3.021300	3.336500	-10.080000	26.540395	0.000132	20.952951
1993.497237	-2.997300	3.336800	-10.000000	26.510552	0.000132	20.944765
1994.495229	-3.006000	3.337800	-10.032000	26.485973	0.000132	20.929070
1995.495527	-2.979800	3.337300	-9.943100	26.541114	0.000130	20.954622
1996.499728	-2.989900	3.337100	-9.976800	26.495803	0.000130	20.946061
1997.496961	-3.021200	3.335900	-10.077000	26.497169	0.000131	20.950279
1998.499716	-2.986800	3.335400	-9.961700	26.510896	0.000128	20.947482
1999.495205	-2.988900	3.335800	-9.969300	26.528053	0.000129	20.964251
2000.496252	-2.971000	3.335800	-9.909900	26.576463	0.000128	20.966445
2001.496552	-3.009500	3.333800	-10.032000	26.559433	0.000128	20.919934
2002.496645	-3.009300	3.333200	-10.029000	26.580214	0.000128	20.945562
2003.500310	-3.010000	3.333200	-10.032000	26.569066	0.000128	20.946211
2004.498121	-3.006900	3.334100	-10.025000	26.553076	0.000127	20.936777
2005.496952	-3.016500	3.332800	-10.052000	26.565141	0.000126	20.958858
2006.497727	-3.004700	3.333600	-10.016000	26.581378	0.000127	20.933932
2007.498591	-2.979500	3.332500	-9.928600	26.605507	0.000128	20.932584
2008.497677	-2.987800	3.333000	-9.957800	26.650985	0.000126	20.920931
2009.499736	-3.001100	3.332700	-10.001000	26.710585	0.000128	20.921579
2010.499700	-2.982400	3.332100	-9.937400	26.759782	0.000125	20.917461
2011.497616	-2.992900	3.330800	-9.967300	26.761221	0.000125	20.928390
2012.501088	-2.962000	3.332700	-9.870700	26.719820	0.000124	20.939396
2013.498645	-2.996300	3.331800	-9.982200	26.678341	0.000124	20.937050
2014.502366	-3.002400	3.330000	-9.996900	26.618340	0.000125	20.917036
2015.499736	-3.009700	3.328300	-10.016000	26.657463	0.000121	20.914167
2016.499898	-3.007300	3.329600	-10.013000	26.668136	0.000122	20.930111
2017.499469	-3.011200	3.328800	-10.023000	26.688789	0.000124	20.933330
2018.499533	-3.023200	3.328300	-10.060000	26.668683	0.000124	20.941565
2019.500781	-2.987400	3.328600	-9.942800	26.642022	0.000121	20.921877
2020.502358	-2.995400	3.327400	-9.965900	26.705447	0.000122	20.919258
2021.500383	-2.981200	3.328800	-9.922700	26.738633	0.000120	20.903786
2022.501529	-2.961600	3.328600	-9.856800	26.737021	0.000121	20.924448
2023.498814	-2.980600	3.327000	-9.915700	26.716866	0.000120	20.929315
2024.503632	-3.017800	3.326300	-10.037000	26.761497	0.000120	20.924400
2025.501114	-3.011200	3.326100	-10.015000	26.733449	0.000120	20.907109
2026.503842	-2.998900	3.327400	-9.977500	26.694827	0.000119	20.902419
2027.502101	-2.991400	3.327800	-9.954000	26.686461	0.000121	20.930042
2028.502552	-3.004000	3.327200	-9.993600	26.662508	0.000120	20.937728
2029.502840	-3.010300	3.325500	-10.010000	26.673035	0.000117	20.941198
2030.503087	-2.992700	3.326800	-9.954400	26.700886	0.000118	20.918466
2031.503242	-2.986800	3.324900	-9.930300	26.735566	0.000120	20.909236
2032.502984	-2.981000	3.325200	-9.911000	26.757931	0.000118	20.916549
2033.504184	-3.009700	3.323100	-10.001000	26.790025	0.000117	20.916099
2034.504046	-2.985500	3.323900	-9.922700	26.812142	0.000118	20.890450
2035.505355	-3.014900	3.322000	-10.015000	26.848329	0.000118	20.876576
2036.501976	-3.004700	3.323400	-9.984200	26.888760	0.000117	20.917699
2037.502795	-2.995700	3.322500	-9.951900	26.870991	0.000117	20.907420
2038.504406	-2.996500	3.323100	-9.956100	26.801200	0.000116	20.903155
2039.504220	-3.028200	3.321400	-10.057000	26.770695	0.000116	20.907571
2040.504228	-3.005900	3.322800	-9.986400	26.814007	0.000115	20.899437
2041.507752	-2.981600	3.322200	-9.905000	26.848483	0.000116	20.890006
2042.505075	-2.988600	3.321200	-9.925300	26.857842	0.000116	20.899890
2043.506730	-2.960400	3.323000	-9.836400	26.881890	0.000115	20.888035
2044.509378	-2.972300	3.321700	-9.872300	26.895468	0.000113	20.900264
2045.506676	-2.995400	3.320600	-9.945200	26.820388	0.000116	20.903482
2046.510751	-3.004200	3.320700	-9.975100	26.828232	0.000114	20.890507
2047.505446	-3.011600	3.319900	-9.997200	26.772784	0.000112	20.883596
2048.507092	-3.002300	3.318400	-9.962100	26.744537	0.000115	20.904506
2049.507193	-3.006800	3.318900	-9.978800	26.746475	0.000113	20.906929
2050.508273	-3.027000	3.316100	-10.037000	26.769833	0.000112	20.895326
2051.508450	-3.015200	3.317700	-10.002000	26.776335	0.000112	20.892854
2052.510405	-3.007500	3.316300	-9.972700	26.780406	0.000113	20.917808
2053.508361	-2.980900	3.318200	-9.890300	26.763033	0.000114	20.877111
2054.509544	-2.961500	3.318200	-9.825900	26.796739	0.000111	20.884446
2055.509521	-3.019600	3.316300	-10.013000	26.830246	0.000111	20.895376
2056.510550	-3.006500	3.315900	-9.968600	26.802921	0.000111	20.880705
2057.512823	-2.997400	3.316800	-9.941100	26.786613	0.000112	20.885171
2058.510432	-3.025400	3.315600	-10.030000	26.791057	0.000110	20.909077
2059.510652	-3.023500	3.314800	-10.021000	26.810044	0.000110	20.894030
2060.510428	-3.004200	3.315700	-9.960200	26.848169	0.000112	20.896328
2061.510794	-3.005200	3.314800	-9.961100	26.813767	0.000110	20.878809
2062.514037	-3.000400	3.314100	-9.943000	26.831292	0.000110	20.884575
2063.511544	-2.985800	3.313000	-9.890300	26.824220	0.000111	20.900696
2064.510736	-2.978700	3.315200	-9.874300	26.831316	0.000113	20.873695
2065.514546	-2.991500	3.313900	-9.912600	26.861423	0.000106	20.883577
2066.513755	-3.006500	3.312500	-9.958000	26.867306	0.000110	20.884276
2067.518997	-3.001600	3.313700	-9.945900	26.930344	0.000109	20.871800
2068.514940	-3.028400	3.312000	-10.029000	26.934465	0.000107	20.868831
2069.515618	-3.008900	3.312300	-9.965100	26.923965	0.000108	20.888618
2070.514751	-3.001700	3.311800	-9.940300	26.835635	0.000108	20.872821
2071.515272	-2.960500	3.312400	-9.805600	26.818785	0.000106	20.875794
2072.517692	-3.021800	3.311500	-10.006000	26.850776	0.000107	20.875717
2073.514933	-2.992100	3.311100	-9.906500	26.882943	0.000106	20.877241
2074.516192	-3.010700	3.310000	-9.964500	26.890041	0.000106	20.880111
2075.516084	-3.009900	3.309900	-9.961900	26.941760	0.000106	20.879959
2076.515202	-3.011600	3.308900	-9.964100	26.936402	0.000104	20.867934
2077.515419	-3.001700	3.309800	-9.934300	26.974470	0.000105	20.867808
2078.515364	-3.001200	3.308800	-9.929800	26.966629	0.000106	20.866562
2079.514535	-2.994400	3.309700	-9.909600	26.928633	0.000105	20.863916
2080.515933	-3.017300	3.309900	-9.986400	26.890465	0.000105	20.880537
2081.517352	-3.025500	3.308900	-10.011000	26.899027	0.000104	20.879189
2082.516193	-3.007800	3.307400	-9.947200	26.924216	0.000104	20.856630
2083.519778	-3.007200	3.307800	-9.946200	26.964693	0.000104	20.886425
2084.518170	-2.990900	3.307500	-9.892000	26.975662	0.000103	20.890816
2085.518592	-3.007200	3.306400	-9.942400	27.005169	0.000102	20.853636
2086.519136	-3.010000	3.306400	-9.951400	27.013009	0.000104	20.857253
2087.519305	-2.992600	3.306200	-9.893400	26.939876	0.000102	20.863367
2088.520545	-2.982400	3.306700	-9.861100	26.954816	0.000102	20.865114
2089.518323	-2.984200	3.307000	-9.868400	26.988913	0.000100	20.862893
2090.518485	-3.003600	3.304700	-9.923800	27.020232	0.000101	20.868309
2091.520299	-2.989000	3.304800	-9.877400	27.011992	9.935378E-5	20.857653
2092.521228	-2.993600	3.303600	-9.888900	26.963948	9.892475E-5	20.868607
2093.521741	-3.008900	3.303200	-9.938000	26.914611	9.974981E-5	20.848394
2094.520546	-3.006000	3.303000	-9.926800	26.896991	0.000100	20.867659
2095.520020	-3.012800	3.302600	-9.948400	26.951738	0.000100	20.865812
2096.519623	-3.007100	3.303500	-9.932600	26.951491	9.948579E-5	20.866512
2097.520123	-3.007300	3.303100	-9.932000	26.944367	9.852872E-5	20.872624
2098.520112	-2.974000	3.302300	-9.818700	26.986729	9.922178E-5	20.864489
2099.522882	-2.994900	3.302300	-9.889100	27.052365	9.747265E-5	20.857003
2100.529996	-2.999000	3.301500	-9.900300	27.091520	0.000101	20.892585
2101.520087	-3.007600	3.300600	-9.925900	27.103232	9.889175E-5	20.878287
2102.526176	-3.009300	3.301800	-9.935200	27.152435	9.780267E-5	20.868978
2103.523272	-3.020200	3.300500	-9.967400	27.084026	9.654858E-5	20.853756
2104.522267	-2.999600	3.300200	-9.898700	27.034818	9.602054E-5	20.857374
2105.521377	-2.994800	3.300800	-9.884500	26.977742	9.661458E-5	20.851659
2106.521071	-3.007000	3.299100	-9.919800	27.034097	9.668059E-5	20.843847
2107.520712	-3.016400	3.299800	-9.953000	27.073574	9.631756E-5	20.851780
2108.520741	-3.005400	3.299800	-9.916500	27.045386	9.344635E-5	20.862786
2109.521536	-3.021500	3.299300	-9.967800	27.011511	9.407340E-5	20.870445
2110.523202	-3.005900	3.297600	-9.911400	26.969498	9.605354E-5	20.869921
2111.522683	-2.999100	3.297800	-9.889200	26.934356	9.222526E-5	20.854024
2112.523100	-2.997200	3.296100	-9.877300	26.987041	9.176323E-5	20.858639
2113.521962	-2.978600	3.298200	-9.822600	26.948031	9.189524E-5	20.859714
2114.525157	-3.031700	3.296100	-9.991800	26.937433	9.176323E-5	20.858066
2115.522827	-3.024000	3.295700	-9.965300	26.919016	9.239028E-5	20.831962
2116.523423	-3.011900	3.296000	-9.925500	26.987834	9.169723E-5	20.867023
2117.524615	-3.003400	3.295900	-9.897900	27.002178	9.163122E-5	20.842094
2118.522832	-3.022400	3.294700	-9.956900	27.018033	9.149921E-5	20.864201
2119.522192	-3.007800	3.294400	-9.907700	27.050939	9.123519E-5	20.833285
2120.527350	-3.015700	3.294100	-9.933500	27.075802	9.314933E-5	20.854969
2121.522284	-2.991200	3.294100	-9.852700	27.119573	8.951907E-5	20.858687
2122.523530	-3.011400	3.293600	-9.917000	27.121284	9.011311E-5	20.840494
2123.526660	-2.983300	3.293900	-9.825600	27.139477	8.823197E-5	20.859264
2124.523304	-2.975900	3.292900	-9.798700	27.094934	9.347936E-5	20.852873
2125.525909	-2.984700	3.293400	-9.829000	27.073047	8.922204E-5	20.854569
2126.522121	-2.984100	3.293100	-9.826200	27.087737	8.948606E-5	20.851325
2127.522672	-2.996700	3.292300	-9.864600	27.137686	8.882602E-5	20.850826
2128.523225	-2.998400	3.292700	-9.872000	27.157116	8.819897E-5	20.850453
2129.523162	-2.983200	3.291500	-9.817900	27.113220	8.876001E-5	20.844238
2130.524539	-3.020600	3.288900	-9.933500	27.087140	8.852899E-5	20.832707
2131.525550	-3.013500	3.290300	-9.914700	27.101014	8.697788E-5	20.854720
2132.524616	-2.988600	3.290100	-9.832100	27.146620	8.684587E-5	20.845113
2133.528812	-2.991300	3.290500	-9.842600	27.203016	8.915604E-5	20.828817
2134.525057	-2.998600	3.290400	-9.865800	27.213785	8.681287E-5	20.833009
2135.528996	-2.993400	3.289600	-9.846700	27.218174	8.701088E-5	20.829838
2136.525937	-2.987200	3.289500	-9.825500	27.232665	8.539376E-5	20.828767
2137.526026	-2.997100	3.288300	-9.854900	27.217480	8.592180E-5	20.820605
2138.525959	-3.006700	3.288000	-9.885000	27.235667	8.651585E-5	20.845536
2139.526772	-2.998100	3.288600	-9.859300	27.129845	8.397466E-5	20.839146
2140.526530	-3.013200	3.286900	-9.902800	27.033964	8.384265E-5	20.854619
2141.529613	-2.991500	3.286900	-9.831500	27.049099	8.674686E-5	20.848503
2142.526983	-3.011000	3.287200	-9.897200	27.040738	8.585580E-5	20.832983
2143.527810	-2.972700	3.287700	-9.772600	27.087490	8.361163E-5	20.834956
2144.531943	-3.008100	3.286500	-9.884500	27.097514	8.387565E-5	20.852623
2145.528157	-2.994200	3.285500	-9.836000	27.067587	8.361163E-5	20.840544
2146.529514	-2.993300	3.284300	-9.829200	27.048630	8.189551E-5	20.830488
2147.527518	-2.988900	3.284700	-9.815900	27.054858	8.252256E-5	20.838173
2148.528192	-2.997700	3.284700	-9.844900	27.050217	8.301759E-5	20.849153
2149.533479	-2.988900	3.285100	-9.817900	27.103269	8.173050E-5	20.831384
2150.529639	-2.993500	3.286100	-9.836400	27.071061	8.093844E-5	20.818908
2151.531801	-2.984100	3.282900	-9.795400	27.062799	8.176350E-5	20.854219
2152.532039	-3.006200	3.283000	-9.868700	27.063145	8.126846E-5	20.844136
2153.530665	-2.964200	3.284600	-9.734800	27.079148	8.143348E-5	20.844584
2154.530994	-3.027200	3.280900	-9.931000	27.132249	7.942033E-5	20.832556
2155.530774	-2.949900	3.284200	-9.687400	27.198422	8.186251E-5	20.829885
2156.532429	-3.010300	3.280700	-9.874900	27.184702	8.100444E-5	20.859232
2157.533951	-3.009200	3.280000	-9.868600	27.186089	7.971735E-5	20.850197
2158.532331	-3.021300	3.279300	-9.905900	27.143760	7.876028E-5	20.833227
2159.532322	-3.000000	3.279000	-9.835500	27.113985	7.892529E-5	20.835998
2160.533402	-3.002300	3.279600	-9.845200	27.088401	7.895829E-5	20.839665
2161.533048	-2.997100	3.278800	-9.826200	27.104307	7.981636E-5	20.836696
2162.536461	-3.009300	3.279400	-9.868000	27.165318	7.958534E-5	20.834522
2163.534139	-2.997900	3.278300	-9.826900	27.186606	7.823224E-5	20.837441
2164.534238	-3.009300	3.279600	-9.868500	27.224568	7.866127E-5	20.830105
2165.534829	-3.007800	3.277400	-9.857000	27.285153	7.783621E-5	20.819923
2166.534677	-3.007200	3.277900	-9.855200	27.292718	7.882628E-5	20.816153
2167.535407	-3.018200	3.275500	-9.885700	27.335859	7.833125E-5	20.844850
2168.538127	-2.997300	3.278300	-9.825100	27.358904	7.697815E-5	20.842428
2169.536085	-2.987200	3.276200	-9.785900	27.346649	7.876028E-5	20.826307
2170.536868	-2.970400	3.277400	-9.734300	27.303902	7.717616E-5	20.807962
2171.539110	-2.978100	3.276100	-9.755600	27.276933	7.417294E-5	20.828249
2172.537091	-2.985900	3.276000	-9.781100	27.212255	7.499800E-5	20.831471
2173.541214	-2.987000	3.276300	-9.785700	27.288521	7.456897E-5	20.828052
2174.536879	-2.997400	3.274500	-9.814100	27.337020	7.572406E-5	20.821837
2175.537593	-3.017400	3.273800	-9.877000	27.313428	7.486600E-5	20.828924
2176.536934	-3.022200	3.273100	-9.890900	27.302067	7.486600E-5	20.823661
2177.539227	-3.004900	3.275100	-9.840700	27.309161	7.463498E-5	20.827477
2178.540679	-3.022600	3.271700	-9.888200	27.312040	7.539403E-5	20.825158
2179.539097	-3.015900	3.271900	-9.867200	27.336847	7.400793E-5	20.803645
2180.537218	-2.998700	3.272200	-9.811900	27.289711	7.516302E-5	20.815025
2181.540869	-2.999100	3.270800	-9.808200	27.207170	7.440396E-5	20.817348
2182.545047	-2.990500	3.271900	-9.784100	27.252276	7.232481E-5	20.834268
2183.542787	-2.982500	3.272600	-9.760000	27.260934	7.288585E-5	20.831597
2184.542536	-2.990000	3.270500	-9.778100	27.288622	7.407394E-5	20.824361
2185.542021	-3.014800	3.269700	-9.856100	27.341342	7.364491E-5	20.809589
2186.541096	-2.995500	3.270100	-9.794300	27.337720	7.192878E-5	20.821118
2187.541946	-3.033200	3.268100	-9.912500	27.328391	7.097171E-5	20.828804
2188.545156	-3.009900	3.267600	-9.834600	27.293860	6.975062E-5	20.826785
2189.545027	-3.016000	3.267500	-9.854100	27.322488	7.153275E-5	20.796313
2190.542044	-3.025800	3.268000	-9.887100	27.322887	7.008064E-5	20.837491
2191.543037	-3.017300	3.267600	-9.858800	27.293539	7.017965E-5	20.819823
2192.543797	-3.003700	3.268300	-9.816200	27.256201	7.288585E-5	20.817353
2193.542072	-3.006900	3.265600	-9.817800	27.218961	7.057568E-5	20.834422
2194.547240	-3.002700	3.265900	-9.805800	27.260320	6.876055E-5	20.839514
2195.540913	-3.006800	3.266800	-9.821600	27.327129	7.103771E-5	20.834172
2196.543283	-2.977500	3.267200	-9.726600	27.350771	7.093871E-5	20.811488
2197.544174	-2.987400	3.265000	-9.753100	27.324079	6.928859E-5	20.847698
2198.544796	-3.014900	3.263900	-9.840000	27.328792	6.998164E-5	20.823517
2199.547113	-3.001700	3.263500	-9.795500	27.352856	6.793549E-5	20.812163
2200.544137	-2.988700	3.263800	-9.753700	27.353850	6.971762E-5	20.809369
2201.544703	-2.999000	3.264100	-9.787800	27.364466	6.691241E-5	20.814359
2202.545202	-2.984400	3.264200	-9.740800	27.365111	7.008064E-5	20.815956
2203.544072	-2.996800	3.263500	-9.778900	27.293687	6.536130E-5	20.800533
2204.553674	-3.001000	3.263700	-9.794000	27.259202	6.654939E-5	20.808519
2205.545696	-2.994400	3.261800	-9.766100	27.301453	6.727544E-5	20.809767
2206.545634	-3.014100	3.260800	-9.827200	27.317700	6.724244E-5	20.806670
2207.545556	-3.027400	3.260900	-9.870500	27.339782	6.612035E-5	20.822718
2208.546177	-3.006600	3.261500	-9.804600	27.426505	6.674740E-5	20.807544
2209.549614	-3.003700	3.260700	-9.793300	27.470484	6.526229E-5	20.820969
2210.554822	-2.987200	3.260500	-9.739000	27.410702	6.549331E-5	20.837164
2211.545249	-2.992100	3.259700	-9.753000	27.364216	6.374418E-5	20.815529
2212.547100	-2.966400	3.261200	-9.673200	27.289270	6.555931E-5	20.811736
2213.548989	-3.001500	3.259200	-9.782100	27.302765	6.354617E-5	20.813457
2214.547671	-2.994500	3.259100	-9.758700	27.336925	6.331515E-5	20.825534
2215.550458	-2.983600	3.259900	-9.724900	27.324225	6.239108E-5	20.804699
2216.546816	-2.976900	3.258400	-9.699000	27.405419	6.559232E-5	20.819047
2217.547937	-3.008200	3.257600	-9.799100	27.484300	6.430522E-5	20.813532
2218.550193	-2.968100	3.257800	-9.668700	27.510790	6.344716E-5	20.822166
2219.548710	-2.987000	3.257700	-9.729600	27.544151	6.262210E-5	20.832497
2220.552079	-2.981500	3.256700	-9.709200	27.440321	6.146701E-5	20.829503
2221.548861	-2.996600	3.255600	-9.754700	27.384531	6.334815E-5	20.826483
2222.547361	-2.999400	3.255600	-9.763600	27.371930	6.110399E-5	20.831350
2223.549135	-2.992300	3.255000	-9.738400	27.411520	6.450324E-5	20.810012
2224.552000	-2.957600	3.255700	-9.628200	27.467506	6.321614E-5	20.827456
2225.548861	-3.002200	3.254200	-9.769100	27.477031	6.126900E-5	20.819495
2226.550238	-2.980100	3.254700	-9.698500	27.538990	6.242408E-5	20.828727
2227.548810	-2.996500	3.253700	-9.748700	27.490573	6.031193E-5	20.822214
2228.549201	-3.002800	3.253800	-9.768700	27.415663	6.001491E-5	20.835042
2229.552326	-3.017500	3.252200	-9.813200	27.378179	6.100498E-5	20.835266
2230.549136	-3.000500	3.252000	-9.757200	27.399834	6.083997E-5	20.825282
2231.551459	-2.982300	3.253200	-9.701400	27.386612	5.994890E-5	20.811507
2232.550423	-3.010700	3.251800	-9.789700	27.393235	5.829878E-5	20.824334
2233.549110	-3.001200	3.250700	-9.755300	27.386684	5.988290E-5	20.836235
2234.549514	-3.003300	3.250000	-9.760300	27.348905	6.252309E-5	20.830947
2235.550031	-3.009000	3.249500	-9.777700	27.382966	5.925585E-5	20.834392
2236.557935	-3.018700	3.250300	-9.810400	27.413403	5.978389E-5	20.800527
2237.550384	-3.000400	3.248700	-9.746100	27.445254	5.998191E-5	20.814078
2238.550048	-3.001800	3.249400	-9.752600	27.527507	5.988290E-5	20.829027
2239.550555	-2.994500	3.248600	-9.726900	27.571655	5.843079E-5	20.817497
2240.551402	-2.972500	3.249400	-9.658000	27.578946	5.998191E-5	20.794961
2241.551262	-3.021100	3.246000	-9.805100	27.566547	5.786975E-5	20.825634
2242.552658	-2.988300	3.248800	-9.707100	27.538221	5.737471E-5	20.834117
2243.550398	-3.012200	3.246000	-9.776900	27.549681	5.829878E-5	20.845647
2244.551746	-2.994300	3.247100	-9.721800	27.525943	5.740772E-5	20.840256
2245.553257	-2.998800	3.246100	-9.733900	27.509599	5.648365E-5	20.836139
2246.557218	-3.004800	3.245000	-9.748500	27.509945	5.404147E-5	20.843599
2247.554305	-3.034900	3.245400	-9.847500	27.534179	5.549358E-5	20.827680
2248.552135	-3.021800	3.243300	-9.799800	27.564638	5.552658E-5	20.823238
2249.555750	-3.012700	3.244400	-9.773800	27.602310	5.651665E-5	20.812780
2250.554853	-2.986600	3.244300	-9.688500	27.656081	5.516355E-5	20.804297
2251.553022	-3.011600	3.243100	-9.766300	27.646085	5.671467E-5	20.821265
2252.551806	-3.008100	3.242900	-9.754000	27.646681	5.546057E-5	20.822814
2253.556954	-3.014600	3.242400	-9.774200	27.597600	5.536157E-5	20.846446
2254.554285	-3.015000	3.241500	-9.772700	27.570218	5.466852E-5	20.841655
2255.553420	-2.995600	3.243700	-9.715600	27.566969	5.549358E-5	20.835541
2256.559145	-2.992000	3.241200	-9.697600	27.561388	5.506455E-5	20.818547
2257.554003	-2.987300	3.240700	-9.680100	27.534055	5.486653E-5	20.815227
2258.555815	-2.989200	3.241100	-9.688100	27.541001	5.206132E-5	20.845922
2259.554906	-2.995600	3.239400	-9.702700	27.573890	5.555958E-5	20.842030
2260.554955	-3.017200	3.240400	-9.775300	27.570169	5.315040E-5	20.819795
2261.560733	-3.008100	3.240100	-9.745400	27.568434	5.410747E-5	20.829429
2262.556840	-3.019200	3.237000	-9.772900	27.580240	5.334842E-5	20.833721
2263.557570	-2.999400	3.239800	-9.716700	27.545193	5.199532E-5	20.838286
2264.556235	-3.013400	3.239900	-9.762100	27.503349	5.381045E-5	20.839334
2265.556013	-3.013800	3.237700	-9.757200	27.528873	5.291939E-5	20.836092
2266.557546	-3.007400	3.237100	-9.734500	27.593855	5.183031E-5	20.838411
2267.556413	-2.972500	3.237300	-9.622500	27.592019	5.235835E-5	20.862167
2268.559339	-3.021300	3.236600	-9.777800	27.585000	5.219333E-5	20.859846
2269.559896	-2.989700	3.237500	-9.677900	27.503349	5.282038E-5	20.858774
2270.556988	-3.005400	3.234800	-9.720900	27.556501	5.199532E-5	20.847767
2271.562655	-3.017500	3.235600	-9.762800	27.557221	5.087324E-5	20.843276
2272.561234	-2.999300	3.233300	-9.696400	27.577831	5.189631E-5	20.836512
2273.563386	-2.982000	3.236100	-9.649600	27.600996	4.938813E-5	20.857923
2274.558280	-2.983300	3.234100	-9.646600	27.587651	5.130227E-5	20.842126
2275.558250	-3.010600	3.233500	-9.734200	27.533977	4.955314E-5	20.843124
2276.558909	-2.994700	3.233600	-9.682700	27.542213	5.044421E-5	20.858047
2277.559587	-2.990400	3.233600	-9.668900	27.576687	5.057622E-5	20.852430
2278.560503	-2.998400	3.232500	-9.691300	27.604614	5.034520E-5	20.840227
2279.562238	-2.989200	3.231400	-9.657900	27.585665	5.004818E-5	20.858619
2280.559916	-3.019300	3.230600	-9.753700	27.625074	4.948714E-5	20.875986
2281.560940	-2.998000	3.231500	-9.687400	27.644369	4.853007E-5	20.857944
2282.564447	-2.991200	3.230100	-9.661300	27.594913	4.862907E-5	20.864605
2283.561724	-2.998600	3.229500	-9.683200	27.574848	4.922312E-5	20.835408
2284.563761	-3.025700	3.228200	-9.766500	27.577103	4.839806E-5	20.857591
2285.561719	-3.017300	3.229600	-9.744100	27.556568	4.859607E-5	20.842619
2286.563531	-2.980600	3.229000	-9.623100	27.564305	4.912411E-5	20.868895
2287.563025	-3.011300	3.229000	-9.722500	27.616389	4.813404E-5	20.862032
2288.565315	-3.017400	3.228100	-9.740000	27.569786	4.687994E-5	20.860185
2289.564803	-2.994000	3.226900	-9.660400	27.626805	4.562585E-5	20.847383
2290.563948	-3.017200	3.225400	-9.730700	27.641314	4.539484E-5	20.856292
2291.564393	-2.994400	3.226200	-9.660000	27.693692	4.823304E-5	20.863005
2292.565410	-3.012300	3.227000	-9.719700	27.618720	4.608789E-5	20.861533
2293.566801	-3.036600	3.225000	-9.792100	27.655498	4.971815E-5	20.877676
2294.567257	-2.981800	3.226900	-9.621000	27.697758	4.635191E-5	20.877053
2295.567613	-3.016600	3.224900	-9.727600	27.779518	4.562585E-5	20.866396
2296.568267	-2.994500	3.225300	-9.656900	27.802678	4.542784E-5	20.854144
2297.569036	-3.026600	3.222300	-9.751700	27.758686	4.631890E-5	20.877200
2298.569071	-3.014600	3.222800	-9.714300	27.735649	4.539484E-5	20.866345
2299.568608	-3.009300	3.223000	-9.697000	27.686448	4.219360E-5	20.868991
2300.571819	-2.993900	3.222500	-9.646700	27.659315	4.381072E-5	20.853069
2301.570418	-3.014500	3.220900	-9.708400	27.670178	4.539484E-5	20.880594
2302.570529	-2.994600	3.220700	-9.644200	27.697209	4.374472E-5	20.879345
2303.570385	-2.986200	3.221200	-9.618200	27.724141	4.334869E-5	20.863300
2304.571772	-3.015900	3.218800	-9.707500	27.753452	4.473479E-5	20.868140
2305.573328	-3.002000	3.219500	-9.664400	27.757765	4.192958E-5	20.875325
2306.576275	-2.983500	3.220400	-9.607100	27.729123	4.268864E-5	20.846977
2307.572584	-3.028100	3.218100	-9.743400	27.738299	4.123653E-5	20.878020
2308.572165	-3.003600	3.217800	-9.664100	27.723396	4.414074E-5	20.888153
2309.573309	-3.014700	3.217700	-9.699900	27.708814	4.265564E-5	20.851196
2310.572020	-2.978400	3.218500	-9.585200	27.784597	4.463578E-5	20.875300
2311.576697	-2.993600	3.215800	-9.625900	27.797715	4.262263E-5	20.887553
2312.572598	-3.008500	3.216900	-9.677600	27.799151	3.985043E-5	20.885679
2313.573262	-3.016500	3.215300	-9.697900	27.780430	4.225961E-5	20.884857
2314.576163	-3.008500	3.216900	-9.677600	27.742861	4.258963E-5	20.889722
2315.572622	-3.007400	3.215700	-9.670100	27.728178	3.952041E-5	20.874948
2316.575701	-3.013200	3.216500	-9.690500	27.683714	4.242462E-5	20.895636
2317.573023	-2.985900	3.216400	-9.602400	27.712903	4.222660E-5	20.871905
2318.575882	-3.014300	3.215600	-9.692100	27.703082	4.140154E-5	20.862023
2319.574182	-3.014100	3.216300	-9.693300	27.688996	3.998244E-5	20.887201
2320.573905	-2.993900	3.212100	-9.615600	27.709578	4.235861E-5	20.877568
2321.574070	-3.006900	3.213600	-9.662100	27.786105	4.153355E-5	20.882508
2322.578984	-3.034800	3.210900	-9.743400	27.814053	4.169856E-5	20.874599
2323.574880	-2.985500	3.212800	-9.591200	27.823671	4.004844E-5	20.871003
2324.574887	-3.000800	3.210200	-9.632400	27.839914	4.206159E-5	20.892564
2325.575029	-3.008700	3.209900	-9.655500	27.854346	4.179757E-5	20.881959
2326.575594	-3.010200	3.208900	-9.658800	27.836787	4.041147E-5	20.880409
2327.580094	-3.007500	3.210400	-9.654700	27.774473	3.945440E-5	20.885026
2328.581043	-3.040900	3.209100	-9.758300	27.744888	3.965241E-5	20.896978
2329.576510	-3.020600	3.208600	-9.690900	27.792747	3.981743E-5	20.887769
2330.579889	-3.023800	3.206700	-9.695700	27.810229	3.909137E-5	20.884026
2331.576049	-2.981600	3.207300	-9.561800	27.779950	4.011445E-5	20.898123
2332.580324	-3.022000	3.205800	-9.686700	27.747317	3.988343E-5	20.897999
2333.576920	-2.999100	3.206800	-9.616500	27.727130	3.790329E-5	20.901866
2334.577006	-3.000700	3.207100	-9.622600	27.763334	3.919038E-5	20.887093
2335.582766	-3.032600	3.206500	-9.723000	27.776776	3.882735E-5	20.905833
2336.577046	-3.019600	3.207100	-9.683300	27.787983	3.820031E-5	20.911421
2337.578571	-3.004000	3.204800	-9.626000	27.762119	3.770527E-5	20.910997
2338.579706	-2.980100	3.204900	-9.550200	27.782700	3.602215E-5	20.872917
2339.578256	-2.992400	3.206700	-9.595100	27.788676	3.849733E-5	20.895051
2340.579003	-3.005000	3.202500	-9.622600	27.790810	3.589014E-5	20.888190
2341.580353	-2.976300	3.203300	-9.533000	27.813945	3.625317E-5	20.891558
2342.581033	-2.998800	3.201600	-9.600300	27.806928	3.628617E-5	20.894453
2343.581742	-3.013800	3.201700	-9.648500	27.797877	3.694622E-5	20.896724
2344.581995	-2.984900	3.201200	-9.554200	27.868298	3.724324E-5	20.896474
2345.581616	-2.987900	3.200400	-9.561400	27.925203	3.803530E-5	20.903012
2346.582693	-3.000200	3.198600	-9.595900	27.946377	3.618716E-5	20.889712
2347.581187	-3.003900	3.200700	-9.614000	27.939286	3.777128E-5	20.903436
2348.584891	-2.995400	3.198800	-9.580700	27.967130	3.684721E-5	20.894480
2349.582397	-2.993900	3.198700	-9.575800	27.904252	3.589014E-5	20.902788
2350.585730	-2.986200	3.201100	-9.557900	27.885260	3.806830E-5	20.899320
2351.591770	-3.023600	3.199600	-9.672400	27.835049	3.480106E-5	20.918011
2352.583922	-2.982000	3.197800	-9.535000	27.854118	3.440503E-5	20.914444
2353.585201	-2.968800	3.198100	-9.493400	27.859622	3.635217E-5	20.903862
2354.583032	-2.995300	3.196300	-9.573300	27.813132	3.691321E-5	20.913497
2355.584023	-2.992300	3.196000	-9.561600	27.780820	3.394300E-5	20.903740
2356.583094	-3.013900	3.194800	-9.627700	27.731695	3.615416E-5	20.909779
2357.583791	-2.973200	3.195700	-9.500400	27.755602	3.361297E-5	20.925300
2358.586864	-2.971000	3.195200	-9.491500	27.828903	3.390999E-5	20.938850
2359.584648	-2.988700	3.193100	-9.541900	27.864114	3.595614E-5	20.907909
2360.584444	-2.969800	3.193500	-9.483000	27.868404	3.516409E-5	20.910329
2361.584044	-3.013400	3.192400	-9.619000	27.846088	3.529610E-5	20.924379
2362.584524	-2.993000	3.190900	-9.549700	27.795504	3.298593E-5	20.937479
2363.585198	-2.952900	3.193200	-9.427800	27.791140	3.443803E-5	20.924080
2364.584358	-2.997700	3.191200	-9.566000	27.840758	3.354697E-5	20.904791
2365.585014	-2.999700	3.189800	-9.567800	27.843635	3.529610E-5	20.910532
2366.587447	-2.994700	3.189000	-9.548700	27.887227	3.410801E-5	20.921687
2367.585072	-3.008200	3.189100	-9.592500	27.898112	3.437203E-5	20.934063
2368.588814	-2.999400	3.189700	-9.566600	27.855588	3.529610E-5	20.908337
2369.586663	-2.999200	3.189600	-9.565400	27.897346	3.668220E-5	20.940878
2370.586802	-3.004700	3.187300	-9.576300	27.898932	3.262290E-5	20.914502
2371.586666	-3.002000	3.189300	-9.573000	27.953506	3.341496E-5	20.911111
2372.587165	-3.019800	3.185900	-9.620300	27.983307	3.390999E-5	20.933518
2373.590180	-3.016100	3.186100	-9.608700	27.989631	3.229287E-5	20.911910
2374.588562	-2.998600	3.184400	-9.547900	27.997316	3.258990E-5	20.923437
2375.587567	-3.010500	3.184300	-9.584900	27.949071	3.219387E-5	20.928930
2376.588074	-3.016500	3.183800	-9.603400	27.880614	3.057675E-5	20.941107
2377.586710	-3.006000	3.184700	-9.571000	27.856315	3.206186E-5	20.937041
2378.589344	-3.015600	3.181900	-9.593800	27.922717	3.192985E-5	20.921371
2379.589093	-3.006800	3.181700	-9.566100	27.992734	3.093978E-5	20.958176
2380.589201	-2.990400	3.182100	-9.514400	27.915006	2.942166E-5	20.943479
2381.589460	-3.004300	3.179600	-9.551900	27.983784	3.044474E-5	20.937316
2382.591762	-3.013200	3.179600	-9.579700	27.990478	3.169883E-5	20.922244
2383.592506	-2.987100	3.180100	-9.498200	27.976820	2.978469E-5	20.932678
2384.591855	-3.011800	3.178600	-9.572400	27.995908	3.126980E-5	20.902108
2385.590136	-3.000700	3.179100	-9.539000	27.971141	2.876162E-5	20.936444
2386.590199	-2.996500	3.178300	-9.523200	28.022809	3.044474E-5	20.936769
2387.590025	-3.000500	3.176900	-9.531500	28.016638	2.882762E-5	20.931032
2388.590972	-2.998900	3.176500	-9.525200	28.045767	2.820057E-5	20.928111
2389.590512	-3.024300	3.175600	-9.603500	28.058931	2.872861E-5	20.945628
2390.594615	-3.014200	3.175300	-9.569600	28.106950	2.678147E-5	20.957929
2391.590370	-3.022000	3.174100	-9.591600	28.149019	2.707849E-5	20.950021
2392.591185	-3.003600	3.174300	-9.533000	28.130850	2.701249E-5	20.951170
2393.592107	-2.989900	3.173300	-9.486900	28.110323	2.757353E-5	20.941887
2394.591228	-2.997500	3.173000	-9.510800	28.050927	2.826658E-5	20.954639
2395.592394	-2.985200	3.172400	-9.469100	28.039373	2.780454E-5	20.936847
2396.590804	-2.991900	3.171700	-9.489100	28.087320	2.826658E-5	20.941963
2397.590561	-2.990000	3.171100	-9.481000	28.154846	2.806856E-5	20.933129
2398.590979	-3.001000	3.170100	-9.513000	28.124951	2.909164E-5	20.939543
2399.591431	-2.994900	3.170600	-9.494100	28.132314	2.724350E-5	20.950747
2400.591935	-3.011800	3.168400	-9.541900	28.161145	2.605542E-5	20.956537
2401.590170	-3.012500	3.168000	-9.543200	28.210079	2.711149E-5	20.945585
2402.589959	-2.976800	3.167700	-9.428600	28.175919	2.589040E-5	20.967141
2403.593448	-3.000400	3.166700	-9.500400	28.093274	2.615442E-5	20.936104
2404.592836	-2.991500	3.166400	-9.470900	28.146546	2.975169E-5	20.952272
2405.591239	-2.990200	3.166100	-9.465300	28.174037	3.004871E-5	20.961928
2406.593861	-2.996300	3.165700	-9.484700	28.212880	2.701249E-5	20.948879
2407.592190	-2.988100	3.165100	-9.456700	28.197165	2.796956E-5	20.947283
2408.593693	-3.003600	3.162700	-9.497600	28.120889	2.727651E-5	20.939721
2409.596811	-3.028000	3.161900	-9.571800	28.137995	2.853060E-5	20.934182
2410.594311	-2.999200	3.161800	-9.481400	28.192826	2.569239E-5	20.960456
2411.597496	-3.025800	3.161500	-9.564600	28.169302	2.806856E-5	20.966170
2412.595059	-3.029900	3.159400	-9.571900	28.195948	2.754053E-5	20.958858
2413.594614	-3.000500	3.159500	-9.478800	28.221580	2.757353E-5	20.959533
2414.593534	-2.986600	3.159400	-9.434700	28.225942	2.671546E-5	20.965346
2415.595665	-3.009200	3.157300	-9.500300	28.261088	2.493333E-5	20.961378
2416.596346	-3.004800	3.156800	-9.484600	28.216570	2.424028E-5	20.986254
2417.603885	-3.008500	3.157700	-9.498400	28.191189	2.206212E-5	20.965920
2418.595018	-3.002800	3.156800	-9.477900	28.227552	2.344822E-5	20.963175
2419.594964	-3.013800	3.156100	-9.510500	28.297673	2.453730E-5	20.950325
2420.600295	-3.016800	3.154400	-9.515600	28.344639	2.480132E-5	20.971532
2421.596875	-2.999500	3.155000	-9.461100	28.340450	2.364624E-5	20.953567
2422.600815	-2.989600	3.153400	-9.426900	28.346124	2.523036E-5	20.966864
2423.596681	-2.989900	3.152800	-9.425700	28.336212	2.325021E-5	20.963523
2424.596118	-3.012200	3.152000	-9.493500	28.335441	2.255716E-5	20.959428
2425.597132	-3.020200	3.151300	-9.517300	28.314275	2.387726E-5	20.967038
2426.597052	-3.011500	3.149600	-9.483700	28.302749	2.259016E-5	20.987198
2427.598702	-2.982200	3.150000	-9.393200	28.274841	2.265617E-5	20.956259
2428.597575	-2.981500	3.150100	-9.391200	28.321213	2.193011E-5	20.977816
2429.597215	-2.974700	3.149000	-9.365900	28.313134	2.179810E-5	20.978690
2430.598763	-2.994900	3.148200	-9.427900	28.242815	2.136907E-5	20.955309
2431.598847	-3.009800	3.145400	-9.466500	28.243384	2.130307E-5	20.970105
2432.598680	-3.018000	3.145900	-9.493300	28.211458	1.879488E-5	20.964515
2433.599553	-3.023800	3.144500	-9.507500	28.241077	2.127006E-5	20.957826
2434.598746	-3.008800	3.143700	-9.456800	28.234830	2.278818E-5	20.972871
2435.599555	-3.020500	3.142100	-9.489800	28.221445	1.938893E-5	20.978835
2436.601634	-3.005000	3.142800	-9.443700	28.266011	2.288718E-5	20.972496
2437.600779	-2.987000	3.142000	-9.384800	28.256940	2.084103E-5	20.973320
2438.603669	-3.015200	3.140000	-9.466700	28.263134	2.087404E-5	20.979556
2439.600335	-3.011600	3.140200	-9.455900	28.253915	2.097304E-5	20.965534
2440.604467	-2.988000	3.139200	-9.378500	28.250246	1.965295E-5	20.955678
2441.600163	-3.004400	3.138400	-9.428400	28.265265	2.011498E-5	20.964634
2442.600286	-3.012300	3.137500	-9.450100	28.319423	2.054401E-5	20.942828
2443.603334	-2.996800	3.134900	-9.393800	28.297239	2.097304E-5	20.967429
2444.604568	-2.980700	3.137100	-9.349400	28.311640	2.004897E-5	20.976237
2445.600060	-2.986300	3.135900	-9.363800	28.284423	1.859687E-5	20.954527
2446.601167	-3.004400	3.133300	-9.411700	28.301475	1.932292E-5	20.956997
2447.603071	-3.002300	3.133500	-9.407100	28.321254	1.783781E-5	20.954627
2448.601809	-3.017000	3.132000	-9.448200	28.350226	1.978496E-5	20.954401
2449.605543	-3.006400	3.131800	-9.414500	28.340113	1.899290E-5	20.956072
2450.604545	-2.987800	3.130900	-9.353700	28.332505	1.810183E-5	20.970694
2451.604374	-2.986100	3.129600	-9.344600	28.336395	1.846486E-5	20.949484
2452.603441	-2.980600	3.128500	-9.324000	28.367970	1.638571E-5	20.960413
2453.603025	-2.992400	3.128000	-9.359200	28.438378	2.123706E-5	20.929372
2454.606215	-3.028000	3.126900	-9.467200	28.440535	1.730977E-5	20.961885
2455.604709	-3.018200	3.126200	-9.434000	28.424227	1.737578E-5	20.940725
2456.605675	-3.000100	3.126700	-9.379800	28.375055	1.800282E-5	20.961383
2457.605843	-3.005400	3.124100	-9.388200	28.354089	1.862987E-5	20.966349
2458.606553	-2.985600	3.124600	-9.328100	28.350692	1.430655E-5	20.952025
2459.608925	-2.958400	3.123500	-9.238700	28.327198	1.671573E-5	20.953973
2460.607014	-3.003300	3.122900	-9.377100	28.265305	1.450457E-5	20.946185
2461.608125	-3.012800	3.120200	-9.399300	28.248228	1.552764E-5	20.950802
2462.609070	-3.003400	3.121100	-9.372300	28.316562	1.651772E-5	20.949903
2463.610305	-3.012900	3.117900	-9.393200	28.391584	1.678173E-5	20.931563
2464.612576	-3.022900	3.117300	-9.422400	28.439812	1.681474E-5	20.941245
2465.612998	-3.017400	3.117500	-9.405600	28.459016	1.506561E-5	20.947307
2466.612897	-3.004000	3.117200	-9.362600	28.443032	1.430655E-5	20.935954
2467.610573	-2.990900	3.115600	-9.317600	28.408458	1.724377E-5	20.939544
2468.614515	-2.997700	3.115300	-9.337900	28.517771	1.364650E-5	20.946732
2469.611270	-3.010600	3.112800	-9.371200	28.487588	1.499960E-5	20.950949
2470.613624	-2.997200	3.111900	-9.326100	28.441124	1.674873E-5	20.926921
2471.611927	-3.002800	3.112500	-9.345700	28.417208	1.384452E-5	20.934606
2472.614651	-3.010900	3.111200	-9.366200	28.383774	1.351449E-5	20.915640
2473.615884	-2.980900	3.110100	-9.269800	28.357007	1.480159E-5	20.916189
2474.612611	-2.986000	3.109900	-9.284300	28.345510	1.196338E-5	20.951075
2475.615582	-2.999100	3.107000	-9.316800	28.380081	1.245842E-5	20.940842
2476.614311	-2.998800	3.108500	-9.320700	28.360949	1.424055E-5	20.931062
2477.614284	-3.014300	3.106900	-9.364300	28.344344	1.186437E-5	20.939472
2478.613413	-2.998000	3.105700	-9.309700	28.328656	1.130333E-5	20.921307
2479.613338	-2.995600	3.106000	-9.303500	28.329623	1.212839E-5	20.941244
2480.613743	-2.999700	3.103400	-9.308000	28.300652	1.176537E-5	20.933885
2481.615544	-3.010800	3.101600	-9.337200	28.269299	1.344849E-5	20.942146
2482.615068	-2.995300	3.101300	-9.288500	28.288582	1.196338E-5	20.917468
2483.614606	-2.990700	3.101600	-9.274800	28.365690	1.169936E-5	20.931568
2484.618139	-2.992600	3.100000	-9.275900	28.406556	1.328348E-5	20.927674
2485.616086	-2.992800	3.098700	-9.273300	28.439024	1.202939E-5	20.934763
2486.616590	-2.985400	3.099000	-9.251200	28.492503	1.235941E-5	20.925082
2487.614725	-2.989200	3.096300	-9.254100	28.500013	1.232641E-5	20.927903
2488.615679	-3.011200	3.094800	-9.317400	28.495404	1.110532E-5	20.921365
2489.615156	-3.030200	3.093400	-9.372700	28.469460	1.166636E-5	20.932222
2490.615490	-3.003100	3.093100	-9.287900	28.409066	1.292045E-5	20.924038
2491.616535	-3.001000	3.091700	-9.277200	28.442970	1.189738E-5	20.914557
2492.615987	-2.980400	3.091900	-9.215000	28.399229	1.057728E-5	20.919348
2493.615529	-2.989500	3.091200	-9.240400	28.460341	1.070929E-5	20.921617
2494.624352	-3.017300	3.088900	-9.319500	28.493873	1.166636E-5	20.922669
2495.615587	-3.022100	3.087100	-9.329000	28.539940	9.785220E-6	20.914534
2496.618763	-3.004000	3.087000	-9.271900	28.541824	1.196338E-5	20.920224
2497.614563	-3.020600	3.085400	-9.318900	28.527006	1.186437E-5	20.910992
2498.615819	-3.009000	3.084700	-9.280900	28.508646	1.252442E-5	20.911942
2499.618808	-2.978100	3.083800	-9.182800	28.498164	1.080830E-5	20.913240
2500.615407	-2.994100	3.083400	-9.231300	28.475265	1.136934E-5	20.908673
2501.618886	-2.999400	3.081900	-9.241800	28.528669	1.338248E-5	20.891806
2502.616887	-3.010900	3.079500	-9.271200	28.604195	1.255742E-5	20.900064
2503.617065	-3.019300	3.079300	-9.296300	28.602113	1.318447E-5	20.926888
2504.619143	-3.014900	3.077300	-9.276900	28.576494	1.044527E-5	20.916735
2505.619328	-3.017500	3.076400	-9.282200	28.574387	1.136934E-5	20.889485
2506.620295	-3.004100	3.076000	-9.239800	28.563238	1.117132E-5	20.916186
2507.618692	-2.981200	3.075700	-9.168600	28.497199	9.026164E-6	20.916062
2508.620395	-2.999600	3.073400	-9.217200	28.515761	1.094031E-5	20.900617
2509.622326	-3.001100	3.073200	-9.221600	28.537964	1.252442E-5	20.927241
2510.623336	-2.972800	3.073000	-9.134800	28.528796	8.267109E-6	20.923699
2511.623235	-3.001200	3.070500	-9.213800	28.542896	1.160035E-5	20.913244
2512.623737	-2.990500	3.068300	-9.175500	28.567676	1.008224E-5	20.926345
2513.623962	-2.992400	3.068800	-9.181500	28.563663	9.323186E-6	20.901442
2514.623496	-3.019600	3.065900	-9.257100	28.614311	1.160035E-5	20.922104
2515.624545	-2.991600	3.065500	-9.170100	28.667434	1.044527E-5	20.904488
2516.623908	-3.016200	3.064400	-9.242000	28.649967	9.422193E-6	20.911076
2517.627008	-2.999000	3.063400	-9.186500	28.672117	9.191176E-6	20.896877
2518.624739	-2.993900	3.062100	-9.166700	28.635424	1.077529E-5	20.908757
2519.623744	-2.980500	3.060700	-9.121600	28.606953	1.011524E-5	20.909479
2520.624313	-2.996200	3.058900	-9.164600	28.531898	8.861152E-6	20.912599
2521.623851	-3.005500	3.057500	-9.188000	28.513063	9.686213E-6	20.904538
2522.627602	-2.993900	3.058400	-9.155800	28.506969	7.178028E-6	20.887496
2523.629137	-3.006200	3.056200	-9.187500	28.493588	1.074229E-5	20.888720
2524.625764	-3.012200	3.053900	-9.197800	28.570182	1.199638E-5	20.903740
2525.625871	-3.017000	3.053900	-9.212800	28.576600	8.696140E-6	20.912100
2526.627828	-3.007700	3.052700	-9.180600	28.565622	9.719215E-6	20.899148
2527.627730	-2.996800	3.050600	-9.141400	28.579772	7.640062E-6	20.904390
2528.629434	-2.987600	3.050600	-9.112800	28.684114	1.077529E-5	20.895210
2529.626397	-3.029700	3.047700	-9.232300	28.739585	9.125172E-6	20.907935
2530.631279	-2.981900	3.049400	-9.091700	28.728138	9.059167E-6	20.928644
2531.630561	-2.977300	3.048700	-9.075200	28.695385	1.037926E-5	20.895657
2532.628148	-2.989600	3.045800	-9.105000	28.679057	6.748997E-6	20.892488
2533.626814	-3.003700	3.043700	-9.141100	28.632875	9.191176E-6	20.897655
2534.626911	-3.016200	3.042300	-9.175300	28.615010	1.011524E-5	20.910481
2535.626662	-3.004600	3.042400	-9.139800	28.576107	7.475050E-6	20.872726
2536.626926	-3.002600	3.041200	-9.130800	28.568526	7.376043E-6	20.890694
2537.627639	-2.984900	3.040300	-9.073500	28.540847	8.168101E-6	20.895061
2538.627933	-3.005000	3.038400	-9.129600	28.549324	9.818223E-6	20.884158
2539.627341	-2.976300	3.038000	-9.040800	28.588102	7.970087E-6	20.907089
2540.628004	-2.992700	3.035000	-9.082000	28.613178	9.356189E-6	20.891094
2541.629087	-3.030600	3.034100	-9.194100	28.711520	9.785220E-6	20.896735
2542.629221	-2.990800	3.031900	-9.067100	28.738648	8.036092E-6	20.885655
2543.629530	-2.996500	3.031300	-9.082600	28.752946	7.343041E-6	20.886781
2544.632035	-3.010000	3.030300	-9.120400	28.824766	8.102096E-6	20.890375
2545.630248	-2.989900	3.028500	-9.054200	28.859324	9.059167E-6	20.889151
2546.629228	-2.993000	3.027700	-9.061000	28.831999	8.729143E-6	20.885808
2547.629057	-2.996900	3.026600	-9.070000	28.804823	7.541055E-6	20.891147
2548.629427	-2.971100	3.026500	-8.991200	28.855262	7.409045E-6	20.896913
2549.632897	-2.971800	3.024400	-8.987400	28.826304	7.475050E-6	20.892398
2550.633036	-2.985700	3.025000	-9.031600	28.856600	7.277036E-6	20.878348
2551.629496	-2.988600	3.021200	-9.028500	28.841886	8.630135E-6	20.877276
2552.631511	-3.014700	3.020700	-9.105300	28.826478	8.432121E-6	20.899211
2553.631600	-3.006800	3.019600	-9.078800	28.733898	8.696140E-6	20.883716
2554.631386	-2.996700	3.017100	-9.040300	28.796528	7.970087E-6	20.871414
2555.635794	-2.993300	3.017300	-9.031400	28.819444	6.583985E-6	20.879325
2556.632630	-2.975300	3.014800	-8.968500	28.859082	8.993162E-6	20.897917
2557.634097	-2.995200	3.013600	-9.025500	28.873351	8.465123E-6	20.875782
2558.635349	-3.013600	3.012700	-9.077800	28.836714	6.286963E-6	20.886764
2559.633012	-3.002800	3.009300	-9.035300	28.774185	5.956939E-6	20.894424
2560.634640	-2.986500	3.010500	-8.989700	28.733678	8.234106E-6	20.876857
2561.634147	-3.021000	3.007400	-9.083900	28.759868	7.772072E-6	20.881426
2562.635072	-2.971400	3.007500	-8.935300	28.668968	5.791926E-6	20.888016
2563.635385	-3.008100	3.004300	-9.035700	28.717703	6.418973E-6	20.888740
2564.636189	-2.987100	3.003600	-8.971200	28.705785	5.923936E-6	20.876262
2565.638768	-2.991000	3.002300	-8.978300	28.651428	6.286963E-6	20.868454
2566.637832	-3.027800	3.000500	-9.084300	28.628138	5.824929E-6	20.877239
2567.638503	-3.012700	2.998500	-9.032500	28.644765	8.564130E-6	20.875968
2568.639773	-3.010600	2.998000	-9.024900	28.614761	6.253960E-6	20.892214
2569.637995	-2.991500	2.996900	-8.964500	28.681484	6.154953E-6	20.882605
2570.642597	-2.999300	2.994500	-8.981000	28.650912	6.815002E-6	20.873624
2571.644214	-3.012100	2.994000	-9.018000	28.630672	5.131878E-6	20.870309
2572.639813	-3.008700	2.993100	-9.004500	28.650073	5.560909E-6	20.871831
2573.639882	-3.003700	2.990300	-8.980900	28.702230	5.791926E-6	20.880267
2574.642104	-3.030000	2.989800	-9.058200	28.764588	6.154953E-6	20.873853
2575.639670	-3.010600	2.988100	-8.994800	28.776136	5.725922E-6	20.871735
2576.641770	-3.002300	2.987000	-8.966900	28.816717	7.673065E-6	20.880371
2577.640526	-2.966900	2.985700	-8.856900	28.886254	6.319965E-6	20.866023
2578.640680	-2.999700	2.983700	-8.948400	28.838223	8.267109E-6	20.853198
2579.643939	-3.011600	2.982800	-8.981900	28.816349	4.702846E-6	20.860087
2580.640602	-2.990400	2.981300	-8.914000	28.804088	7.442048E-6	20.857693
2581.643035	-2.969800	2.979200	-8.846900	28.788828	6.418973E-6	20.878356
2582.641939	-3.004000	2.977600	-8.943100	28.814024	6.616987E-6	20.872917
2583.640674	-3.017900	2.977400	-8.984300	28.833450	5.692919E-6	20.869252
2584.639820	-2.972900	2.976500	-8.846700	28.813259	5.593912E-6	20.862664
2585.640150	-3.018600	2.974600	-8.978100	28.817399	6.748997E-6	20.878212
2586.640258	-3.006400	2.971500	-8.932400	28.773301	7.475050E-6	20.866508
2587.645047	-2.996700	2.971700	-8.904600	28.827830	6.484977E-6	20.876393
2588.640818	-3.011300	2.969100	-8.939800	28.874947	1.024725E-5	20.876916
2589.641191	-3.002600	2.968500	-8.912600	28.866872	6.748997E-6	20.855032
2590.644407	-3.005300	2.966000	-8.913100	28.841356	8.795147E-6	20.862519
2591.641790	-2.990300	2.965600	-8.866900	28.848071	8.003089E-6	20.866438
2592.645415	-3.026000	2.962300	-8.961900	28.836602	9.026164E-6	20.865316
2593.641569	-2.981400	2.962000	-8.829800	28.916172	8.498126E-6	20.860127
2594.643279	-2.998400	2.960700	-8.876300	28.991424	9.554203E-6	20.861026
2595.642402	-2.986400	2.959400	-8.836600	29.052179	6.451975E-6	20.856806
2596.643540	-3.026100	2.957300	-8.947600	29.066298	6.352968E-6	20.840214
2597.646117	-3.019900	2.955500	-8.924300	29.101567	8.729143E-6	20.865318
2598.645123	-3.024100	2.953300	-8.930100	29.121353	6.781999E-6	20.841634
2599.645420	-2.996300	2.953200	-8.848000	29.133589	6.649990E-6	20.856334
2600.648607	-3.013900	2.951100	-8.892700	29.072936	7.112024E-6	20.853065
2601.646606	-3.022300	2.950100	-8.915500	29.052082	7.706067E-6	20.829209
2602.651337	-2.971900	2.949400	-8.764400	29.024440	8.102096E-6	20.859204
2603.648305	-3.002200	2.946100	-8.844000	28.989640	9.125172E-6	20.832677
2604.647371	-2.985000	2.946500	-8.795100	29.003487	7.904082E-6	20.861326
2605.649963	-3.003300	2.943600	-8.839500	28.959818	5.164880E-6	20.854787
2606.647333	-3.004700	2.942700	-8.840700	28.918054	6.848004E-6	20.853015
2607.648991	-2.992100	2.940800	-8.798100	28.909780	5.527907E-6	20.852266
2608.651954	-2.989600	2.939500	-8.786100	28.988277	6.980014E-6	20.856434
2609.649275	-3.021600	2.936400	-8.872000	29.031647	4.537834E-6	20.853189
2610.647760	-2.979400	2.936300	-8.747600	29.076725	5.989941E-6	20.850245
2611.650005	-2.987200	2.934500	-8.765200	29.056589	6.980014E-6	20.850344
2612.655229	-3.016000	2.933100	-8.845500	29.068972	5.593912E-6	20.837218
2613.649578	-2.977100	2.931600	-8.727300	29.070681	7.871079E-6	20.852690
2614.651973	-2.967300	2.929900	-8.693500	28.981442	6.286963E-6	20.827737
2615.653924	-2.995800	2.927400	-8.769000	28.948449	5.923936E-6	20.854713
2616.650140	-3.001400	2.926300	-8.782600	28.959668	6.682992E-6	20.830456
2617.651136	-2.993700	2.924300	-8.753600	28.905250	6.715994E-6	20.840590
2618.651111	-3.012000	2.922400	-8.800600	28.922389	7.574058E-6	20.841735
2619.650875	-3.020900	2.920600	-8.822100	28.894423	5.659917E-6	20.815459
2620.650385	-2.984800	2.918700	-8.710700	28.879236	3.910788E-6	20.835247
2621.652333	-3.026200	2.916500	-8.824700	28.922487	4.702846E-6	20.827611
2622.652792	-2.991600	2.915200	-8.720200	28.994866	6.154953E-6	20.844580
2623.655509	-2.984400	2.914300	-8.697000	29.015176	5.692919E-6	20.836594
2624.652375	-3.015900	2.911000	-8.777900	29.068055	5.065873E-6	20.841036
2625.653226	-2.962800	2.910800	-8.623400	29.032763	4.768851E-6	20.836296
2626.659184	-2.984300	2.910400	-8.684900	29.024216	6.881007E-6	20.844754
2627.652951	-2.999700	2.906900	-8.718600	29.057803	6.881007E-6	20.836396
2628.664635	-2.989000	2.906000	-8.685300	29.077342	5.923936E-6	20.836168
2629.653392	-2.997100	2.903700	-8.701100	29.023844	7.211031E-6	20.830155
2630.654991	-3.014200	2.901600	-8.745800	28.979609	5.956939E-6	20.849597
2631.655233	-2.995000	2.900500	-8.686300	28.985922	5.758924E-6	20.839363
2632.654065	-3.019200	2.897200	-8.746400	29.045218	7.013016E-6	20.823242
2633.657531	-2.997100	2.896900	-8.680900	29.050642	3.250739E-6	20.827758
2634.655459	-2.972200	2.894800	-8.602500	28.991691	5.164880E-6	20.831425
2635.656673	-3.002700	2.892400	-8.683100	29.017352	5.824929E-6	20.822666
2636.657250	-3.001000	2.891700	-8.677200	28.961224	7.904082E-6	20.845773
2637.657091	-3.008300	2.888200	-8.686600	28.969872	7.772072E-6	20.849270
2638.657524	-2.985100	2.888900	-8.622800	28.972619	4.702846E-6	20.829754
2639.658882	-3.020800	2.884300	-8.712400	28.994416	5.230885E-6	20.841282
2640.661696	-2.991100	2.883200	-8.622900	29.067112	4.933863E-6	20.828706
2641.660820	-2.999400	2.881100	-8.641000	29.171749	4.867858E-6	20.849268
2642.661609	-2.986400	2.879700	-8.598600	29.248121	3.877785E-6	20.820495
2643.662407	-2.996900	2.878200	-8.624400	29.254831	8.564130E-6	20.833895
2644.663228	-2.983900	2.875500	-8.579600	29.232296	4.834856E-6	20.840108
2645.660162	-2.979100	2.875000	-8.564200	29.155303	5.065873E-6	20.834593
2646.659792	-2.993500	2.873600	-8.600800	29.129053	4.900861E-6	20.840384
2647.660357	-2.983100	2.870500	-8.561900	29.098912	3.349747E-6	20.829454
2648.662640	-3.004000	2.868300	-8.615500	29.086157	5.989941E-6	20.827981
2649.663406	-3.008700	2.867400	-8.625600	29.177667	6.088948E-6	20.809713
2650.664835	-3.006200	2.864300	-8.608800	29.176750	2.161659E-6	20.816851
2651.661344	-3.002300	2.863400	-8.595800	29.163947	3.910788E-6	20.803001
2652.662111	-3.030400	2.859500	-8.664300	29.146687	4.570836E-6	20.815006
2653.664576	-3.010200	2.858300	-8.603300	29.170859	5.725922E-6	20.838414
2654.662018	-3.034800	2.855100	-8.663500	29.206471	5.395897E-6	20.821670
2655.665194	-2.972100	2.854800	-8.483700	29.260208	4.042798E-6	20.836468
2656.663237	-2.982600	2.852000	-8.504800	29.284998	6.253960E-6	20.810717
2657.663391	-2.985900	2.850400	-8.509700	29.267588	6.385970E-6	20.822095
2658.662303	-2.990200	2.849200	-8.519200	29.297130	6.121951E-6	20.822470
2659.662983	-2.982300	2.847400	-8.490900	29.331127	5.692919E-6	20.821171
2660.663674	-2.969600	2.847000	-8.452800	29.362773	6.649990E-6	20.812289
2661.663811	-2.999300	2.843200	-8.526900	29.310576	7.805075E-6	20.815633
2662.663701	-3.016100	2.838800	-8.561200	29.303866	6.583985E-6	20.829259
2663.664511	-2.979000	2.838200	-8.454200	29.266823	8.498126E-6	20.818954
2664.663543	-2.989100	2.836000	-8.476200	29.280096	6.352968E-6	20.817157
2665.662976	-3.002400	2.832300	-8.502300	29.266651	6.848004E-6	20.807874
2666.666392	-3.030900	2.829900	-8.576300	29.271356	5.263888E-6	20.813090
2667.665914	-3.021200	2.828100	-8.543600	29.284581	6.616987E-6	20.837797
2668.665242	-3.020300	2.825500	-8.532800	29.277225	5.923936E-6	20.826118
2669.667913	-2.995600	2.824600	-8.460200	29.244860	8.135099E-6	20.814363
2670.670358	-2.960500	2.823100	-8.357100	29.254097	7.013016E-6	20.809922
2671.669122	-3.007000	2.820100	-8.479100	29.258110	7.508053E-6	20.819656
2672.669044	-2.968000	2.818400	-8.364700	29.333337	6.881007E-6	20.816287
2673.666157	-2.999800	2.816500	-8.447600	29.377238	7.607060E-6	20.817858
2674.667634	-2.970600	2.813600	-8.357200	29.401429	7.244033E-6	20.824223
2675.669383	-3.016400	2.809500	-8.473600	29.466273	6.980014E-6	20.817511
2676.669622	-3.004300	2.808700	-8.437400	29.470558	7.112024E-6	20.840321
2677.669114	-2.973700	2.806700	-8.345000	29.480660	4.999868E-6	20.798822
2678.668861	-3.007300	2.801900	-8.425400	29.478430	5.725922E-6	20.816014
2679.674222	-2.977700	2.800900	-8.339100	29.352234	5.164880E-6	20.818736
2680.669707	-2.941100	2.799000	-8.230700	29.315390	5.164880E-6	20.827122
2681.673538	-3.006100	2.794000	-8.398700	29.332055	6.914009E-6	20.824952
2682.673567	-2.989500	2.791500	-8.345100	29.323759	5.890934E-6	20.803315
2683.672632	-3.008400	2.788200	-8.387000	29.353573	6.583985E-6	20.794956
2684.672986	-3.003400	2.786200	-8.367200	29.414981	6.484977E-6	20.805166
2685.672626	-3.024700	2.783700	-8.418200	29.468684	5.890934E-6	20.818993
2686.673586	-3.009900	2.781300	-8.369600	29.410774	6.385970E-6	20.818943
2687.676561	-3.003800	2.778500	-8.345300	29.368656	3.877785E-6	20.807787
2688.673996	-3.011900	2.774900	-8.357100	29.363904	4.933863E-6	20.820541
2689.675030	-3.029500	2.770300	-8.391600	29.363584	7.508053E-6	20.816899
2690.680315	-3.019500	2.768800	-8.359600	29.402904	7.046019E-6	20.804847
2691.675548	-2.993900	2.766500	-8.281500	29.414194	4.273815E-6	20.825709
2692.679009	-2.978300	2.764600	-8.233100	29.402287	5.395897E-6	20.805174
2693.676854	-2.979500	2.760200	-8.223400	29.440914	6.484977E-6	20.798113
2694.677970	-2.990000	2.756700	-8.241800	29.453122	3.712773E-6	20.824643
2695.677700	-3.015300	2.754100	-8.303700	29.369087	4.768851E-6	20.815334
2696.676715	-3.015600	2.751600	-8.296800	29.337647	3.448754E-6	20.817311
2697.680110	-3.032200	2.746700	-8.327600	29.290822	4.306817E-6	20.807104
2698.677328	-2.993600	2.744300	-8.214500	29.321232	3.745776E-6	20.818311
2699.675932	-3.013000	2.740600	-8.256600	29.390859	4.504832E-6	20.822104
2700.677919	-3.023400	2.737500	-8.275200	29.428791	6.451975E-6	20.826672
2701.677990	-3.012600	2.735300	-8.239500	29.488289	4.834856E-6	20.817417
2702.678224	-2.966000	2.732300	-8.102900	29.463432	8.069094E-6	20.820810
2703.678828	-3.014700	2.727200	-8.220500	29.507577	7.178028E-6	20.805565
2704.679455	-2.999000	2.724800	-8.170900	29.546643	6.253960E-6	20.819340
2705.678355	-3.004900	2.720500	-8.174300	29.616925	5.164880E-6	20.817645
2706.680394	-2.962900	2.718300	-8.052800	29.683417	5.890934E-6	20.814504
2707.678529	-3.016800	2.712200	-8.181000	29.653762	6.055946E-6	20.798832
2708.682026	-3.030700	2.709400	-8.210200	29.728518	3.250739E-6	20.819672
2709.680111	-2.984100	2.705800	-8.073600	29.772131	6.154953E-6	20.821444
2710.683288	-2.987300	2.702100	-8.070400	29.715278	6.187956E-6	20.809168
2711.680387	-2.996300	2.696900	-8.079100	29.708101	6.187956E-6	20.822794
2712.680310	-2.960400	2.694900	-7.976700	29.727855	7.706067E-6	20.804304
2713.679523	-2.971200	2.689500	-7.990900	29.706741	5.560909E-6	20.813837
2714.685297	-2.992600	2.686000	-8.037200	29.739516	4.834856E-6	20.807526
2715.681488	-2.977300	2.682800	-7.986800	29.772659	7.079021E-6	20.822450
2716.682283	-3.015700	2.676900	-8.071300	29.784984	6.451975E-6	20.820179
2717.685754	-3.012500	2.673300	-8.052900	29.736499	7.739070E-6	20.810174
2718.682257	-2.981400	2.669100	-7.956500	29.669815	9.884227E-6	20.816912
2719.687352	-3.038100	2.664400	-8.093900	29.733729	5.956939E-6	20.820657
2720.684962	-2.993100	2.659200	-7.958400	29.764171	6.451975E-6	20.820057
2721.684657	-3.046500	2.654000	-8.084400	29.685463	6.583985E-6	20.814670
2722.684517	-3.009200	2.650700	-7.974700	29.630361	6.187956E-6	20.817440
2723.684386	-3.000500	2.647200	-7.941700	29.583824	8.531128E-6	20.807036
2724.685679	-3.019600	2.639900	-7.969700	29.598752	7.706067E-6	20.840575
2725.684678	-3.020600	2.637000	-7.964600	29.607218	7.376043E-6	20.841524
2726.685174	-2.990800	2.631900	-7.870700	29.619622	7.607060E-6	20.825105
2727.686932	-2.998300	2.627000	-7.874700	29.664800	6.517980E-6	20.839830
2728.689924	-2.996700	2.622100	-7.856300	29.725717	6.451975E-6	20.819693
2729.687207	-2.949300	2.617800	-7.719700	29.790886	5.659917E-6	20.819018
2730.695229	-2.978800	2.613600	-7.784700	29.788486	6.616987E-6	20.835563
2731.689463	-3.023700	2.603900	-7.872700	29.806158	7.904082E-6	20.819243
2732.687187	-2.985100	2.601100	-7.763600	29.786952	6.881007E-6	20.826904
2733.689084	-2.982900	2.596600	-7.744600	29.787870	7.970087E-6	20.815976
2734.688612	-3.005800	2.590200	-7.785200	29.863975	5.857931E-6	20.832497
2735.693212	-3.012100	2.584200	-7.782500	29.789455	6.253960E-6	20.810937
2736.689959	-2.985400	2.579700	-7.700600	29.816607	6.484977E-6	20.833097
2737.689835	-3.007700	2.571900	-7.734600	29.813785	9.323186E-6	20.800855
2738.689456	-3.008300	2.565600	-7.716800	29.855587	8.399118E-6	20.840160
2739.689682	-3.004000	2.561300	-7.693000	29.909615	6.451975E-6	20.822569
2740.692227	-3.005500	2.554500	-7.676400	29.822971	9.158174E-6	20.845203
2741.695077	-2.996400	2.548800	-7.635900	29.866109	7.079021E-6	20.828010
2742.690615	-2.967500	2.543000	-7.545400	29.899222	9.191176E-6	20.841011
2743.691031	-3.006200	2.535700	-7.622600	29.912609	9.818223E-6	20.833174
2744.691030	-2.996600	2.532300	-7.587200	29.911201	8.465123E-6	20.826064
2745.692874	-3.030500	2.524100	-7.649000	29.999224	7.904082E-6	20.824741
2746.696309	-3.014700	2.518600	-7.591700	30.098028	8.564130E-6	20.845677
2747.692160	-2.999500	2.512500	-7.535300	30.118170	1.189738E-5	20.847499
2748.694071	-2.971900	2.507000	-7.450000	30.110724	9.356189E-6	20.824818
2749.696410	-2.996400	2.499600	-7.488900	30.104017	1.074229E-5	20.836545
