LabVIEW Measurement	
Writer_Version	2
Reader_Version	2
Separator	Tab
Decimal_Separator	.
Multi_Headings	No
X_Columns	One
Time_Pref	Absolute
Operator	admin
Description	Clolumns are: time, Current, Voltage, Power, Battery Temp, and Chamber Temp
Date	2024/08/16
Time	13:07:17.8513970375061035156
***End_of_Header***	
	
Channels	6						
Samples	1	1	1	1	1	1	
Date	2024/09/11	2024/09/11	2024/09/11	2024/09/11	2024/09/11	2024/09/11	
Time	16:58:11.9589810371398925782	16:58:11.9649882316589355469	16:58:11.9709801673889160157	16:58:11.943572998046875	16:58:11.943572998046875	16:58:11.943572998046875	
X_Dimension	Time	Time	Time	Time	Time	Time	
X0	0.0000000000000000E+0	0.0000000000000000E+0	0.0000000000000000E+0	0.0000000000000000E+0	0.0000000000000000E+0	0.0000000000000000E+0	
Delta_X	1.000000	1.000000	1.000000	1.000000	1.000000	1.000000	
***End_of_Header***							
X_Value	Untitled	Untitled 1	Untitled 2	Untitled 3	Untitled 4	Untitled 5	Comment
0.000000	0.033041	4.085300	0.135020	20.821295	0.000461	20.826984
1.001226	-2.977300	3.918500	-11.665000	20.831177	0.000462	20.816953
2.003356	-2.997700	3.911900	-11.725000	20.835618	0.000462	20.823290
3.004436	-3.002200	3.906300	-11.727000	20.836688	0.000462	20.826731
3.999523	-3.003800	3.904200	-11.726000	20.845746	0.000460	20.832945
5.000126	-3.008100	3.902300	-11.738000	20.861470	0.000459	20.804573
6.001209	-2.986300	3.900900	-11.649000	20.854583	0.000458	20.820920
6.999757	-3.000000	3.896200	-11.688000	20.858049	0.000458	20.816325
8.001712	-3.003500	3.895400	-11.699000	20.875192	0.000456	20.801701
9.001377	-2.989100	3.893200	-11.636000	20.878061	0.000457	20.832071
10.001750	-2.990400	3.891900	-11.638000	20.880730	0.000457	20.843274
11.003954	-2.999200	3.888900	-11.662000	20.883746	0.000456	20.825428
12.001379	-2.991600	3.888800	-11.632000	20.909100	0.000457	20.830395
13.010902	-2.998500	3.887700	-11.656000	20.924845	0.000456	20.822908
14.003673	-3.011800	3.885400	-11.701000	20.903709	0.000456	20.821210
15.004994	-3.003400	3.885800	-11.670000	20.920153	0.000455	20.818691
16.005758	-3.025000	3.881800	-11.740000	20.924021	0.000455	20.814024
17.005565	-2.987400	3.883100	-11.599000	20.946601	0.000455	20.820012
18.005142	-2.997200	3.883400	-11.638000	20.965987	0.000454	20.810951
19.006939	-3.004700	3.881800	-11.662000	20.962867	0.000454	20.815891
20.003646	-2.996100	3.879300	-11.622000	20.965061	0.000451	20.791533
21.004549	-2.989100	3.880100	-11.597000	20.971696	0.000454	20.824721
22.008000	-2.990200	3.878900	-11.597000	20.978705	0.000453	20.809447
23.007834	-3.016500	3.878200	-11.697000	20.985315	0.000452	20.818428
24.012254	-3.013200	3.876400	-11.679000	20.995097	0.000452	20.809720
25.009028	-2.995900	3.877400	-11.615000	21.007197	0.000450	20.824192
26.007707	-2.994100	3.876200	-11.605000	21.012511	0.000454	20.801533
27.008522	-3.002300	3.875700	-11.635000	21.033690	0.000451	20.808965
28.008489	-2.993500	3.876200	-11.602000	21.042097	0.000452	20.815951
29.010813	-2.985100	3.875800	-11.569000	21.041647	0.000449	20.790846
30.012059	-2.999000	3.874900	-11.618000	21.044067	0.000448	20.815551
31.010626	-2.995100	3.874100	-11.603000	21.049332	0.000450	20.810860
32.010837	-2.991200	3.874200	-11.588000	21.076896	0.000449	20.817567
33.012451	-3.002100	3.873400	-11.627000	21.071532	0.000446	20.802246
34.011865	-3.001300	3.873300	-11.624000	21.065517	0.000447	20.803341
35.012186	-2.989500	3.873400	-11.579000	21.072977	0.000448	20.802742
36.012176	-3.004700	3.871900	-11.632000	21.089417	0.000447	20.822979
37.013096	-3.014300	3.869800	-11.663000	21.128062	0.000448	20.791934
38.015531	-3.010200	3.870600	-11.650000	21.119976	0.000446	20.827468
39.012630	-2.990100	3.870700	-11.572000	21.134946	0.000445	20.803088
40.020566	-3.011200	3.869200	-11.650000	21.127285	0.000447	20.785941
41.014784	-3.021800	3.870500	-11.695000	21.129705	0.000447	20.793577
42.018933	-3.011600	3.869200	-11.651000	21.147194	0.000445	20.811071
43.018794	-3.006000	3.870400	-11.634000	21.151209	0.000446	20.798967
44.016053	-3.016600	3.868400	-11.668000	21.174483	0.000447	20.803282
45.020581	-3.001600	3.869700	-11.614000	21.157418	0.000446	20.794273
46.020227	-2.997700	3.868800	-11.596000	21.172860	0.000444	20.775580
47.016561	-2.982600	3.869000	-11.539000	21.165673	0.000446	20.803004
48.019829	-2.985800	3.867400	-11.546000	21.212273	0.000447	20.776600
49.020298	-2.992100	3.868300	-11.574000	21.203394	0.000445	20.795219
50.018448	-2.980800	3.867900	-11.528000	21.209280	0.000448	20.792098
51.022048	-3.015200	3.866100	-11.656000	21.231830	0.000448	20.810863
52.023251	-3.003900	3.867100	-11.615000	21.231778	0.000446	20.773353
53.020820	-3.017300	3.865300	-11.662000	21.242154	0.000447	20.783259
54.021834	-3.011000	3.866200	-11.640000	21.242427	0.000446	20.813403
55.019712	-2.995700	3.866700	-11.582000	21.245494	0.000447	20.789445
56.019883	-2.998100	3.865000	-11.587000	21.272982	0.000447	20.796555
57.021695	-2.998800	3.866600	-11.593000	21.290493	0.000446	20.793211
58.021529	-2.998000	3.865900	-11.589000	21.285727	0.000444	20.793184
59.022710	-2.995000	3.865100	-11.575000	21.305682	0.000446	20.791337
60.022027	-2.980600	3.865100	-11.520000	21.289117	0.000445	20.768126
61.021365	-3.004800	3.864100	-11.610000	21.303708	0.000445	20.777508
62.022002	-2.994500	3.864100	-11.570000	21.322889	0.000446	20.779154
63.023553	-2.984900	3.864500	-11.534000	21.320492	0.000446	20.797619
64.024074	-2.998300	3.864000	-11.584000	21.341794	0.000445	20.796645
65.024829	-2.994200	3.865000	-11.570000	21.352218	0.000446	20.799962
66.025940	-2.997800	3.864100	-11.582000	21.366260	0.000447	20.784613
67.025686	-3.012600	3.864300	-11.640000	21.363290	0.000445	20.796341
68.026298	-2.999000	3.862400	-11.583000	21.378054	0.000446	20.774602
69.025529	-3.002000	3.863000	-11.595000	21.379126	0.000446	20.811236
70.025953	-3.000800	3.863600	-11.593000	21.383989	0.000448	20.799032
71.026736	-2.987500	3.863100	-11.539000	21.410898	0.000446	20.815998
72.027028	-2.990900	3.863500	-11.554000	21.400124	0.000448	20.784830
73.027993	-2.988700	3.862600	-11.543000	21.404238	0.000447	20.778989
74.029646	-2.984400	3.863000	-11.527000	21.433595	0.000446	20.771851
75.028693	-2.999100	3.861700	-11.581000	21.440751	0.000448	20.788020
76.028840	-3.004300	3.861000	-11.598000	21.448755	0.000449	20.777063
77.032613	-3.006300	3.862300	-11.610000	21.430797	0.000445	20.785173
78.029674	-3.009500	3.862600	-11.624000	21.458280	0.000448	20.782326
79.028174	-2.992500	3.861700	-11.555000	21.476189	0.000448	20.766105
80.030852	-3.001200	3.860500	-11.585000	21.479030	0.000447	20.785069
81.029301	-3.003800	3.860200	-11.593000	21.494541	0.000448	20.796323
82.029316	-3.002700	3.860800	-11.593000	21.500401	0.000449	20.776108
83.031270	-3.002200	3.861000	-11.591000	21.515488	0.000448	20.774134
84.034916	-3.019300	3.860600	-11.655000	21.520525	0.000449	20.798614
85.028243	-3.010000	3.860200	-11.618000	21.520671	0.000449	20.788804
86.028638	-3.009900	3.860800	-11.620000	21.539923	0.000449	20.784835
87.028318	-3.035300	3.858800	-11.712000	21.548726	0.000449	20.777047
88.031476	-2.999900	3.860300	-11.580000	21.538224	0.000449	20.783609
89.028545	-3.000200	3.859700	-11.579000	21.549919	0.000449	20.800053
90.031301	-2.995700	3.860200	-11.563000	21.580741	0.000448	20.786799
91.032573	-3.001000	3.858800	-11.579000	21.569967	0.000448	20.814424
92.031500	-3.021100	3.858700	-11.657000	21.567822	0.000448	20.782880
93.032557	-2.995600	3.858000	-11.556000	21.597720	0.000449	20.781505
94.032661	-3.007500	3.857900	-11.601000	21.580960	0.000449	20.793657
95.029989	-3.017000	3.858700	-11.641000	21.622508	0.000450	20.775015
96.030328	-2.981400	3.859300	-11.506000	21.624674	0.000450	20.781925
97.029833	-3.010000	3.857100	-11.608000	21.614523	0.000451	20.789310
98.030755	-3.029800	3.857700	-11.688000	21.613127	0.000447	20.789335
99.032143	-2.975500	3.859400	-11.483000	21.638760	0.000451	20.783693
100.032168	-2.982100	3.858900	-11.507000	21.640831	0.000448	20.777231
101.034594	-2.988200	3.856800	-11.524000	21.660431	0.000449	20.767447
102.032246	-2.987000	3.857200	-11.521000	21.682275	0.000448	20.785515
103.035700	-3.005600	3.857400	-11.593000	21.691925	0.000449	20.769093
104.037573	-2.975800	3.857300	-11.478000	21.684944	0.000451	20.771590
105.032875	-2.983500	3.858700	-11.512000	21.693770	0.000450	20.785639
106.033150	-2.982000	3.856900	-11.500000	21.719927	0.000449	20.775307
107.033592	-3.004200	3.856500	-11.585000	21.709105	0.000449	20.788658
108.033219	-2.993400	3.855300	-11.540000	21.715467	0.000449	20.778904
109.035032	-2.992300	3.856900	-11.540000	21.740947	0.000448	20.768368
110.035101	-2.992200	3.855900	-11.537000	21.727833	0.000449	20.792228
111.034603	-2.967500	3.856000	-11.442000	21.733867	0.000448	20.778353
112.035648	-3.008900	3.855500	-11.600000	21.766931	0.000448	20.762132
113.035810	-2.991000	3.857100	-11.535000	21.756658	0.000450	20.774609
114.036667	-2.993900	3.855700	-11.543000	21.771644	0.000450	20.773487
115.034975	-3.013100	3.853700	-11.610000	21.771917	0.000451	20.758113
116.035916	-3.005100	3.854100	-11.581000	21.775482	0.000450	20.781121
117.036859	-3.004400	3.853700	-11.577000	21.780743	0.000449	20.773110
118.035578	-2.996500	3.853800	-11.547000	21.818094	0.000451	20.785364
119.035718	-2.989900	3.854900	-11.525000	21.796076	0.000450	20.806475
120.035897	-3.005800	3.853500	-11.582000	21.799792	0.000451	20.793124
121.037342	-2.985800	3.855400	-11.511000	21.826921	0.000451	20.795147
122.038632	-3.015900	3.853700	-11.622000	21.826499	0.000451	20.787138
123.035415	-3.013100	3.852300	-11.606000	21.838839	0.000453	20.783842
124.036407	-2.997800	3.853900	-11.552000	21.853276	0.000451	20.784068
125.036077	-3.006800	3.853600	-11.587000	21.831611	0.000452	20.781823
126.037000	-3.007800	3.852500	-11.586000	21.841286	0.000454	20.772541
127.038955	-2.979200	3.853200	-11.478000	21.869982	0.000455	20.792729
128.041418	-3.000100	3.851900	-11.554000	21.866219	0.000455	20.789437
129.038533	-2.999800	3.851800	-11.554000	21.892271	0.000456	20.782796
130.037929	-2.994500	3.852800	-11.536000	21.875168	0.000454	20.789859
131.041372	-3.001700	3.852600	-11.564000	21.890552	0.000455	20.773963
132.040123	-3.029200	3.851100	-11.664000	21.909649	0.000456	20.775061
133.040699	-2.992800	3.851600	-11.527000	21.923361	0.000458	20.775036
134.043334	-2.991200	3.852300	-11.522000	21.900897	0.000457	20.787637
135.039402	-3.007400	3.851100	-11.581000	21.942731	0.000459	20.805330
136.039323	-2.989600	3.851000	-11.512000	21.954174	0.000458	20.775059
137.040235	-3.015900	3.850800	-11.613000	21.970326	0.000459	20.800236
138.041155	-3.014800	3.851100	-11.610000	21.972721	0.000460	20.764702
139.041616	-2.977900	3.852100	-11.470000	21.971774	0.000458	20.785090
140.041704	-2.979100	3.850800	-11.471000	21.973093	0.000460	20.766497
141.042341	-2.985700	3.850100	-11.495000	21.988774	0.000460	20.794522
142.041722	-2.975300	3.851600	-11.457000	21.998996	0.000460	20.780572
143.043256	-2.989400	3.850000	-11.508000	22.020011	0.000460	20.803980
144.043229	-2.998800	3.849800	-11.544000	21.993635	0.000461	20.803655
145.042270	-3.001900	3.849200	-11.553000	22.013152	0.000460	20.789053
146.041336	-2.996700	3.850200	-11.537000	22.028383	0.000461	20.777748
147.042209	-3.003100	3.849800	-11.560000	22.038079	0.000464	20.785084
148.044119	-3.005500	3.849600	-11.570000	22.038603	0.000463	20.777547
149.042895	-3.005800	3.848800	-11.568000	22.026486	0.000463	20.788177
150.050446	-2.981800	3.848400	-11.475000	22.062280	0.000463	20.811208
151.043347	-3.010200	3.848000	-11.582000	22.069833	0.000462	20.789846
152.043247	-3.012300	3.849100	-11.593000	22.080650	0.000462	20.785028
153.043425	-2.994800	3.848200	-11.524000	22.083316	0.000465	20.812353
154.045624	-2.978400	3.848700	-11.462000	22.107444	0.000464	20.790041
155.044275	-2.999100	3.848600	-11.541000	22.122473	0.000464	20.800346
156.045745	-2.983100	3.847400	-11.477000	22.135558	0.000463	20.787367
157.048768	-3.006100	3.848100	-11.567000	22.145926	0.000464	20.805808
158.044428	-2.986100	3.847300	-11.488000	22.127755	0.000464	20.801841
159.043904	-3.006600	3.846400	-11.564000	22.118978	0.000466	20.802062
160.046876	-2.984500	3.847300	-11.481000	22.140042	0.000462	20.787589
161.046523	-2.993600	3.845800	-11.512000	22.117979	0.000465	20.795846
162.044360	-2.989800	3.847000	-11.501000	22.162197	0.000466	20.792701
163.048421	-2.997700	3.846500	-11.530000	22.160152	0.000464	20.795395
164.047951	-3.003400	3.846000	-11.550000	22.174358	0.000465	20.793970
165.045906	-2.987500	3.847400	-11.493000	22.172287	0.000465	20.826510
166.047318	-3.003000	3.846500	-11.551000	22.174781	0.000465	20.806249
167.045782	-3.004800	3.845900	-11.554000	22.187891	0.000464	20.811313
168.062680	-2.993400	3.845800	-11.511000	22.220543	0.000466	20.809866
169.050133	-3.010500	3.844900	-11.574000	22.201724	0.000463	20.801455
170.045652	-2.996700	3.846700	-11.526000	22.203194	0.000466	20.816204
171.046301	-3.008500	3.844700	-11.566000	22.210747	0.000466	20.820446
172.047817	-2.975400	3.845800	-11.442000	22.231633	0.000463	20.798211
173.048373	-2.980700	3.845000	-11.460000	22.248009	0.000466	20.801331
174.049307	-2.984000	3.845600	-11.475000	22.269344	0.000465	20.807520
175.048755	-2.975800	3.846000	-11.444000	22.276620	0.000465	20.811961
176.051545	-3.008400	3.842900	-11.560000	22.287512	0.000465	20.831401
177.054124	-2.989200	3.843100	-11.486000	22.287936	0.000467	20.805273
178.049502	-3.024600	3.842400	-11.621000	22.291950	0.000467	20.816879
179.059237	-3.008900	3.843800	-11.565000	22.287737	0.000468	20.821196
180.049632	-3.016100	3.842200	-11.587000	22.275403	0.000468	20.843457
181.049061	-3.014000	3.841300	-11.576000	22.298532	0.000471	20.800236
182.050072	-3.011000	3.843200	-11.571000	22.298529	0.000468	20.823467
183.051441	-3.016100	3.842600	-11.588000	22.312539	0.000470	20.819951
184.051243	-2.998900	3.842100	-11.521000	22.331579	0.000470	20.812938
185.054471	-2.986000	3.842900	-11.474000	22.344639	0.000471	20.821748
186.053366	-2.980100	3.843200	-11.452000	22.352987	0.000470	20.814460
187.052597	-2.966900	3.843400	-11.401000	22.352391	0.000471	20.813390
188.052042	-2.993600	3.841500	-11.499000	22.369710	0.000472	20.827887
189.053712	-2.991400	3.841100	-11.490000	22.385613	0.000473	20.823423
190.053352	-2.980900	3.842700	-11.453000	22.380777	0.000475	20.824270
191.052890	-2.992400	3.841200	-11.494000	22.391940	0.000473	20.816483
192.051712	-3.002400	3.841600	-11.532000	22.413123	0.000474	20.805453
193.055924	-3.017100	3.840100	-11.585000	22.405775	0.000474	20.818483
194.054328	-2.983500	3.840700	-11.458000	22.426358	0.000472	20.823922
195.056955	-3.016600	3.839400	-11.581000	22.414295	0.000473	20.799989
196.059735	-2.984000	3.841100	-11.461000	22.428177	0.000474	20.834279
197.058311	-2.999600	3.841100	-11.520000	22.463239	0.000474	20.823873
198.057106	-3.012200	3.839800	-11.565000	22.461171	0.000475	20.810897
199.058794	-3.004300	3.838900	-11.532000	22.447790	0.000473	20.847282
200.056540	-3.005900	3.839600	-11.541000	22.458432	0.000475	20.811947
201.057794	-2.980500	3.839500	-11.444000	22.458630	0.000474	20.810723
202.058454	-2.985200	3.840000	-11.462000	22.459406	0.000477	20.818612
203.058075	-2.999400	3.838700	-11.512000	22.463415	0.000476	20.819307
204.058287	-2.989700	3.839000	-11.477000	22.490702	0.000477	20.825297
205.057719	-2.986000	3.839000	-11.462000	22.507547	0.000477	20.809926
206.058910	-2.995200	3.838100	-11.494000	22.487838	0.000476	20.842818
207.059474	-3.012000	3.837900	-11.559000	22.487590	0.000475	20.835457
208.059738	-2.979800	3.838300	-11.437000	22.505780	0.000476	20.831389
209.058473	-3.012500	3.838100	-11.560000	22.520159	0.000476	20.820185
210.058812	-2.999400	3.837800	-11.510000	22.506706	0.000475	20.828523
211.061317	-2.977200	3.837400	-11.423000	22.520262	0.000478	20.807961
212.063462	-3.005000	3.837000	-11.529000	22.534391	0.000478	20.832068
213.062085	-3.007800	3.835800	-11.536000	22.568629	0.000477	20.822262
214.060769	-3.001900	3.836200	-11.514000	22.545681	0.000478	20.832470
215.061297	-2.994000	3.835900	-11.484000	22.563522	0.000479	20.818096
216.062400	-2.976900	3.835200	-11.416000	22.576082	0.000480	20.823563
217.062635	-3.000700	3.835400	-11.508000	22.591506	0.000477	20.831898
218.072404	-3.007400	3.836300	-11.536000	22.555652	0.000479	20.836292
219.064585	-3.020800	3.835600	-11.585000	22.588368	0.000481	20.835393
220.064980	-3.005000	3.834400	-11.521000	22.620758	0.000483	20.823264
221.065868	-2.983100	3.836200	-11.442000	22.584855	0.000481	20.838988
222.065957	-2.996000	3.834600	-11.487000	22.633196	0.000483	20.834300
223.065300	-2.989200	3.835000	-11.462000	22.616127	0.000482	20.833325
224.064882	-2.992400	3.835400	-11.477000	22.645502	0.000482	20.818177
225.066730	-2.993100	3.834200	-11.475000	22.652531	0.000484	20.832329
226.065034	-2.979000	3.834600	-11.422000	22.654648	0.000483	20.845355
227.065888	-2.989500	3.833600	-11.460000	22.635189	0.000486	20.832977
228.071870	-3.010700	3.832400	-11.537000	22.652581	0.000482	20.836646
229.066541	-3.003300	3.834000	-11.513000	22.683001	0.000485	20.836296
230.066730	-2.999800	3.833500	-11.499000	22.675328	0.000485	20.825292
231.072052	-2.990400	3.833600	-11.463000	22.677097	0.000486	20.848874
232.069875	-3.023600	3.831700	-11.585000	22.682381	0.000486	20.828563
233.066269	-3.005600	3.833000	-11.520000	22.724409	0.000489	20.824669
234.067280	-3.010100	3.832100	-11.535000	22.708763	0.000486	20.839342
235.070065	-3.004800	3.831500	-11.512000	22.707217	0.000489	20.847276
236.067281	-3.010200	3.832100	-11.534000	22.704329	0.000488	20.832056
237.067770	-3.009700	3.831700	-11.531000	22.716961	0.000485	20.864148
238.071042	-3.017400	3.831500	-11.561000	22.771121	0.000487	20.821675
239.069584	-2.992300	3.831400	-11.463000	22.752438	0.000486	20.853692
240.069139	-3.003700	3.832200	-11.510000	22.728845	0.000487	20.840965
241.067516	-3.026600	3.830800	-11.593000	22.748502	0.000488	20.830311
242.072620	-3.011900	3.829600	-11.533000	22.756549	0.000488	20.844535
243.070960	-2.973000	3.830100	-11.385000	22.780840	0.000489	20.841367
244.070394	-2.991700	3.830000	-11.457000	22.769007	0.000489	20.835677
245.071776	-2.992000	3.830400	-11.459000	22.756452	0.000488	20.834007
246.071423	-2.991900	3.831100	-11.462000	22.777504	0.000489	20.854146
247.071112	-2.998400	3.830800	-11.486000	22.785799	0.000490	20.839222
248.076761	-2.998900	3.830200	-11.485000	22.805928	0.000490	20.845636
249.072767	-2.967200	3.830200	-11.364000	22.801993	0.000491	20.854022
250.071592	-2.976900	3.829900	-11.401000	22.802717	0.000491	20.839574
251.074792	-2.981800	3.829100	-11.417000	22.819060	0.000492	20.839825
252.073172	-2.999400	3.828900	-11.484000	22.850097	0.000491	20.846736
253.071814	-2.978700	3.830000	-11.406000	22.850548	0.000492	20.826800
254.076773	-3.003400	3.827300	-11.494000	22.840108	0.000492	20.859014
255.073790	-2.985100	3.828100	-11.427000	22.843771	0.000492	20.842295
256.073610	-2.999600	3.827300	-11.480000	22.856850	0.000492	20.841647
257.073408	-3.005800	3.827400	-11.504000	22.875655	0.000492	20.875184
258.076151	-3.011500	3.827600	-11.526000	22.886219	0.000492	20.848310
259.074182	-3.005700	3.827000	-11.502000	22.919995	0.000495	20.876931
260.073988	-2.988700	3.827100	-11.437000	22.910257	0.000493	20.868124
261.076037	-3.014900	3.826200	-11.535000	22.888910	0.000493	20.850057
262.075145	-3.006100	3.826200	-11.500000	22.900992	0.000494	20.849359
263.075073	-3.016800	3.826400	-11.543000	22.932002	0.000494	20.879004
264.077188	-3.001500	3.825400	-11.482000	22.948294	0.000495	20.865929
265.074490	-3.020100	3.825800	-11.553000	22.944309	0.000494	20.887540
266.075638	-3.020900	3.825400	-11.555000	22.956389	0.000494	20.865979
267.079383	-3.006600	3.825300	-11.500000	22.973703	0.000496	20.853455
268.076252	-2.998600	3.824900	-11.469000	22.957836	0.000495	20.867902
269.075864	-2.984400	3.825300	-11.416000	22.954401	0.000495	20.871573
270.079717	-2.978200	3.824700	-11.390000	22.962271	0.000496	20.859544
271.078642	-2.993400	3.824200	-11.447000	22.944212	0.000498	20.874167
272.076752	-2.986800	3.825300	-11.425000	22.944537	0.000495	20.849364
273.077897	-2.989100	3.824100	-11.429000	22.916091	0.000495	20.857374
274.081724	-2.983300	3.824900	-11.410000	22.964664	0.000498	20.859097
275.078670	-2.998100	3.822300	-11.459000	22.965288	0.000496	20.865886
276.078508	-3.003600	3.822600	-11.480000	22.995501	0.000496	20.871975
277.080432	-2.972900	3.823600	-11.366000	22.996448	0.000498	20.872449
278.079551	-3.000800	3.822200	-11.468000	22.972040	0.000496	20.878814
279.079856	-2.982500	3.823300	-11.402000	22.994134	0.000499	20.886251
280.081070	-2.998900	3.821500	-11.459000	23.025193	0.000499	20.890818
281.082028	-3.034000	3.822100	-11.594000	23.058893	0.000498	20.871955
282.081140	-2.999200	3.822600	-11.464000	23.061086	0.000498	20.829109
283.083480	-3.024600	3.820200	-11.554000	23.067064	0.000498	20.863073
284.081953	-2.997400	3.822200	-11.456000	23.067688	0.000499	20.867017
285.082172	-3.017200	3.820700	-11.526000	23.061289	0.000498	20.874829
286.081107	-3.003100	3.821000	-11.474000	23.082808	0.000500	20.867943
287.081868	-2.997300	3.821500	-11.453000	23.068887	0.000501	20.877700
288.082333	-3.000900	3.821000	-11.465000	23.066548	0.000499	20.888632
289.081343	-3.005700	3.819700	-11.480000	23.081296	0.000500	20.876858
290.086212	-2.997800	3.820800	-11.453000	23.086353	0.000499	20.872916
291.083049	-3.005600	3.819200	-11.478000	23.116863	0.000500	20.887366
292.083684	-3.014200	3.819600	-11.512000	23.127397	0.000500	20.879430
293.085970	-3.014200	3.819900	-11.513000	23.106554	0.000501	20.867080
294.082944	-3.008800	3.818300	-11.488000	23.107428	0.000500	20.871275
295.089137	-3.012400	3.818800	-11.503000	23.107331	0.000501	20.859799
296.090742	-3.002900	3.818400	-11.465000	23.101204	0.000502	20.889219
297.084569	-2.989900	3.819500	-11.419000	23.133136	0.000501	20.865741
298.083485	-3.020800	3.817300	-11.530000	23.130297	0.000500	20.881861
299.087602	-2.980600	3.818000	-11.378000	23.115855	0.000501	20.886830
300.084913	-3.008700	3.817600	-11.485000	23.138199	0.000501	20.892150
301.085806	-3.002600	3.817700	-11.462000	23.157200	0.000502	20.880371
302.085097	-3.009000	3.818000	-11.488000	23.148113	0.000505	20.896868
303.085126	-2.981400	3.818100	-11.382000	23.165221	0.000503	20.917803
304.085386	-2.981900	3.817400	-11.382000	23.195182	0.000505	20.874336
305.090136	-2.989200	3.817000	-11.409000	23.238141	0.000503	20.892730
306.086966	-3.029800	3.815500	-11.559000	23.256474	0.000505	20.895929
307.088625	-2.990900	3.815800	-11.412000	23.256472	0.000507	20.885022
308.089538	-2.997000	3.816600	-11.437000	23.237298	0.000504	20.899471
309.091118	-2.970900	3.817100	-11.340000	23.225001	0.000506	20.885727
310.089010	-2.980000	3.815700	-11.370000	23.255631	0.000508	20.878491
311.090497	-2.999200	3.816900	-11.446000	23.241863	0.000506	20.884607
312.092875	-3.004800	3.815700	-11.464000	23.265671	0.000507	20.883336
313.093240	-2.992100	3.814400	-11.412000	23.238430	0.000505	20.891597
314.092731	-3.007600	3.815300	-11.474000	23.241571	0.000506	20.894744
315.093996	-3.024000	3.814300	-11.534000	23.264729	0.000508	20.902779
316.093094	-3.017500	3.814600	-11.509000	23.255794	0.000510	20.892403
317.093235	-2.964600	3.815800	-11.311000	23.244439	0.000510	20.897144
318.093544	-2.985400	3.814900	-11.388000	23.263242	0.000509	20.884221
319.093368	-2.991300	3.813800	-11.408000	23.285231	0.000512	20.902463
320.097318	-2.991200	3.814200	-11.408000	23.301716	0.000510	20.896226
321.093057	-2.989300	3.814900	-11.403000	23.310009	0.000511	20.875141
322.093533	-3.003700	3.812600	-11.451000	23.339668	0.000510	20.904389
323.093378	-2.988100	3.812700	-11.392000	23.317011	0.000512	20.891166
324.093457	-3.004600	3.811900	-11.452000	23.311683	0.000511	20.891516
325.093422	-3.004300	3.812200	-11.452000	23.288501	0.000512	20.905266
326.093401	-3.020300	3.811300	-11.510000	23.280908	0.000510	20.896235
327.093946	-2.998000	3.811800	-11.427000	23.299811	0.000510	20.891471
328.097818	-2.992000	3.811800	-11.404000	23.324962	0.000511	20.880644
329.093168	-3.004700	3.811400	-11.451000	23.327404	0.000510	20.894944
330.095911	-2.983900	3.811800	-11.373000	23.321779	0.000514	20.887410
331.093599	-3.020200	3.809800	-11.505000	23.357959	0.000510	20.901385
332.096317	-3.007500	3.809600	-11.457000	23.360775	0.000515	20.898518
333.095368	-3.015200	3.809600	-11.485000	23.338042	0.000514	20.899916
334.095518	-3.017800	3.808500	-11.492000	23.333339	0.000513	20.894728
335.100145	-3.013200	3.809100	-11.477000	23.339018	0.000512	20.914643
336.096766	-2.983000	3.809000	-11.362000	23.343303	0.000514	20.908032
337.099443	-3.009100	3.809000	-11.461000	23.387426	0.000514	20.901995
338.103196	-3.032900	3.809500	-11.552000	23.393378	0.000513	20.901797
339.097982	-3.020200	3.808200	-11.501000	23.390767	0.000512	20.902499
340.098840	-2.994300	3.808900	-11.404000	23.375505	0.000514	20.914702
341.102697	-3.013200	3.807500	-11.471000	23.403443	0.000514	20.890550
342.099369	-3.007800	3.807700	-11.451000	23.418609	0.000515	20.908119
343.099632	-2.983300	3.807200	-11.356000	23.398069	0.000515	20.898438
344.102973	-2.987700	3.807400	-11.375000	23.397947	0.000515	20.907799
345.103990	-2.989100	3.807100	-11.378000	23.428946	0.000514	20.902834
346.100601	-2.979700	3.808000	-11.346000	23.432013	0.000517	20.914915
347.103951	-2.977800	3.807300	-11.337000	23.429526	0.000514	20.919535
348.099323	-2.989000	3.806600	-11.377000	23.467471	0.000517	20.910628
349.100386	-2.982200	3.808600	-11.356000	23.465705	0.000517	20.888946
350.101192	-2.994700	3.807600	-11.402000	23.477610	0.000515	20.888077
351.100883	-2.998000	3.806300	-11.411000	23.487420	0.000514	20.893168
352.100172	-2.983400	3.805800	-11.353000	23.488768	0.000515	20.894044
353.101433	-3.022200	3.805300	-11.500000	23.492428	0.000516	20.913359
354.100980	-3.008900	3.805400	-11.450000	23.505626	0.000516	20.910467
355.103068	-3.001600	3.805300	-11.420000	23.511678	0.000517	20.887139
356.101427	-3.018900	3.804500	-11.485000	23.539712	0.000517	20.891058
357.103323	-3.015500	3.804500	-11.472000	23.496747	0.000517	20.893508
358.101532	-3.007500	3.804600	-11.442000	23.521743	0.000519	20.909553
359.102752	-2.997900	3.803700	-11.402000	23.524336	0.000517	20.893662
360.107837	-2.956100	3.805700	-11.249000	23.504571	0.000517	20.902298
361.104302	-3.008500	3.802200	-11.437000	23.509504	0.000519	20.882115
362.106578	-2.995300	3.803500	-11.392000	23.547174	0.000520	20.895693
363.107878	-2.979600	3.803300	-11.332000	23.536842	0.000520	20.884863
364.103237	-3.005200	3.802500	-11.427000	23.537395	0.000517	20.902958
365.104601	-2.990700	3.802700	-11.372000	23.516706	0.000521	20.874635
366.107897	-2.994800	3.802800	-11.388000	23.517880	0.000519	20.884820
367.104736	-3.019500	3.801000	-11.476000	23.543128	0.000520	20.875043
368.108870	-2.999600	3.801700	-11.402000	23.548108	0.000518	20.877190
369.113462	-3.010900	3.801600	-11.445000	23.576018	0.000519	20.880986
370.105535	-3.016800	3.801100	-11.465000	23.549508	0.000520	20.878119
371.105934	-3.022500	3.801400	-11.489000	23.551476	0.000521	20.890049
372.107484	-3.000400	3.802200	-11.407000	23.588672	0.000521	20.874706
373.107167	-2.992500	3.801300	-11.374000	23.580136	0.000522	20.887485
374.107162	-3.011000	3.800400	-11.442000	23.578442	0.000521	20.877252
375.106551	-2.998500	3.799400	-11.392000	23.570082	0.000523	20.872665
376.106956	-2.995700	3.801300	-11.387000	23.583876	0.000522	20.864682
377.108373	-3.003400	3.799000	-11.409000	23.569518	0.000521	20.875893
378.108352	-3.004200	3.799500	-11.414000	23.599093	0.000522	20.856230
379.110004	-3.003100	3.799000	-11.408000	23.569721	0.000520	20.850019
380.108813	-2.992800	3.799900	-11.371000	23.624689	0.000523	20.874302
381.110240	-3.009000	3.798600	-11.429000	23.597086	0.000522	20.867493
382.109502	-2.998800	3.799000	-11.392000	23.601818	0.000523	20.852798
383.109112	-2.993500	3.798000	-11.368000	23.617753	0.000524	20.831789
384.110120	-2.986100	3.797400	-11.338000	23.609215	0.000522	20.867325
385.111145	-2.994700	3.797500	-11.371000	23.653055	0.000523	20.856747
386.111890	-2.992500	3.797900	-11.365000	23.652560	0.000523	20.830648
387.114421	-3.009000	3.796600	-11.422000	23.682062	0.000527	20.843154
388.112637	-3.021700	3.797400	-11.473000	23.666256	0.000524	20.861447
389.114552	-2.988900	3.796400	-11.346000	23.672556	0.000523	20.827461
390.115891	-3.001100	3.796600	-11.394000	23.672135	0.000527	20.862599
391.115478	-2.995600	3.797000	-11.374000	23.657223	0.000526	20.871357
392.116199	-2.995700	3.797100	-11.374000	23.688991	0.000525	20.829713
393.119416	-2.997800	3.795600	-11.378000	23.641899	0.000524	20.845563
394.120852	-3.012500	3.794000	-11.428000	23.640034	0.000526	20.844642
395.117608	-3.016700	3.794500	-11.446000	23.667716	0.000525	20.855798
396.122576	-2.991700	3.796200	-11.357000	23.676056	0.000523	20.863211
397.124220	-3.013200	3.793500	-11.430000	23.676185	0.000524	20.853857
398.118868	-3.019300	3.793500	-11.452000	23.692639	0.000523	20.849491
399.120818	-3.001900	3.793400	-11.387000	23.698419	0.000525	20.838691
400.121013	-3.009000	3.794300	-11.416000	23.696829	0.000526	20.818606
401.118692	-2.989100	3.793200	-11.337000	23.692400	0.000525	20.842139
402.129905	-2.990400	3.793900	-11.343000	23.688522	0.000525	20.824976
403.119429	-3.006900	3.793200	-11.405000	23.703285	0.000524	20.845466
404.121218	-2.998900	3.793100	-11.374000	23.730394	0.000526	20.842299
405.122150	-2.978800	3.793300	-11.299000	23.745654	0.000526	20.821563
406.119691	-3.015200	3.791800	-11.432000	23.736968	0.000525	20.837510
407.120249	-2.972700	3.793400	-11.276000	23.740754	0.000526	20.843203
408.131049	-2.981700	3.792000	-11.305000	23.747378	0.000527	20.818550
409.125474	-2.995100	3.792100	-11.357000	23.772868	0.000527	20.841736
410.119858	-2.981000	3.791700	-11.302000	23.785639	0.000526	20.821825
411.122379	-2.981800	3.791500	-11.305000	23.776283	0.000526	20.847531
412.122765	-3.013200	3.791900	-11.424000	23.752115	0.000527	20.821403
413.123441	-3.007200	3.790500	-11.397000	23.770413	0.000526	20.835482
414.125616	-2.996900	3.789900	-11.357000	23.823334	0.000526	20.815049
415.122838	-3.012100	3.790700	-11.416000	23.817711	0.000526	20.836438
416.123097	-3.003400	3.790500	-11.383000	23.834982	0.000527	20.829574
417.123452	-3.006200	3.790100	-11.393000	23.843076	0.000529	20.825836
418.126273	-3.008900	3.789500	-11.402000	23.878619	0.000525	20.832551
419.123275	-3.018700	3.789000	-11.437000	23.858687	0.000530	20.823945
420.123353	-3.001400	3.789300	-11.372000	23.885195	0.000527	20.822076
421.124393	-3.022500	3.789200	-11.452000	23.867328	0.000527	20.815066
422.123260	-2.998300	3.788000	-11.357000	23.849436	0.000528	20.797600
423.123277	-3.009000	3.787600	-11.396000	23.844286	0.000529	20.835584
424.122386	-3.005400	3.787600	-11.383000	23.854247	0.000527	20.808114
425.125001	-2.988600	3.788600	-11.322000	23.883194	0.000529	20.812957
426.125472	-2.977400	3.787200	-11.275000	23.861494	0.000529	20.803053
427.127922	-3.003600	3.786100	-11.371000	23.889347	0.000530	20.821024
428.128404	-3.015200	3.785500	-11.413000	23.867697	0.000530	20.801211
429.124776	-2.997100	3.788200	-11.353000	23.850902	0.000530	20.831786
430.125861	-2.981000	3.786300	-11.286000	23.852645	0.000529	20.814094
431.128282	-2.991600	3.786300	-11.327000	23.855089	0.000531	20.817493
432.124353	-2.983600	3.786500	-11.297000	23.882790	0.000531	20.817768
433.126976	-3.005900	3.784800	-11.376000	23.894686	0.000532	20.796980
434.128397	-2.998000	3.784500	-11.345000	23.910815	0.000532	20.805567
435.125149	-2.994900	3.784300	-11.333000	23.927241	0.000532	20.830099
436.128727	-3.009900	3.784500	-11.390000	23.938845	0.000533	20.801907
437.128969	-3.008800	3.784200	-11.385000	23.937801	0.000535	20.801333
438.127477	-3.019800	3.782800	-11.422000	23.940613	0.000531	20.797990
439.129787	-2.995800	3.784500	-11.337000	23.964829	0.000532	20.808997
440.128325	-2.995900	3.784000	-11.335000	23.942683	0.000534	20.801962
441.127283	-3.025200	3.782400	-11.441000	23.927926	0.000533	20.802811
442.132889	-3.019500	3.782200	-11.419000	23.920614	0.000532	20.829617
443.130757	-2.997400	3.783800	-11.341000	23.891696	0.000534	20.778335
444.127946	-2.990900	3.782100	-11.311000	23.917702	0.000535	20.792085
445.134319	-3.021300	3.782100	-11.426000	23.931121	0.000531	20.817394
446.132161	-2.971700	3.783000	-11.241000	23.938862	0.000533	20.805243
447.130391	-3.001100	3.780900	-11.346000	23.932320	0.000534	20.795363
448.131039	-3.003400	3.780500	-11.352000	23.964176	0.000534	20.825885
449.131410	-2.991900	3.780200	-11.309000	23.993295	0.000531	20.802457
450.128269	-3.000000	3.780100	-11.340000	23.978443	0.000532	20.811744
451.133821	-2.978400	3.779800	-11.257000	23.973591	0.000536	20.802611
452.133641	-3.020200	3.781000	-11.418000	23.989695	0.000534	20.796949
453.129344	-3.000700	3.780000	-11.342000	24.001141	0.000533	20.818859
454.136428	-2.990800	3.779700	-11.303000	23.987955	0.000533	20.788092
455.133018	-3.017000	3.779200	-11.400000	23.974744	0.000533	20.827474
456.130528	-2.996100	3.779400	-11.322000	23.934633	0.000533	20.805269
457.130177	-3.022100	3.777200	-11.414000	23.968405	0.000534	20.794091
458.130572	-3.005100	3.779400	-11.357000	24.018474	0.000534	20.792619
459.132451	-3.015400	3.778600	-11.392000	24.030198	0.000536	20.782565
460.134121	-3.014800	3.778000	-11.389000	24.036767	0.000534	20.800060
461.132303	-2.997300	3.778500	-11.325000	24.026418	0.000534	20.799638
462.137144	-2.998400	3.777100	-11.325000	24.012960	0.000536	20.794676
463.133601	-2.993900	3.777900	-11.309000	24.013606	0.000536	20.801962
464.133259	-2.979600	3.778400	-11.257000	24.023213	0.000535	20.775561
465.135219	-2.992000	3.777400	-11.301000	24.002138	0.000535	20.787616
466.133305	-2.997600	3.778100	-11.324000	24.027373	0.000535	20.780681
467.133131	-2.994400	3.776600	-11.308000	24.040388	0.000536	20.795156
468.134031	-2.999000	3.776300	-11.323000	24.007991	0.000536	20.781632
469.134168	-2.998600	3.775700	-11.320000	24.057808	0.000536	20.782280
470.135158	-3.002000	3.774600	-11.331000	24.071945	0.000536	20.804044
471.138402	-2.984300	3.775400	-11.266000	24.043627	0.000536	20.787498
472.134895	-2.991200	3.776400	-11.295000	24.054677	0.000535	20.779140
473.134841	-3.008200	3.774600	-11.354000	24.031442	0.000537	20.795667
474.144792	-3.004800	3.775300	-11.343000	24.047486	0.000535	20.794214
475.135768	-3.010400	3.774100	-11.359000	24.049927	0.000535	20.790498
476.136615	-3.016000	3.773600	-11.380000	24.046123	0.000537	20.790476
477.137426	-3.002300	3.774400	-11.331000	24.043784	0.000536	20.805200
478.138687	-2.999200	3.773700	-11.318000	24.067250	0.000536	20.795069
479.137550	-3.003200	3.773400	-11.332000	24.083526	0.000537	20.791951
480.136972	-2.986900	3.773800	-11.271000	24.102260	0.000537	20.782292
481.143382	-2.990500	3.772400	-11.281000	24.115204	0.000536	20.789109
482.138561	-3.011300	3.770700	-11.353000	24.128639	0.000537	20.795946
483.138838	-2.997600	3.771700	-11.305000	24.118365	0.000537	20.804608
484.139896	-2.978000	3.771900	-11.232000	24.095175	0.000536	20.784668
485.139249	-2.999200	3.771500	-11.311000	24.105579	0.000537	20.783249
486.139138	-2.997900	3.771200	-11.305000	24.097814	0.000537	20.760762
487.140648	-3.004200	3.770400	-11.327000	24.084802	0.000536	20.776161
488.139232	-2.979700	3.772500	-11.240000	24.108097	0.000535	20.779136
489.143615	-3.002900	3.771500	-11.325000	24.124619	0.000536	20.791914
490.140408	-2.992800	3.770900	-11.285000	24.130987	0.000536	20.767955
491.139970	-3.008000	3.770300	-11.340000	24.140442	0.000537	20.772696
492.140346	-3.026800	3.769000	-11.408000	24.106580	0.000536	20.769080
493.144452	-3.010400	3.770100	-11.348000	24.114543	0.000537	20.788920
494.143920	-3.002000	3.769800	-11.316000	24.141317	0.000536	20.790643
495.140656	-2.994000	3.769500	-11.285000	24.109320	0.000537	20.759026
496.142773	-3.001700	3.768800	-11.312000	24.163588	0.000535	20.788799
497.143179	-3.004700	3.768600	-11.323000	24.208772	0.000535	20.766789
498.140366	-2.983000	3.767900	-11.239000	24.217529	0.000536	20.767037
499.143498	-3.008300	3.767500	-11.333000	24.254153	0.000536	20.778643
500.147912	-3.002100	3.768700	-11.313000	24.258058	0.000535	20.757904
501.140720	-3.012600	3.767500	-11.349000	24.269078	0.000536	20.767536
502.142215	-2.987300	3.767800	-11.255000	24.226359	0.000538	20.773998
503.143318	-3.018900	3.766300	-11.369000	24.171007	0.000535	20.776325
504.143503	-2.998000	3.766300	-11.290000	24.173142	0.000536	20.777993
505.142392	-2.993500	3.767400	-11.277000	24.175657	0.000535	20.782412
506.143976	-2.997500	3.767100	-11.291000	24.180458	0.000535	20.757356
507.152251	-2.984700	3.766100	-11.240000	24.177767	0.000538	20.780261
508.140409	-2.988600	3.766500	-11.256000	24.167991	0.000537	20.769507
509.144055	-2.994900	3.764500	-11.274000	24.213793	0.000536	20.772774
510.143565	-2.990400	3.765300	-11.258000	24.239116	0.000537	20.757396
511.142117	-2.999000	3.764700	-11.289000	24.276089	0.000536	20.771723
512.145576	-2.995100	3.764800	-11.275000	24.294897	0.000534	20.768779
513.142887	-2.993600	3.764400	-11.268000	24.278424	0.000536	20.770273
514.143454	-2.999800	3.764200	-11.291000	24.279570	0.000534	20.792286
515.144925	-3.000400	3.763600	-11.291000	24.280664	0.000535	20.771097
516.147068	-2.996700	3.763400	-11.276000	24.267453	0.000536	20.756897
517.144526	-2.990100	3.763500	-11.252000	24.254440	0.000537	20.760914
518.145699	-2.994700	3.763400	-11.269000	24.272156	0.000535	20.781055
519.149262	-3.013300	3.762800	-11.336000	24.259242	0.000535	20.767152
520.145682	-3.002600	3.762300	-11.294000	24.260610	0.000534	20.765680
521.145181	-3.007900	3.762600	-11.316000	24.267824	0.000535	20.770546
522.146398	-3.009800	3.762600	-11.324000	24.306337	0.000537	20.770298
523.146635	-3.010900	3.762600	-11.328000	24.314870	0.000537	20.779806
524.147868	-2.974000	3.762000	-11.187000	24.287529	0.000536	20.774190
525.146810	-2.977300	3.761900	-11.200000	24.283723	0.000536	20.776536
526.147434	-2.987100	3.761200	-11.235000	24.285091	0.000535	20.773168
527.147670	-2.988600	3.762200	-11.242000	24.291657	0.000535	20.764580
528.150276	-3.016700	3.760300	-11.343000	24.257774	0.000535	20.741497
529.147935	-3.005000	3.760900	-11.300000	24.285613	0.000535	20.766105
530.150111	-2.986700	3.760500	-11.231000	24.308555	0.000538	20.768255
531.148163	-3.009600	3.759500	-11.314000	24.345822	0.000535	20.764388
532.148963	-3.016500	3.758000	-11.335000	24.357762	0.000535	20.758347
533.150462	-2.983600	3.758800	-11.214000	24.343187	0.000536	20.768857
534.150762	-2.992600	3.758300	-11.246000	24.337240	0.000533	20.774745
535.154121	-2.991100	3.760100	-11.245000	24.330354	0.000535	20.760724
536.149259	-3.015100	3.756900	-11.327000	24.309702	0.000536	20.759922
537.150597	-2.974600	3.759300	-11.182000	24.335973	0.000535	20.750240
538.155112	-3.007900	3.757700	-11.302000	24.352022	0.000534	20.756382
539.151867	-2.994400	3.757800	-11.251000	24.372921	0.000535	20.759804
540.154549	-2.992600	3.756900	-11.242000	24.383990	0.000536	20.778495
541.153144	-2.982500	3.757700	-11.206000	24.373196	0.000534	20.765770
542.153126	-2.993600	3.757500	-11.248000	24.400758	0.000537	20.756909
543.152836	-3.000000	3.756800	-11.269000	24.346878	0.000535	20.740790
544.152957	-2.993400	3.757300	-11.247000	24.349467	0.000535	20.746707
545.151947	-3.009100	3.756200	-11.301000	24.361234	0.000537	20.758511
546.153934	-2.989000	3.755300	-11.224000	24.398425	0.000534	20.749827
547.155293	-3.020800	3.754000	-11.339000	24.369575	0.000534	20.737006
548.155726	-2.969300	3.757400	-11.156000	24.355346	0.000537	20.760191
549.154726	-2.989100	3.755200	-11.224000	24.380273	0.000536	20.744893
550.160626	-3.007400	3.754400	-11.290000	24.370622	0.000535	20.757024
551.159226	-3.002800	3.754100	-11.271000	24.349455	0.000538	20.752858
552.164641	-2.998800	3.754800	-11.260000	24.368586	0.000537	20.760197
553.159069	-2.981600	3.753900	-11.192000	24.354879	0.000535	20.753084
554.157780	-3.006500	3.753500	-11.285000	24.352522	0.000538	20.752142
555.161117	-3.012800	3.753000	-11.306000	24.381478	0.000537	20.750844
556.158147	-2.998100	3.753100	-11.251000	24.392871	0.000537	20.744729
557.160127	-2.999600	3.753700	-11.259000	24.401307	0.000536	20.763625
558.168235	-2.992500	3.752800	-11.229000	24.390665	0.000537	20.750103
559.159713	-2.991700	3.751900	-11.223000	24.405295	0.000533	20.729692
560.161224	-2.994500	3.752800	-11.237000	24.391366	0.000536	20.758867
561.160964	-3.004800	3.750800	-11.269000	24.437088	0.000534	20.763011
562.161143	-2.988000	3.752400	-11.212000	24.466192	0.000536	20.753329
563.161078	-2.999100	3.751100	-11.249000	24.459156	0.000535	20.759546
564.160457	-2.992300	3.752300	-11.227000	24.474356	0.000535	20.753933
565.163738	-3.005000	3.750200	-11.269000	24.491694	0.000536	20.741930
566.171269	-2.996800	3.750200	-11.238000	24.494706	0.000535	20.746375
567.173049	-3.012400	3.749200	-11.292000	24.489532	0.000534	20.764418
568.164982	-3.011600	3.748900	-11.289000	24.474983	0.000537	20.755511
569.161172	-2.980800	3.750100	-11.178000	24.461080	0.000534	20.759106
570.162349	-3.014800	3.749900	-11.304000	24.435114	0.000535	20.734951
571.163846	-3.005900	3.749000	-11.267000	24.418671	0.000534	20.734102
572.161172	-3.010400	3.749500	-11.287000	24.431836	0.000533	20.749681
573.160483	-3.005500	3.749000	-11.266000	24.430863	0.000533	20.731635
574.162406	-3.003600	3.748800	-11.259000	24.432958	0.000535	20.759341
575.161540	-3.012900	3.748100	-11.292000	24.484028	0.000535	20.735187
576.164654	-3.007600	3.748100	-11.272000	24.487111	0.000537	20.754401
577.161281	-3.009800	3.747700	-11.278000	24.487562	0.000535	20.742525
578.161232	-3.008000	3.748100	-11.273000	24.450423	0.000536	20.748888
579.163987	-3.004900	3.747900	-11.261000	24.458961	0.000533	20.745600
580.163468	-3.019300	3.746700	-11.311000	24.448341	0.000535	20.730677
581.163225	-3.022100	3.746700	-11.322000	24.466254	0.000535	20.756236
582.163677	-3.017400	3.746500	-11.304000	24.454439	0.000535	20.753391
583.162601	-3.005300	3.745700	-11.255000	24.465439	0.000534	20.747831
584.164712	-3.010300	3.745800	-11.275000	24.485335	0.000535	20.725592
585.163314	-3.001000	3.746200	-11.241000	24.487278	0.000533	20.725644
586.163213	-2.997800	3.746700	-11.231000	24.500961	0.000533	20.739374
587.166078	-3.013300	3.745400	-11.285000	24.486759	0.000535	20.741246
588.163516	-2.996500	3.745100	-11.222000	24.510219	0.000534	20.745343
589.166774	-2.979800	3.745400	-11.159000	24.518104	0.000536	20.740452
590.164998	-2.998400	3.745800	-11.230000	24.514277	0.000534	20.757476
591.167098	-2.986300	3.745100	-11.183000	24.553801	0.000534	20.732646
592.164521	-3.018100	3.743600	-11.298000	24.544677	0.000535	20.753838
593.166380	-2.995100	3.742800	-11.209000	24.571194	0.000532	20.735398
594.171834	-2.986500	3.742900	-11.178000	24.594025	0.000532	20.745979
595.166686	-2.994200	3.743300	-11.208000	24.558811	0.000532	20.750950
596.168286	-3.017700	3.741300	-11.288000	24.545011	0.000535	20.738051
597.173636	-3.000400	3.742800	-11.229000	24.528397	0.000532	20.747460
598.166551	-3.018900	3.741100	-11.294000	24.484749	0.000533	20.745393
599.166896	-3.003500	3.742400	-11.239000	24.489450	0.000532	20.738256
600.169488	-3.006400	3.740500	-11.245000	24.503384	0.000532	20.746072
601.166912	-3.008800	3.741300	-11.255000	24.488038	0.000532	20.718821
602.167708	-3.000100	3.741800	-11.225000	24.493191	0.000532	20.753389
603.172632	-2.988000	3.740100	-11.174000	24.545722	0.000533	20.732600
604.171127	-2.988300	3.741200	-11.179000	24.562738	0.000534	20.737819
605.173213	-2.996600	3.742000	-11.212000	24.548144	0.000533	20.751626
606.174743	-3.027400	3.738800	-11.318000	24.555705	0.000534	20.753049
607.172675	-2.973200	3.741400	-11.122000	24.609132	0.000531	20.770147
608.170958	-2.992800	3.740700	-11.194000	24.652331	0.000532	20.727195
609.174514	-3.017900	3.738300	-11.281000	24.652785	0.000531	20.744248
610.169651	-3.006100	3.739900	-11.242000	24.655000	0.000530	20.738409
611.171325	-3.003300	3.739800	-11.231000	24.634458	0.000530	20.731073
612.173577	-2.999500	3.739400	-11.215000	24.610161	0.000532	20.728030
613.171135	-3.011800	3.738500	-11.258000	24.609420	0.000533	20.716380
614.171809	-3.017700	3.738300	-11.280000	24.617030	0.000532	20.750570
615.172646	-3.010100	3.739200	-11.255000	24.609572	0.000531	20.764898
616.176476	-2.979900	3.738500	-11.140000	24.597264	0.000532	20.743064
617.175841	-3.021300	3.737200	-11.290000	24.593832	0.000531	20.743415
618.176794	-2.985900	3.738500	-11.162000	24.571700	0.000530	20.757243
619.178175	-2.989300	3.738100	-11.173000	24.515985	0.000531	20.755396
620.175494	-3.025900	3.736400	-11.305000	24.488402	0.000529	20.754274
621.175482	-3.018000	3.736600	-11.276000	24.491664	0.000530	20.732416
622.182068	-2.995100	3.736600	-11.191000	24.537057	0.000530	20.761365
623.176361	-3.010700	3.735800	-11.246000	24.607123	0.000532	20.749164
624.182598	-3.024300	3.736600	-11.300000	24.625002	0.000530	20.746716
625.181331	-2.999900	3.734900	-11.203000	24.648855	0.000530	20.749313
626.176213	-3.004100	3.735400	-11.222000	24.668028	0.000531	20.759069
627.176040	-3.011200	3.736800	-11.251000	24.669170	0.000533	20.755000
628.180400	-3.003000	3.734600	-11.214000	24.633984	0.000530	20.750512
629.175596	-2.993900	3.735200	-11.181000	24.631473	0.000532	20.753683
630.177903	-2.989800	3.734300	-11.164000	24.618217	0.000533	20.758874
631.181957	-2.978700	3.735100	-11.124000	24.591754	0.000531	20.770728
632.175912	-2.983700	3.733400	-11.138000	24.620033	0.000531	20.749316
633.181845	-3.003700	3.734200	-11.216000	24.651817	0.000532	20.766036
634.181135	-2.999600	3.734000	-11.199000	24.627541	0.000531	20.779136
635.178704	-3.000900	3.734300	-11.205000	24.606027	0.000533	20.753280
636.179691	-3.002400	3.732200	-11.205000	24.646644	0.000531	20.785027
637.179155	-2.965900	3.732700	-11.069000	24.617992	0.000532	20.752957
638.178670	-2.984800	3.733300	-11.142000	24.645695	0.000533	20.799723
639.178731	-2.992400	3.731300	-11.164000	24.658880	0.000532	20.767908
640.178974	-2.982100	3.732500	-11.130000	24.614631	0.000532	20.760491
641.183248	-3.004500	3.731900	-11.212000	24.622816	0.000531	20.778187
642.180256	-2.997100	3.731700	-11.183000	24.607895	0.000533	20.751361
643.181261	-3.001800	3.730800	-11.199000	24.607991	0.000531	20.764260
644.183468	-3.007400	3.729400	-11.215000	24.610780	0.000530	20.782232
645.181444	-3.019300	3.730500	-11.262000	24.625305	0.000531	20.771202
646.182188	-2.988500	3.731800	-11.152000	24.675588	0.000530	20.771397
647.182011	-3.003700	3.731000	-11.205000	24.704513	0.000531	20.788569
648.178421	-3.000000	3.730200	-11.189000	24.699192	0.000531	20.771850
649.180492	-3.010200	3.729100	-11.224000	24.732641	0.000530	20.770328
650.181447	-3.032900	3.729200	-11.309000	24.719037	0.000530	20.763789
651.186173	-3.023400	3.728400	-11.272000	24.670517	0.000530	20.760618
652.183913	-3.011400	3.729200	-11.229000	24.712969	0.000529	20.767182
653.186712	-3.025800	3.728900	-11.282000	24.718639	0.000529	20.766708
654.181512	-3.003800	3.728900	-11.199000	24.661965	0.000529	20.759150
655.181403	-3.008800	3.728000	-11.216000	24.665894	0.000530	20.776368
656.185846	-3.010600	3.726500	-11.218000	24.676166	0.000530	20.772925
657.183454	-3.009800	3.727900	-11.220000	24.697728	0.000529	20.773226
658.184776	-3.008600	3.727700	-11.214000	24.662438	0.000530	20.777642
659.181470	-3.007000	3.726300	-11.204000	24.706805	0.000528	20.760997
660.187771	-2.992100	3.726600	-11.149000	24.682238	0.000530	20.775225
661.186244	-3.003400	3.726900	-11.193000	24.711057	0.000529	20.781860
662.184535	-2.994300	3.727700	-11.161000	24.729587	0.000528	20.771531
663.185638	-3.007600	3.726100	-11.206000	24.751420	0.000527	20.770207
664.189686	-3.010100	3.725800	-11.215000	24.747690	0.000527	20.760300
665.186098	-3.011800	3.725700	-11.220000	24.725035	0.000528	20.781662
666.186357	-3.003700	3.725600	-11.190000	24.735504	0.000525	20.791219
667.190022	-3.003200	3.725700	-11.188000	24.733861	0.000528	20.773923
668.188923	-3.017400	3.724100	-11.235000	24.698028	0.000526	20.794864
669.188610	-2.996100	3.726000	-11.162000	24.720137	0.000527	20.799032
670.194024	-2.999300	3.726000	-11.175000	24.724612	0.000525	20.792617
671.188114	-3.014100	3.723500	-11.222000	24.717577	0.000525	20.804524
672.191234	-3.035300	3.724000	-11.303000	24.756519	0.000525	20.780066
673.190200	-3.005900	3.723800	-11.193000	24.747267	0.000525	20.788799
674.191241	-3.017800	3.724300	-11.239000	24.798767	0.000525	20.788799
675.190030	-3.009800	3.722800	-11.204000	24.809414	0.000527	20.775777
676.192896	-3.014500	3.722200	-11.220000	24.797526	0.000527	20.791346
677.196321	-2.989500	3.723400	-11.130000	24.810458	0.000526	20.801955
678.190840	-2.995100	3.723200	-11.150000	24.806929	0.000524	20.781817
679.195137	-2.999300	3.723500	-11.167000	24.779550	0.000524	20.795592
680.195292	-2.999900	3.721200	-11.162000	24.760454	0.000524	20.805825
681.198111	-3.007800	3.722100	-11.194000	24.783732	0.000526	20.782719
682.191293	-2.981300	3.722800	-11.098000	24.814417	0.000523	20.796919
683.196021	-3.002500	3.721900	-11.174000	24.812802	0.000525	20.790557
684.193219	-3.000400	3.721600	-11.164000	24.834310	0.000521	20.802184
685.192197	-3.009100	3.721300	-11.197000	24.817700	0.000524	20.805429
686.191986	-3.026200	3.719600	-11.254000	24.815563	0.000524	20.792853
687.192561	-2.991400	3.721300	-11.131000	24.826581	0.000524	20.806756
688.191803	-2.997500	3.720000	-11.150000	24.825611	0.000521	20.799618
689.191930	-2.997000	3.718900	-11.144000	24.822953	0.000523	20.808330
690.192113	-2.982400	3.721200	-11.097000	24.774585	0.000521	20.777807
691.199969	-3.002000	3.720700	-11.168000	24.777571	0.000524	20.792184
692.194039	-2.972700	3.719000	-11.054000	24.801692	0.000520	20.802640
693.194142	-2.995700	3.719500	-11.142000	24.775463	0.000520	20.803344
694.195686	-2.989600	3.719300	-11.118000	24.816317	0.000520	20.795506
695.193373	-3.008500	3.717500	-11.183000	24.829697	0.000522	20.800874
696.194973	-3.025500	3.716000	-11.241000	24.843948	0.000520	20.794314
697.196452	-2.999200	3.717100	-11.148000	24.859288	0.000520	20.812554
698.196006	-2.988300	3.719000	-11.112000	24.843183	0.000518	20.792123
699.194880	-3.009900	3.716200	-11.184000	24.828364	0.000519	20.807122
700.199811	-3.002200	3.716900	-11.157000	24.841515	0.000520	20.803726
701.197543	-3.024900	3.715100	-11.236000	24.826150	0.000520	20.819125
702.197886	-3.006800	3.716800	-11.175000	24.804343	0.000518	20.792972
703.197515	-3.011600	3.716300	-11.190000	24.780747	0.000519	20.808173
704.198443	-3.017900	3.715900	-11.213000	24.770723	0.000519	20.818502
705.198898	-2.996500	3.715500	-11.133000	24.818594	0.000520	20.816757
706.196677	-3.015000	3.716800	-11.205000	24.818372	0.000518	20.793301
707.198504	-3.015100	3.715600	-11.202000	24.827722	0.000520	20.814064
708.213581	-3.008600	3.714900	-11.176000	24.850227	0.000517	20.809150
709.199340	-2.990700	3.715200	-11.111000	24.872308	0.000519	20.798120
710.205596	-3.012800	3.715500	-11.193000	24.886132	0.000519	20.823374
711.201839	-3.009800	3.714200	-11.178000	24.934745	0.000518	20.823328
712.201741	-3.011900	3.713000	-11.182000	24.946453	0.000520	20.794776
713.202224	-2.997900	3.714100	-11.133000	24.933500	0.000519	20.834406
714.202246	-2.981500	3.713900	-11.072000	24.920971	0.000519	20.818512
715.198658	-3.003300	3.713400	-11.152000	24.886160	0.000518	20.806333
716.200675	-2.985400	3.714100	-11.087000	24.855353	0.000519	20.836105
717.203540	-2.982800	3.714000	-11.077000	24.856079	0.000517	20.819290
718.207267	-3.010900	3.712100	-11.176000	24.850283	0.000516	20.822482
719.201038	-2.998700	3.711600	-11.128000	24.864604	0.000519	20.828320
720.205246	-2.992600	3.713600	-11.111000	24.886018	0.000518	20.830372
721.208756	-2.985800	3.712700	-11.084000	24.889322	0.000517	20.844119
722.205238	-3.002100	3.712200	-11.144000	24.926075	0.000516	20.810833
723.203841	-3.021000	3.710700	-11.209000	24.874803	0.000518	20.795883
724.206656	-3.006500	3.711200	-11.157000	24.860454	0.000517	20.817043
725.203951	-3.024700	3.711100	-11.224000	24.876471	0.000516	20.812730
726.202650	-2.995600	3.711800	-11.119000	24.902454	0.000517	20.819842
727.206385	-3.001900	3.710800	-11.138000	24.914589	0.000516	20.826331
728.203115	-3.003200	3.709900	-11.140000	24.933711	0.000518	20.850739
729.205178	-3.000100	3.710500	-11.131000	24.962126	0.000518	20.825680
730.204518	-3.004200	3.710600	-11.146000	24.959270	0.000515	20.819495
731.205288	-2.993300	3.709400	-11.102000	25.010541	0.000516	20.850094
732.206246	-2.998300	3.709500	-11.122000	25.029059	0.000515	20.844500
733.211119	-2.977900	3.710600	-11.048000	25.064369	0.000514	20.845332
734.206434	-2.998700	3.708700	-11.120000	25.030680	0.000515	20.824792
735.204530	-3.014700	3.708300	-11.178000	25.007584	0.000514	20.840014
736.203874	-3.004600	3.709200	-11.144000	24.954232	0.000514	20.818231
737.211119	-2.996200	3.708800	-11.112000	24.927827	0.000516	20.826341
738.215181	-3.023700	3.707200	-11.209000	24.955751	0.000515	20.831136
739.207369	-2.994200	3.707500	-11.099000	24.952296	0.000515	20.832884
740.210712	-3.004600	3.708100	-11.141000	24.873054	0.000515	20.843913
741.208949	-3.001900	3.708400	-11.131000	24.906973	0.000514	20.828170
742.208218	-3.007500	3.707400	-11.148000	24.892751	0.000512	20.864629
743.209549	-3.014500	3.707400	-11.175000	24.902527	0.000513	20.839829
744.207275	-2.989500	3.707400	-11.082000	24.916576	0.000511	20.851558
745.206828	-2.996900	3.706900	-11.108000	24.926849	0.000513	20.845748
746.215419	-2.999600	3.707600	-11.121000	24.918268	0.000513	20.833817
747.207909	-2.984500	3.707200	-11.063000	24.948679	0.000512	20.838261
748.207009	-3.020300	3.704400	-11.187000	24.966809	0.000512	20.857881
749.210312	-2.997900	3.706000	-11.109000	24.951446	0.000512	20.837720
750.206497	-2.990100	3.705000	-11.077000	24.954604	0.000512	20.847528
751.207564	-3.011000	3.705000	-11.155000	24.953141	0.000512	20.849852
752.207488	-3.004300	3.705800	-11.131000	24.957368	0.000514	20.841767
753.211025	-3.014200	3.706500	-11.171000	24.906500	0.000510	20.852350
754.209007	-3.019200	3.705200	-11.185000	24.895659	0.000511	20.840522
755.212153	-2.998800	3.704100	-11.107000	24.955256	0.000511	20.866199
756.210843	-3.002200	3.704500	-11.120000	24.977490	0.000513	20.836360
757.209413	-2.984400	3.704700	-11.055000	24.978611	0.000512	20.844598
758.215062	-3.009500	3.704200	-11.146000	24.991715	0.000513	20.839732
759.211502	-3.010100	3.704100	-11.149000	25.013173	0.000512	20.848468
760.211379	-3.007000	3.703000	-11.135000	24.993111	0.000510	20.848719
761.210123	-2.998200	3.703100	-11.102000	24.976852	0.000511	20.845676
762.212337	-3.003500	3.702700	-11.121000	24.996273	0.000511	20.861850
763.210889	-2.993900	3.702500	-11.084000	24.990823	0.000509	20.874397
764.209867	-3.003200	3.701900	-11.117000	24.976284	0.000508	20.856960
765.215480	-2.991900	3.701500	-11.074000	24.949361	0.000509	20.857438
766.211071	-3.004500	3.702700	-11.123000	24.942028	0.000510	20.859086
767.212107	-3.017900	3.700300	-11.167000	24.916987	0.000507	20.846756
768.211728	-2.985900	3.701000	-11.050000	24.913984	0.000509	20.846111
769.211337	-3.007600	3.700700	-11.129000	24.911695	0.000508	20.866573
770.213114	-3.014600	3.699800	-11.153000	24.914756	0.000509	20.873912
771.212440	-2.985500	3.700400	-11.047000	24.928332	0.000508	20.879477
772.221298	-3.007800	3.699500	-11.126000	24.922071	0.000507	20.874616
773.214016	-2.988700	3.701500	-11.062000	24.923636	0.000509	20.880928
774.214427	-2.985900	3.701000	-11.048000	24.987286	0.000507	20.876063
775.213729	-2.999000	3.698500	-11.091000	25.000192	0.000508	20.870051
776.213736	-2.978200	3.700000	-11.018000	25.003749	0.000507	20.851811
777.215046	-2.989200	3.699500	-11.057000	25.030198	0.000509	20.865083
778.213989	-2.989700	3.699000	-11.058000	25.019637	0.000508	20.883404
779.213696	-3.010000	3.698700	-11.132000	25.020487	0.000506	20.866714
780.218745	-3.015100	3.698100	-11.149000	25.055240	0.000505	20.862720
781.215769	-3.011000	3.698200	-11.134000	25.002681	0.000508	20.854532
782.215792	-3.001500	3.698600	-11.100000	25.046918	0.000506	20.848676
783.215417	-2.992300	3.699200	-11.068000	25.069640	0.000507	20.861053
784.215397	-3.008900	3.696900	-11.122000	25.087614	0.000506	20.890473
785.214982	-3.013900	3.697600	-11.144000	25.062259	0.000506	20.874506
786.216158	-3.029000	3.696900	-11.197000	25.068998	0.000506	20.878426
787.214948	-2.993100	3.697500	-11.066000	25.081530	0.000507	20.868720
788.219640	-3.036900	3.695200	-11.220000	25.079915	0.000505	20.890332
789.213588	-2.990800	3.697200	-11.057000	25.098985	0.000506	20.853527
790.216431	-3.007800	3.696200	-11.116000	25.137769	0.000506	20.873019
791.219731	-3.012000	3.695700	-11.130000	25.109256	0.000505	20.861941
792.214958	-3.003900	3.696100	-11.102000	25.076291	0.000504	20.868678
793.215451	-3.012200	3.696200	-11.133000	25.054814	0.000503	20.867033
794.215793	-3.026700	3.694800	-11.182000	24.997139	0.000507	20.881210
795.216692	-2.962000	3.696400	-10.948000	24.997238	0.000507	20.889843
796.217782	-3.017500	3.693600	-11.144000	25.027022	0.000504	20.888920
797.215230	-3.000600	3.695100	-11.086000	25.082830	0.000505	20.858647
798.221987	-2.993400	3.694200	-11.058000	25.085026	0.000506	20.876971
799.217841	-2.992400	3.694300	-11.055000	25.086193	0.000504	20.876246
800.223317	-3.002500	3.694300	-11.092000	25.047235	0.000502	20.872701
801.220285	-2.989700	3.693700	-11.042000	25.051835	0.000504	20.881111
802.221159	-3.000500	3.692500	-11.078000	25.063915	0.000503	20.892762
803.220527	-2.984100	3.694500	-11.024000	25.076672	0.000502	20.892292
804.221813	-2.988400	3.694100	-11.038000	25.038186	0.000502	20.883057
805.220688	-3.008300	3.691300	-11.103000	25.050869	0.000500	20.904796
806.220819	-2.978800	3.694300	-11.004000	25.054126	0.000501	20.883885
807.223478	-3.005900	3.691800	-11.095000	25.091216	0.000501	20.891719
808.222477	-2.996100	3.692900	-11.064000	25.128928	0.000499	20.879791
809.222671	-3.020200	3.691800	-11.149000	25.147123	0.000501	20.883832
810.223994	-3.005500	3.691500	-11.093000	25.162516	0.000502	20.882689
811.224358	-2.999800	3.691400	-11.072000	25.207134	0.000502	20.899032
812.229720	-2.990400	3.691200	-11.037000	25.192690	0.000501	20.873154
813.224362	-3.025300	3.689500	-11.161000	25.185161	0.000501	20.912533
814.225088	-3.007100	3.689400	-11.093000	25.130920	0.000501	20.889376
815.225380	-3.008700	3.690000	-11.101000	25.154437	0.000500	20.894492
816.227329	-2.995500	3.690200	-11.053000	25.174200	0.000498	20.872609
817.226000	-3.009900	3.689700	-11.105000	25.164359	0.000497	20.875531
818.225775	-3.017400	3.689100	-11.130000	25.111882	0.000501	20.897765
819.226894	-3.015800	3.687700	-11.120000	25.110737	0.000497	20.883340
820.229474	-3.019700	3.687900	-11.136000	25.146612	0.000496	20.883793
821.228648	-3.016500	3.688000	-11.124000	25.136221	0.000496	20.875259
822.227726	-2.997800	3.688100	-11.056000	25.101449	0.000496	20.897249
823.229796	-3.024600	3.687100	-11.151000	25.082354	0.000495	20.878556
824.234907	-2.995100	3.688900	-11.047000	25.062516	0.000496	20.886142
825.228425	-3.028600	3.687200	-11.166000	25.089467	0.000496	20.872421
826.228779	-2.992500	3.688700	-11.037000	25.098565	0.000495	20.897199
827.233942	-3.010600	3.687700	-11.101000	25.115076	0.000496	20.875368
828.238344	-2.996700	3.688400	-11.053000	25.166583	0.000498	20.861644
829.228553	-3.012700	3.686300	-11.105000	25.187963	0.000497	20.893063
830.233040	-3.001400	3.687700	-11.067000	25.208868	0.000494	20.875644
831.233073	-3.015500	3.687300	-11.118000	25.167827	0.000495	20.866686
832.231443	-3.030700	3.685500	-11.168000	25.174171	0.000494	20.868787
833.230836	-3.014800	3.684900	-11.108000	25.142076	0.000494	20.885877
834.233982	-3.003700	3.686600	-11.072000	25.084878	0.000492	20.855487
835.231740	-3.014300	3.684700	-11.105000	25.052660	0.000493	20.875775
836.230275	-3.021400	3.685200	-11.133000	25.035359	0.000492	20.862677
837.234891	-2.982100	3.686500	-10.993000	25.063901	0.000492	20.862404
838.231544	-2.998800	3.684400	-11.048000	25.057986	0.000493	20.855519
839.231588	-2.991900	3.684300	-11.022000	25.064003	0.000492	20.873886
840.235785	-2.997200	3.684600	-11.042000	25.101219	0.000491	20.867623
841.233181	-2.995600	3.683800	-11.034000	25.103334	0.000491	20.875436
842.232660	-3.010700	3.683200	-11.088000	25.129390	0.000494	20.857023
843.237620	-2.999800	3.684100	-11.050000	25.160961	0.000492	20.855526
844.235653	-2.975300	3.683800	-10.959000	25.158723	0.000491	20.865132
845.234197	-3.003900	3.684300	-11.066000	25.149030	0.000490	20.855402
846.241202	-3.017800	3.681900	-11.110000	25.147962	0.000489	20.860968
847.235008	-3.005700	3.682400	-11.067000	25.168476	0.000491	20.857380
848.235682	-3.009700	3.682400	-11.082000	25.181076	0.000493	20.865288
849.240855	-3.001400	3.682100	-11.050000	25.128653	0.000489	20.835421
850.239062	-2.992600	3.681400	-11.016000	25.114410	0.000489	20.856209
851.235448	-3.010000	3.680500	-11.077000	25.074709	0.000488	20.855710
852.236622	-3.003200	3.681900	-11.056000	25.041126	0.000489	20.858983
853.239549	-3.009400	3.681300	-11.077000	25.033596	0.000489	20.865175
854.237865	-2.998400	3.680400	-11.035000	25.037125	0.000488	20.834579
855.237273	-3.013000	3.681000	-11.088000	25.088667	0.000489	20.868299
856.238561	-3.009300	3.679800	-11.073000	25.100768	0.000486	20.833507
857.239327	-2.999600	3.679600	-11.036000	25.138463	0.000489	20.844795
858.239918	-2.996100	3.680800	-11.027000	25.104879	0.000488	20.866555
859.243721	-3.019400	3.680500	-11.112000	25.124145	0.000487	20.837534
860.239697	-3.009700	3.679300	-11.073000	25.109059	0.000486	20.861269
861.245496	-2.993300	3.679500	-11.013000	25.099387	0.000486	20.846818
862.246629	-2.981000	3.679400	-10.967000	25.111995	0.000484	20.851889
863.242074	-3.004100	3.679200	-11.052000	25.174369	0.000487	20.834848
864.241652	-2.982500	3.678900	-10.971000	25.185934	0.000484	20.844087
865.245738	-2.997000	3.676500	-11.018000	25.178648	0.000488	20.846256
866.239267	-3.001200	3.678800	-11.040000	25.202193	0.000484	20.844763
867.240359	-2.989100	3.678300	-10.994000	25.223918	0.000485	20.831013
868.245540	-3.001800	3.677400	-11.038000	25.193424	0.000484	20.829796
869.243657	-2.987400	3.677900	-10.986000	25.154099	0.000484	20.828724
870.243802	-2.994200	3.677600	-11.011000	25.126405	0.000481	20.830794
871.240469	-2.999600	3.677100	-11.029000	25.108136	0.000483	20.823834
872.239631	-2.960800	3.676800	-10.885000	25.129119	0.000481	20.825458
873.239518	-2.998700	3.677300	-11.026000	25.097978	0.000483	20.830706
874.239726	-2.997200	3.675700	-11.016000	25.133324	0.000481	20.843904
875.243142	-2.980800	3.677500	-10.961000	25.125027	0.000481	20.835100
876.240696	-3.008700	3.675200	-11.057000	25.128757	0.000482	20.838844
877.248597	-2.990300	3.675000	-10.989000	25.114964	0.000480	20.843490
878.246245	-2.984900	3.675900	-10.970000	25.146737	0.000481	20.843617
879.241853	-2.996000	3.676900	-11.015000	25.191334	0.000482	20.827698
880.240873	-3.018700	3.673900	-11.089000	25.226682	0.000480	20.839478
881.243456	-3.013900	3.673100	-11.069000	25.250697	0.000481	20.825657
882.243819	-3.019700	3.672200	-11.088000	25.216197	0.000480	20.841753
883.244484	-3.001900	3.674400	-11.030000	25.226837	0.000480	20.816401
884.245556	-3.000700	3.673900	-11.024000	25.183608	0.000482	20.825158
885.245975	-2.984900	3.673200	-10.963000	25.214956	0.000480	20.831973
886.245005	-2.977900	3.672900	-10.937000	25.213814	0.000481	20.813283
887.245826	-2.997000	3.672200	-11.004000	25.220673	0.000481	20.836764
888.250768	-2.980700	3.672400	-10.945000	25.196463	0.000482	20.818149
889.244992	-2.990200	3.673100	-10.982000	25.178015	0.000481	20.825706
890.245939	-2.981200	3.673700	-10.950000	25.129243	0.000480	20.815151
891.249784	-2.980300	3.671800	-10.942000	25.154280	0.000480	20.830802
892.245954	-2.972300	3.673600	-10.919000	25.196212	0.000480	20.829751
893.245724	-2.982800	3.672600	-10.954000	25.150374	0.000480	20.816924
894.249938	-3.011100	3.671100	-11.053000	25.226911	0.000481	20.823587
895.245993	-2.984300	3.671200	-10.955000	25.232254	0.000480	20.814253
896.246137	-2.983500	3.672400	-10.956000	25.220796	0.000479	20.823612
897.252441	-3.017700	3.669100	-11.071000	25.230337	0.000480	20.827026
898.250740	-3.010200	3.670000	-11.046000	25.217338	0.000479	20.834365
899.245616	-3.007300	3.669700	-11.035000	25.216419	0.000479	20.816846
900.248741	-3.023500	3.669700	-11.095000	25.200509	0.000477	20.819366
901.250621	-3.027600	3.667400	-11.103000	25.205207	0.000475	20.834987
902.250082	-3.002200	3.668800	-11.013000	25.211967	0.000476	20.827076
903.249892	-2.982100	3.668200	-10.938000	25.229367	0.000477	20.808984
904.249909	-3.026600	3.667700	-11.100000	25.224222	0.000478	20.805240
905.248208	-2.992200	3.668500	-10.975000	25.224941	0.000475	20.827299
906.247615	-3.005100	3.667600	-11.021000	25.211149	0.000477	20.812979
907.251447	-2.969100	3.669400	-10.894000	25.222259	0.000476	20.811330
908.250934	-2.998100	3.666800	-10.992000	25.198768	0.000475	20.822833
909.247290	-2.987400	3.667600	-10.956000	25.210924	0.000477	20.816545
910.249333	-3.000400	3.666200	-11.000000	25.190890	0.000474	20.812080
911.246932	-3.001600	3.667000	-11.006000	25.156934	0.000475	20.817819
912.250831	-2.980700	3.666500	-10.928000	25.185346	0.000474	20.805092
913.250916	-2.990200	3.667000	-10.964000	25.175177	0.000476	20.826651
914.247558	-3.003500	3.665400	-11.008000	25.179329	0.000474	20.803793
915.249537	-2.984300	3.665800	-10.939000	25.166479	0.000475	20.820763
916.251194	-2.979500	3.665400	-10.921000	25.193745	0.000474	20.805937
917.252857	-3.006300	3.664300	-11.015000	25.235733	0.000474	20.808262
918.254489	-3.004600	3.665000	-11.011000	25.215922	0.000473	20.805442
919.254333	-3.010500	3.665200	-11.033000	25.229663	0.000473	20.824454
920.252718	-3.004600	3.664300	-11.009000	25.209507	0.000472	20.803269
921.254445	-3.009600	3.663700	-11.025000	25.188677	0.000473	20.819815
922.257150	-3.023100	3.664200	-11.077000	25.182036	0.000471	20.801769
923.256083	-3.009600	3.663200	-11.024000	25.176919	0.000472	20.799002
924.260237	-3.022200	3.662800	-11.068000	25.173211	0.000470	20.812349
925.256387	-3.001200	3.663200	-10.994000	25.190118	0.000469	20.817469
926.254460	-3.006500	3.663800	-11.015000	25.208781	0.000470	20.809178
927.256668	-3.033400	3.662300	-11.109000	25.218628	0.000468	20.798676
928.256900	-3.018400	3.662600	-11.054000	25.228247	0.000469	20.791263
929.260227	-2.988500	3.663200	-10.946000	25.226082	0.000469	20.794306
930.258626	-3.011600	3.663000	-11.031000	25.211290	0.000468	20.817387
931.260329	-2.996800	3.661400	-10.971000	25.243236	0.000468	20.801097
932.259922	-3.017400	3.661300	-11.046000	25.263441	0.000467	20.820434
933.261530	-3.000300	3.660500	-10.982000	25.314198	0.000467	20.809281
934.259446	-2.999700	3.661100	-10.981000	25.322300	0.000468	20.804614
935.259026	-3.008300	3.660000	-11.009000	25.287699	0.000467	20.798797
936.259962	-3.000600	3.660900	-10.984000	25.328340	0.000468	20.805937
937.259101	-3.007400	3.659700	-11.006000	25.320439	0.000467	20.805116
938.258044	-3.026300	3.658600	-11.071000	25.317553	0.000465	20.817391
939.262208	-3.024500	3.659000	-11.066000	25.260164	0.000466	20.803867
940.263087	-3.040300	3.658700	-11.122000	25.229244	0.000465	20.797955
941.259679	-3.009900	3.658300	-11.010000	25.248406	0.000465	20.789692
942.260679	-3.039800	3.657800	-11.117000	25.258225	0.000466	20.799076
943.259006	-3.006900	3.657800	-10.997000	25.276739	0.000465	20.797275
944.261219	-2.995200	3.659200	-10.959000	25.278832	0.000463	20.787523
945.263437	-2.990900	3.657800	-10.939000	25.310173	0.000465	20.794335
946.266346	-2.996200	3.658500	-10.961000	25.287157	0.000463	20.790191
947.267039	-3.018500	3.655700	-11.034000	25.295357	0.000465	20.794632
948.258891	-3.000300	3.657400	-10.973000	25.262673	0.000464	20.788369
949.261539	-3.011600	3.656300	-11.010000	25.251162	0.000463	20.808580
950.265576	-3.011800	3.657300	-11.015000	25.295703	0.000463	20.802565
951.261252	-2.995700	3.656200	-10.952000	25.302191	0.000463	20.780156
952.264396	-2.999800	3.656400	-10.968000	25.311435	0.000463	20.794653
953.263476	-3.005100	3.655600	-10.984000	25.293888	0.000464	20.791260
954.262633	-3.006200	3.656300	-10.991000	25.307481	0.000463	20.789734
955.267230	-3.002800	3.654900	-10.974000	25.304795	0.000460	20.781822
956.264181	-2.995000	3.653900	-10.943000	25.315234	0.000462	20.803683
957.264561	-3.004000	3.654700	-10.978000	25.257989	0.000462	20.788882
958.263260	-2.998600	3.654900	-10.959000	25.302631	0.000461	20.785340
959.266471	-3.006100	3.654300	-10.985000	25.306480	0.000460	20.789678
960.268464	-3.023300	3.652600	-11.042000	25.318187	0.000461	20.801907
961.271770	-2.993900	3.653800	-10.938000	25.341619	0.000460	20.775647
962.266015	-2.999000	3.653100	-10.954000	25.376912	0.000462	20.777894
963.267666	-3.023700	3.653400	-11.047000	25.404571	0.000460	20.784805
964.272757	-2.990300	3.653900	-10.925000	25.385729	0.000461	20.779161
965.270504	-2.996100	3.652600	-10.943000	25.411302	0.000460	20.801521
966.269021	-2.986500	3.652000	-10.906000	25.377648	0.000459	20.774840
967.273367	-2.982800	3.651600	-10.891000	25.358213	0.000460	20.787094
968.274717	-3.000200	3.650400	-10.950000	25.392953	0.000460	20.761284
969.275651	-2.982900	3.650800	-10.889000	25.378910	0.000459	20.769469
970.276545	-2.993500	3.651200	-10.929000	25.364468	0.000457	20.788159
971.273148	-2.977600	3.651400	-10.871000	25.334887	0.000457	20.775527
972.270597	-3.006400	3.649700	-10.971000	25.318581	0.000458	20.787603
973.275049	-2.992600	3.651000	-10.925000	25.358097	0.000457	20.789822
974.272162	-2.976300	3.651100	-10.866000	25.395923	0.000455	20.783708
975.273461	-3.002100	3.648800	-10.953000	25.428325	0.000456	20.788269
976.274258	-3.006600	3.648800	-10.970000	25.453425	0.000455	20.794033
977.274895	-3.034400	3.647700	-11.068000	25.476410	0.000456	20.790561
978.274545	-3.014600	3.648500	-10.998000	25.437491	0.000455	20.770919
979.273744	-3.013200	3.648600	-10.993000	25.395962	0.000455	20.773789
980.276933	-3.002100	3.648100	-10.951000	25.374360	0.000454	20.778651
981.274635	-2.988600	3.648300	-10.903000	25.392103	0.000455	20.790303
982.275710	-2.991000	3.648400	-10.911000	25.382930	0.000452	20.773032
983.275049	-2.986100	3.647700	-10.891000	25.394214	0.000452	20.785310
984.279483	-2.994100	3.646500	-10.917000	25.444859	0.000454	20.773577
985.275329	-2.996200	3.646200	-10.922000	25.477883	0.000452	20.799627
986.276481	-2.997300	3.646300	-10.928000	25.467322	0.000452	20.782858
987.279193	-2.995000	3.647000	-10.921000	25.474327	0.000451	20.778039
988.277818	-2.989700	3.646800	-10.902000	25.456832	0.000452	20.781333
989.281443	-3.007200	3.647000	-10.966000	25.388036	0.000451	20.785271
990.291327	-2.998600	3.645600	-10.931000	25.318849	0.000452	20.781708
991.290173	-3.023600	3.645700	-11.022000	25.367234	0.000450	20.780979
992.281309	-3.023900	3.646100	-11.025000	25.354284	0.000449	20.764182
993.285662	-3.017400	3.644500	-10.996000	25.384181	0.000449	20.783297
994.281280	-2.981000	3.645700	-10.867000	25.380453	0.000449	20.783346
995.284129	-3.018600	3.644200	-10.999000	25.400088	0.000450	20.781252
996.284950	-3.011800	3.642400	-10.969000	25.363675	0.000447	20.768396
997.283870	-3.008400	3.643800	-10.961000	25.395814	0.000447	20.771269
998.282404	-3.002200	3.643900	-10.939000	25.414550	0.000446	20.754521
999.286904	-3.010500	3.643400	-10.967000	25.360176	0.000446	20.784797
1000.283593	-2.981200	3.645400	-10.867000	25.363259	0.000446	20.743322
1001.283945	-3.006300	3.643100	-10.952000	25.351922	0.000446	20.769872
1002.287604	-3.008200	3.642700	-10.957000	25.358586	0.000445	20.776563
1003.286067	-2.994600	3.643700	-10.911000	25.353963	0.000444	20.757221
1004.284755	-3.003400	3.642200	-10.938000	25.340395	0.000445	20.763039
1005.287845	-3.006500	3.641600	-10.948000	25.331151	0.000446	20.772724
1006.284405	-2.983100	3.642200	-10.863000	25.359837	0.000443	20.771655
1007.288843	-3.013900	3.640400	-10.971000	25.360035	0.000441	20.776121
1008.285306	-2.981400	3.642300	-10.859000	25.388170	0.000443	20.758378
1009.292411	-2.999700	3.641000	-10.921000	25.390510	0.000444	20.762151
1010.285418	-2.987500	3.640100	-10.875000	25.429104	0.000444	20.779567
1011.290546	-3.001000	3.639900	-10.922000	25.411386	0.000442	20.766043
1012.286497	-2.994300	3.639100	-10.896000	25.437434	0.000443	20.772285
1013.291462	-2.986900	3.639900	-10.871000	25.417179	0.000443	20.761429
1014.285080	-2.984500	3.638200	-10.857000	25.395331	0.000442	20.769362
1015.286363	-2.988500	3.638700	-10.872000	25.409550	0.000441	20.749500
1016.285844	-3.003800	3.639100	-10.930000	25.392903	0.000441	20.747483
1017.287269	-2.991300	3.637500	-10.879000	25.401428	0.000441	20.753198
1018.286530	-2.999400	3.636900	-10.908000	25.365141	0.000441	20.760859
1019.283082	-3.008800	3.637300	-10.943000	25.317027	0.000441	20.767551
1020.286004	-3.003700	3.637900	-10.926000	25.313295	0.000441	20.769493
1021.288733	-3.016000	3.635200	-10.963000	25.313770	0.000441	20.757168
1022.287695	-3.035600	3.634700	-11.032000	25.308801	0.000441	20.760714
1023.290948	-2.984300	3.635700	-10.850000	25.268607	0.000439	20.749281
1024.289906	-3.014000	3.635300	-10.956000	25.286828	0.000441	20.760463
1025.288637	-3.009400	3.635500	-10.939000	25.320928	0.000439	20.761984
1026.287388	-3.008500	3.635000	-10.935000	25.346925	0.000441	20.755371
1027.292676	-2.999800	3.635900	-10.906000	25.397083	0.000439	20.756896
1028.288448	-3.012500	3.634100	-10.947000	25.387244	0.000438	20.772621
1029.288756	-2.999000	3.635100	-10.900000	25.416492	0.000438	20.755997
1030.289126	-2.998000	3.633100	-10.891000	25.403693	0.000438	20.753577
1031.290246	-3.009800	3.634100	-10.937000	25.412891	0.000438	20.777512
1032.290744	-2.977200	3.633600	-10.817000	25.385228	0.000437	20.768701
1033.288906	-2.980300	3.632900	-10.827000	25.412119	0.000439	20.761563
1034.292490	-2.996900	3.632900	-10.887000	25.424720	0.000437	20.770898
1035.289680	-2.986200	3.633500	-10.849000	25.449669	0.000436	20.752802
1036.291098	-2.989400	3.632900	-10.859000	25.473130	0.000436	20.760714
1037.292667	-3.015000	3.632200	-10.949000	25.415474	0.000435	20.756397
1038.290028	-3.026900	3.630500	-10.987000	25.412789	0.000435	20.764606
1039.292341	-3.006500	3.631000	-10.915000	25.387783	0.000435	20.773637
1040.293550	-3.020300	3.630700	-10.964000	25.381648	0.000434	20.754674
1041.291880	-2.982000	3.631700	-10.829000	25.371411	0.000434	20.775689
1042.292839	-3.016000	3.631200	-10.950000	25.357688	0.000434	20.759065
1043.300132	-2.990700	3.630400	-10.856000	25.359179	0.000432	20.758191
1044.294989	-3.002800	3.629400	-10.897000	25.358875	0.000435	20.762628
1045.294912	-2.994600	3.629800	-10.869000	25.368345	0.000434	20.754592
1046.293108	-3.012500	3.629700	-10.933000	25.346400	0.000432	20.758637
1047.294209	-3.000700	3.630400	-10.893000	25.387184	0.000433	20.750749
1048.293705	-3.026900	3.629600	-10.984000	25.430598	0.000434	20.759730
1049.293576	-3.007400	3.628100	-10.910000	25.446374	0.000433	20.773676
1050.305877	-3.005500	3.628800	-10.905000	25.422990	0.000434	20.765841
1051.296044	-2.993700	3.627800	-10.860000	25.436655	0.000432	20.756330
1052.294065	-3.001500	3.627700	-10.888000	25.443587	0.000431	20.765661
1053.298288	-2.995600	3.626300	-10.861000	25.450296	0.000433	20.769553
1054.292961	-2.995200	3.626700	-10.862000	25.465726	0.000429	20.791212
1055.293227	-3.010300	3.626200	-10.915000	25.479789	0.000430	20.762186
1056.294121	-3.026200	3.626500	-10.974000	25.460952	0.000428	20.775512
1057.295566	-3.004200	3.626500	-10.894000	25.435425	0.000429	20.765052
1058.295704	-3.012300	3.625600	-10.920000	25.391465	0.000426	20.774489
1059.294806	-2.983400	3.627500	-10.821000	25.368919	0.000430	20.765601
1060.295769	-2.995200	3.625800	-10.858000	25.413631	0.000428	20.770194
1061.293333	-3.005100	3.623800	-10.889000	25.443477	0.000428	20.763654
1062.295506	-2.995400	3.624300	-10.855000	25.496636	0.000427	20.773414
1063.296205	-3.000000	3.624600	-10.872000	25.475085	0.000427	20.784963
1064.296118	-2.983100	3.624200	-10.810000	25.490941	0.000426	20.765799
1065.299143	-2.970400	3.624200	-10.764000	25.474141	0.000426	20.760307
1066.297109	-2.996600	3.623800	-10.859000	25.440493	0.000427	20.773934
1067.298090	-2.999300	3.623900	-10.867000	25.483958	0.000427	20.763053
1068.293689	-3.003500	3.623700	-10.883000	25.453213	0.000430	20.763948
1069.295919	-3.012800	3.622400	-10.912000	25.421126	0.000424	20.779617
1070.302564	-2.978100	3.622900	-10.788000	25.467474	0.000425	20.798183
1071.296959	-3.006300	3.621700	-10.886000	25.437751	0.000424	20.767862
1072.298781	-2.995300	3.621300	-10.845000	25.423103	0.000426	20.776860
1073.299215	-3.007300	3.620000	-10.886000	25.437772	0.000422	20.771676
1074.295957	-2.999400	3.620800	-10.859000	25.497689	0.000424	20.765463
1075.299469	-2.992400	3.620200	-10.832000	25.501960	0.000421	20.781131
1076.297052	-2.998800	3.620800	-10.857000	25.493362	0.000424	20.789567
1077.314721	-2.992700	3.620300	-10.833000	25.477280	0.000422	20.768201
1078.299872	-3.002100	3.620200	-10.867000	25.508915	0.000422	20.772943
1079.299504	-2.996300	3.620200	-10.847000	25.513031	0.000421	20.760480
1080.304485	-3.002300	3.620200	-10.867000	25.498598	0.000421	20.786765
1081.301069	-3.018900	3.617100	-10.918000	25.495195	0.000421	20.784295
1082.299309	-3.001000	3.617500	-10.855000	25.500364	0.000418	20.789486
1083.299150	-3.010800	3.618300	-10.893000	25.515867	0.000419	20.796994
1084.298552	-2.964700	3.620200	-10.732000	25.513704	0.000421	20.769691
1085.300307	-2.994400	3.618400	-10.834000	25.530130	0.000419	20.797093
1086.307848	-2.990100	3.618100	-10.818000	25.501153	0.000418	20.794072
1087.302552	-2.986000	3.617500	-10.801000	25.528989	0.000418	20.807327
1088.300248	-2.997700	3.616500	-10.840000	25.482295	0.000418	20.793152
1089.302416	-2.991500	3.616900	-10.819000	25.520786	0.000417	20.770640
1090.300947	-3.005600	3.616700	-10.870000	25.540366	0.000416	20.807847
1091.301067	-3.011000	3.615700	-10.887000	25.549689	0.000415	20.785915
1092.302029	-2.999700	3.616900	-10.848000	25.553442	0.000415	20.774985
1093.303099	-2.994800	3.617000	-10.831000	25.542533	0.000416	20.786315
1094.300237	-2.993100	3.615100	-10.819000	25.514726	0.000414	20.783520
1095.299064	-2.984600	3.616100	-10.792000	25.546113	0.000413	20.787065
1096.300896	-2.980500	3.615400	-10.774000	25.541638	0.000416	20.791580
1097.303547	-3.001300	3.613700	-10.845000	25.569991	0.000411	20.781648
1098.300840	-2.994400	3.613600	-10.819000	25.512442	0.000414	20.788813
1099.302063	-3.003800	3.614400	-10.856000	25.499169	0.000412	20.800614
1100.302973	-3.005100	3.613100	-10.857000	25.479215	0.000411	20.800016
1101.301272	-2.998300	3.612900	-10.831000	25.533365	0.000412	20.804609
1102.300500	-2.999000	3.613000	-10.835000	25.560925	0.000412	20.761637
1103.303526	-3.006200	3.612000	-10.858000	25.574614	0.000410	20.782971
1104.301641	-2.994300	3.612500	-10.816000	25.551979	0.000411	20.806233
1105.308238	-2.998700	3.611900	-10.829000	25.579166	0.000410	20.804613
1106.308619	-2.999700	3.611300	-10.832000	25.581502	0.000411	20.801269
1107.304051	-2.996000	3.612300	-10.822000	25.536550	0.000408	20.783626
1108.304808	-3.012500	3.611100	-10.878000	25.514039	0.000409	20.813650
1109.304891	-2.988600	3.610400	-10.789000	25.501717	0.000409	20.794163
1110.305987	-2.990900	3.610000	-10.796000	25.476688	0.000409	20.817393
1111.307363	-2.992200	3.610100	-10.801000	25.509870	0.000408	20.792868
1112.303841	-3.000300	3.608100	-10.825000	25.562874	0.000406	20.792518
1113.305155	-2.988200	3.609100	-10.784000	25.617418	0.000408	20.798933
1114.303901	-3.002100	3.608200	-10.831000	25.611428	0.000407	20.791021
1115.304714	-3.020500	3.606300	-10.891000	25.598533	0.000406	20.801304
1116.308483	-2.991700	3.607600	-10.792000	25.562652	0.000406	20.793243
1117.304477	-3.013700	3.606400	-10.868000	25.558406	0.000406	20.793721
1118.305462	-3.008200	3.608300	-10.852000	25.571101	0.000406	20.809315
1119.308511	-3.021200	3.606600	-10.895000	25.529528	0.000404	20.806445
1120.305858	-3.014000	3.606600	-10.869000	25.555622	0.000406	20.826013
1121.305668	-3.020300	3.606300	-10.891000	25.543146	0.000404	20.807794
1122.316930	-3.003200	3.606300	-10.829000	25.557384	0.000403	20.811661
1123.306848	-3.014500	3.606500	-10.871000	25.571971	0.000407	20.827732
1124.305724	-3.008700	3.606200	-10.849000	25.588249	0.000403	20.812312
1125.312103	-2.986100	3.606800	-10.769000	25.516607	0.000403	20.808643
1126.308119	-3.004500	3.604700	-10.829000	25.539771	0.000403	20.804404
1127.308737	-2.991000	3.605000	-10.781000	25.591751	0.000403	20.802079
1128.306612	-2.995900	3.604800	-10.799000	25.604523	0.000403	20.815380
1129.311884	-3.007400	3.605000	-10.841000	25.636975	0.000402	20.809092
1130.311686	-3.009300	3.604600	-10.846000	25.625644	0.000402	20.794393
1131.312242	-3.018700	3.603200	-10.876000	25.605738	0.000403	20.814230
1132.314624	-3.024700	3.602700	-10.896000	25.596743	0.000404	20.827955
1133.312004	-2.962900	3.604800	-10.679000	25.600545	0.000400	20.807592
1134.313378	-2.985900	3.604100	-10.760000	25.604125	0.000398	20.801704
1135.312047	-2.995300	3.602700	-10.790000	25.594207	0.000400	20.808338
1136.312478	-3.005000	3.602000	-10.823000	25.620596	0.000400	20.818720
1137.311119	-2.996100	3.602400	-10.792000	25.657293	0.000402	20.801523
1138.311313	-3.006700	3.601300	-10.826000	25.605139	0.000399	20.834965
1139.313296	-2.982100	3.601500	-10.739000	25.575692	0.000400	20.813926
1140.312598	-3.010000	3.600900	-10.838000	25.561080	0.000399	20.815373
1141.314517	-2.996600	3.601500	-10.791000	25.500769	0.000401	20.837307
1142.313374	-2.986700	3.600800	-10.754000	25.543830	0.000398	20.812273
1143.318198	-2.987600	3.599000	-10.752000	25.541000	0.000398	20.827449
1144.318456	-3.002300	3.598800	-10.804000	25.595341	0.000397	20.827495
1145.314017	-3.006500	3.599400	-10.821000	25.627121	0.000399	20.813420
1146.314292	-2.992500	3.600400	-10.773000	25.646251	0.000397	20.810823
1147.317806	-2.988300	3.599700	-10.756000	25.598593	0.000396	20.822701
1148.318044	-2.994400	3.599200	-10.776000	25.569515	0.000398	20.808197
1149.317141	-3.014400	3.598000	-10.845000	25.593840	0.000397	20.816031
1150.317404	-3.015800	3.598300	-10.851000	25.607380	0.000397	20.827258
1151.324358	-3.029600	3.597800	-10.899000	25.601289	0.000396	20.828253
1152.318017	-3.009700	3.598100	-10.828000	25.563494	0.000396	20.825383
1153.322505	-2.975800	3.597700	-10.705000	25.527509	0.000397	20.830022
1154.321269	-2.983400	3.597400	-10.732000	25.523929	0.000395	20.839703
1155.319381	-3.006400	3.596200	-10.811000	25.534486	0.000395	20.813321
1156.323947	-3.003400	3.595800	-10.799000	25.566591	0.000395	20.819485
1157.321634	-2.987600	3.596400	-10.743000	25.594242	0.000395	20.830659
1158.322050	-3.001700	3.595100	-10.791000	25.593224	0.000395	20.822050
1159.325764	-3.004800	3.595700	-10.803000	25.573169	0.000396	20.870185
1160.320497	-3.009200	3.594300	-10.815000	25.519712	0.000396	20.845899
1161.322112	-2.999700	3.594500	-10.781000	25.530970	0.000394	20.826859
1162.322273	-3.017500	3.593900	-10.844000	25.522467	0.000393	20.838235
1163.320337	-2.992500	3.595200	-10.757000	25.533024	0.000394	20.829870
1164.321612	-3.027700	3.593000	-10.877000	25.564879	0.000393	20.832464
1165.322744	-3.000800	3.592700	-10.779000	25.578867	0.000392	20.841770
1166.323606	-3.006600	3.592400	-10.800000	25.558713	0.000391	20.847608
1167.322843	-3.008700	3.592200	-10.806000	25.566733	0.000390	20.829110
1168.322946	-3.003400	3.592300	-10.788000	25.588278	0.000391	20.840316
1169.323162	-2.985800	3.592300	-10.725000	25.638713	0.000390	20.840235
1170.322495	-2.997000	3.592600	-10.767000	25.646714	0.000387	20.843055
1171.322542	-2.977200	3.591300	-10.692000	25.676128	0.000388	20.851260
1172.322151	-2.976500	3.591600	-10.690000	25.684178	0.000388	20.834216
1173.322496	-3.010900	3.590200	-10.809000	25.676699	0.000388	20.854204
1174.324025	-2.972400	3.591900	-10.676000	25.631477	0.000387	20.858570
1175.323246	-2.989600	3.590300	-10.732000	25.607448	0.000387	20.851034
1176.325389	-2.979500	3.591600	-10.700000	25.623920	0.000385	20.842921
1177.326041	-3.011800	3.589100	-10.809000	25.666133	0.000387	20.851653
1178.324104	-3.013300	3.589100	-10.814000	25.668145	0.000386	20.835182
1179.324160	-2.992900	3.591300	-10.747000	25.609552	0.000384	20.833707
1180.325040	-3.022700	3.587200	-10.842000	25.602344	0.000384	20.854916
1181.326152	-3.003000	3.588500	-10.776000	25.645108	0.000382	20.841916
1182.324880	-3.025400	3.586900	-10.850000	25.644139	0.000384	20.864649
1183.324644	-3.013100	3.586700	-10.806000	25.665482	0.000383	20.864274
1184.333048	-2.997400	3.587600	-10.752000	25.674152	0.000384	20.863025
1185.331329	-3.007200	3.586100	-10.783000	25.642349	0.000384	20.859059
1186.324498	-2.994800	3.585900	-10.738000	25.651841	0.000382	20.843462
1187.335241	-3.023600	3.585900	-10.841000	25.676562	0.000380	20.871609
1188.327889	-3.001100	3.585500	-10.759000	25.718749	0.000381	20.856611
1189.330595	-2.978900	3.585900	-10.682000	25.695766	0.000382	20.863871
1190.331998	-3.002500	3.584600	-10.762000	25.692958	0.000380	20.851094
1191.328204	-3.014100	3.584300	-10.802000	25.692835	0.000381	20.869936
1192.326652	-2.964100	3.584900	-10.625000	25.685225	0.000382	20.871302
1193.331323	-2.988600	3.584200	-10.710000	25.709875	0.000383	20.857180
1194.327778	-3.019900	3.583100	-10.819000	25.720729	0.000381	20.860496
1195.326849	-2.994300	3.584900	-10.733000	25.729899	0.000381	20.867809
1196.328388	-2.988200	3.583800	-10.709000	25.722346	0.000378	20.881559
1197.328715	-2.993700	3.583500	-10.726000	25.724601	0.000381	20.866281
1198.328938	-2.985400	3.583400	-10.697000	25.756253	0.000380	20.861565
1199.328563	-2.994300	3.584300	-10.731000	25.684475	0.000380	20.863910
1200.338632	-3.009200	3.581400	-10.776000	25.677119	0.000378	20.856049
1201.329495	-2.992300	3.581700	-10.717000	25.647328	0.000376	20.879705
1202.328346	-2.996500	3.582100	-10.733000	25.635498	0.000377	20.889634
1203.328474	-3.005600	3.582100	-10.766000	25.632591	0.000377	20.875336
1204.335647	-2.999900	3.579700	-10.738000	25.687375	0.000375	20.876305
1205.331425	-3.000700	3.581200	-10.745000	25.698455	0.000375	20.875106
1206.332870	-2.993700	3.581900	-10.722000	25.675696	0.000377	20.879748
1207.335672	-2.990900	3.579700	-10.705000	25.672265	0.000373	20.888629
1208.331244	-2.995600	3.580600	-10.725000	25.630569	0.000374	20.864297
1209.331625	-3.000100	3.580600	-10.741000	25.664563	0.000373	20.875205
1210.334901	-2.994800	3.580200	-10.721000	25.664507	0.000373	20.871830
1211.344427	-3.014000	3.579100	-10.786000	25.704292	0.000372	20.880969
1212.332446	-2.997800	3.579500	-10.729000	25.704810	0.000371	20.885756
1213.331162	-2.984700	3.577700	-10.676000	25.681555	0.000371	20.896537
1214.339858	-3.014800	3.576900	-10.783000	25.665705	0.000373	20.891523
1215.336358	-3.004400	3.579100	-10.752000	25.648780	0.000372	20.889698
1216.336568	-3.008800	3.577600	-10.763000	25.691120	0.000371	20.887653
1217.335235	-2.982000	3.578200	-10.669000	25.703493	0.000370	20.880640
1218.335214	-2.973100	3.578200	-10.637000	25.713533	0.000368	20.894042
1219.334617	-2.988800	3.576600	-10.689000	25.708960	0.000369	20.895613
1220.340002	-3.002300	3.576800	-10.738000	25.665582	0.000368	20.890925
1221.334740	-3.009200	3.575900	-10.759000	25.694153	0.000367	20.884535
1222.334040	-2.982400	3.576000	-10.663000	25.705582	0.000366	20.896013
1223.337938	-3.008800	3.574600	-10.754000	25.700688	0.000367	20.892047
1224.333297	-3.005700	3.574900	-10.744000	25.672712	0.000367	20.887656
1225.332709	-2.997900	3.574700	-10.716000	25.690676	0.000369	20.901904
1226.338125	-3.016400	3.574200	-10.780000	25.695545	0.000369	20.900156
1227.334121	-2.999500	3.573300	-10.717000	25.711947	0.000367	20.892924
1228.335238	-2.996100	3.573800	-10.706000	25.687125	0.000367	20.893122
1229.338178	-3.008900	3.573200	-10.750000	25.722132	0.000369	20.887981
1230.335446	-2.974000	3.573400	-10.626000	25.707350	0.000368	20.898737
1231.333622	-3.021300	3.572800	-10.792000	25.704962	0.000370	20.883538
1232.333808	-3.006500	3.573800	-10.743000	25.725683	0.000369	20.919046
1233.334296	-3.006100	3.572200	-10.738000	25.736022	0.000369	20.901932
1234.335482	-3.018600	3.571700	-10.781000	25.706579	0.000368	20.901756
1235.338770	-3.012800	3.571600	-10.759000	25.692765	0.000367	20.884564
1236.337138	-2.979000	3.572200	-10.640000	25.708315	0.000367	20.893544
1237.333984	-2.986100	3.572500	-10.667000	25.746975	0.000366	20.901080
1238.335819	-2.971900	3.570800	-10.610000	25.749212	0.000366	20.911860
1239.333959	-3.004700	3.570200	-10.726000	25.673977	0.000366	20.901727
1240.334268	-2.997800	3.569500	-10.700000	25.693854	0.000366	20.921689
1241.332897	-3.015700	3.570700	-10.767000	25.684138	0.000365	20.914302
1242.333728	-3.004300	3.568800	-10.721000	25.680386	0.000364	20.897259
1243.335368	-2.990300	3.568600	-10.671000	25.663465	0.000364	20.894963
1244.341602	-2.983000	3.568500	-10.644000	25.695785	0.000365	20.897079
1245.336000	-2.983900	3.567500	-10.643000	25.692107	0.000364	20.879635
1246.335040	-3.002800	3.568100	-10.713000	25.691962	0.000363	20.900351
1247.334213	-3.014600	3.567400	-10.754000	25.712107	0.000363	20.877438
1248.334933	-3.039100	3.566700	-10.838000	25.713674	0.000364	20.904141
1249.336353	-3.010800	3.567800	-10.741000	25.718617	0.000361	20.892037
1250.338445	-3.001600	3.566300	-10.703000	25.765252	0.000363	20.894308
1251.339170	-2.993800	3.566800	-10.678000	25.792972	0.000362	20.892755
1252.338322	-3.003100	3.566800	-10.710000	25.809619	0.000360	20.904261
1253.342140	-3.004300	3.565300	-10.710000	25.782788	0.000361	20.883000
1254.346890	-2.973200	3.567000	-10.605000	25.701992	0.000361	20.889564
1255.336608	-3.001600	3.564900	-10.699000	25.700178	0.000362	20.889164
1256.337780	-3.021800	3.565000	-10.772000	25.721643	0.000360	20.887016
1257.337614	-2.998300	3.563900	-10.685000	25.743679	0.000361	20.889235
1258.340354	-2.989800	3.564400	-10.656000	25.731627	0.000359	20.861959
1259.338439	-2.985000	3.565300	-10.641000	25.690107	0.000358	20.878575
1260.337810	-2.992200	3.562700	-10.659000	25.701859	0.000359	20.874732
1261.339101	-3.022500	3.562300	-10.766000	25.673686	0.000358	20.880574
1262.347107	-3.005500	3.561500	-10.703000	25.672488	0.000360	20.865147
1263.338961	-2.980900	3.563800	-10.622000	25.692960	0.000358	20.862950
1264.337567	-2.984800	3.562900	-10.633000	25.707246	0.000357	20.883461
1265.340055	-2.980200	3.563200	-10.618000	25.664783	0.000358	20.867366
1266.344704	-3.024400	3.561000	-10.769000	25.668137	0.000357	20.857459
1267.343161	-2.990500	3.561600	-10.650000	25.689529	0.000356	20.882736
1268.339378	-3.004200	3.560800	-10.697000	25.664555	0.000357	20.873774
1269.344595	-3.013500	3.560500	-10.729000	25.696752	0.000356	20.864861
1270.350536	-3.011300	3.560700	-10.722000	25.699140	0.000356	20.882906
1271.341436	-2.991400	3.561100	-10.651000	25.684358	0.000354	20.884654
1272.346784	-3.009900	3.559300	-10.712000	25.757694	0.000357	20.862537
1273.341486	-2.994000	3.560000	-10.658000	25.782218	0.000357	20.865360
1274.339378	-2.992200	3.559900	-10.651000	25.736923	0.000356	20.853529
1275.340548	-3.020100	3.558700	-10.747000	25.742785	0.000355	20.894501
1276.342077	-2.990600	3.558900	-10.642000	25.719950	0.000355	20.892902
1277.342889	-2.975900	3.557700	-10.586000	25.703203	0.000354	20.889831
1278.341128	-2.993700	3.557800	-10.651000	25.718482	0.000355	20.849704
1279.341085	-3.026700	3.558100	-10.769000	25.700962	0.000354	20.862453
1280.345458	-3.003800	3.557700	-10.686000	25.710799	0.000353	20.864272
1281.341488	-2.977400	3.556700	-10.589000	25.720163	0.000351	20.852815
1282.341119	-2.998400	3.556700	-10.664000	25.691338	0.000352	20.881708
1283.341237	-2.995700	3.556200	-10.652000	25.737502	0.000349	20.860274
1284.341829	-3.029100	3.554600	-10.766000	25.715908	0.000352	20.858024
1285.342713	-3.003000	3.554100	-10.673000	25.732405	0.000349	20.882653
1286.342097	-3.007900	3.556600	-10.697000	25.737418	0.000349	20.854026
1287.345190	-3.016900	3.555300	-10.725000	25.712621	0.000349	20.851404
1288.343222	-3.016500	3.554200	-10.720000	25.640467	0.000349	20.853375
1289.344744	-3.011100	3.553900	-10.700000	25.686728	0.000350	20.842941
1290.351388	-3.007900	3.553400	-10.687000	25.679471	0.000348	20.854143
1291.346550	-3.000300	3.555500	-10.667000	25.684139	0.000350	20.841289
1292.342876	-3.013400	3.553400	-10.707000	25.729130	0.000351	20.851391
1293.344512	-2.983300	3.553700	-10.601000	25.767539	0.000349	20.857254
1294.344772	-2.997300	3.552300	-10.647000	25.756256	0.000348	20.857300
1295.344975	-2.988800	3.552900	-10.617000	25.706662	0.000346	20.837833
1296.349090	-3.004700	3.551500	-10.670000	25.703950	0.000347	20.856919
1297.345924	-2.987300	3.552900	-10.612000	25.696841	0.000348	20.856891
1298.346737	-3.005400	3.551200	-10.671000	25.713462	0.000345	20.847982
1299.346864	-2.994300	3.551300	-10.633000	25.706223	0.000346	20.867737
1300.346224	-3.004600	3.552300	-10.673000	25.676733	0.000345	20.850919
1301.343118	-3.009300	3.551200	-10.686000	25.667238	0.000345	20.854659
1302.344457	-2.982300	3.551500	-10.591000	25.692626	0.000345	20.852183
1303.345636	-2.996200	3.552000	-10.642000	25.718488	0.000344	20.855874
1304.343843	-3.035700	3.547800	-10.769000	25.724424	0.000345	20.856621
1305.344649	-2.980300	3.550800	-10.582000	25.688790	0.000344	20.872037
1306.347676	-3.008800	3.548800	-10.677000	25.681237	0.000343	20.856391
1307.347127	-2.985200	3.549600	-10.596000	25.698327	0.000341	20.866444
1308.347940	-2.955000	3.549400	-10.487000	25.723918	0.000343	20.865595
1309.348572	-3.011200	3.547000	-10.680000	25.732785	0.000341	20.849846
1310.351020	-3.009300	3.547900	-10.675000	25.740532	0.000343	20.848619
1311.349352	-3.020300	3.545800	-10.707000	25.772110	0.000341	20.847147
1312.355011	-2.974000	3.547100	-10.548000	25.807315	0.000343	20.845052
1313.351071	-3.000700	3.547700	-10.645000	25.847328	0.000343	20.859167
1314.350483	-3.021100	3.545500	-10.711000	25.872196	0.000340	20.844320
1315.351985	-3.015200	3.545600	-10.690000	25.884638	0.000342	20.841646
1316.350870	-2.989900	3.546600	-10.603000	25.834883	0.000339	20.841925
1317.350496	-3.007200	3.546300	-10.663000	25.848442	0.000340	20.849855
1318.350315	-3.001000	3.545200	-10.638000	25.790778	0.000341	20.844088
1319.352594	-2.998300	3.545200	-10.629000	25.748665	0.000338	20.843986
1320.349775	-2.981800	3.545700	-10.571000	25.690650	0.000339	20.830759
1321.353200	-2.979400	3.544600	-10.559000	25.677256	0.000337	20.840065
1322.353128	-2.972400	3.545100	-10.536000	25.646669	0.000336	20.853914
1323.350480	-3.015400	3.543800	-10.685000	25.674596	0.000335	20.853040
1324.353163	-2.999200	3.543600	-10.627000	25.703964	0.000334	20.850769
1325.353526	-2.990500	3.543500	-10.596000	25.735863	0.000335	20.851990
1326.353291	-2.999700	3.543100	-10.627000	25.760311	0.000334	20.835296
1327.353716	-3.019500	3.542100	-10.695000	25.733158	0.000336	20.847850
1328.356980	-3.036900	3.541100	-10.753000	25.708286	0.000332	20.835197
1329.352922	-3.013900	3.540700	-10.670000	25.685380	0.000330	20.855811
1330.354509	-3.025300	3.542600	-10.716000	25.704464	0.000331	20.827564
1331.355475	-2.987400	3.542400	-10.581000	25.731495	0.000333	20.851395
1332.357844	-3.001100	3.540900	-10.626000	25.729060	0.000332	20.827140
1333.355215	-3.012400	3.539200	-10.661000	25.778977	0.000331	20.831760
1334.354310	-2.998800	3.540400	-10.616000	25.745684	0.000331	20.839095
1335.358049	-3.007500	3.539200	-10.643000	25.706827	0.000332	20.841792
1336.354581	-2.975800	3.539300	-10.532000	25.747131	0.000330	20.857618
1337.354822	-3.021500	3.538400	-10.690000	25.792271	0.000329	20.822355
1338.358865	-3.009900	3.539500	-10.653000	25.822484	0.000331	20.842272
1339.355305	-3.005700	3.538500	-10.635000	25.840297	0.000329	20.824605
1340.356086	-3.005500	3.536600	-10.628000	25.806861	0.000329	20.829424
1341.354823	-3.006700	3.537500	-10.634000	25.796501	0.000326	20.847940
1342.355831	-3.008900	3.538100	-10.644000	25.754419	0.000331	20.820843
1343.355769	-2.986500	3.537000	-10.562000	25.749004	0.000329	20.846223
1344.355994	-2.989600	3.537500	-10.575000	25.794620	0.000329	20.839412
1345.360130	-2.997300	3.536400	-10.599000	25.826569	0.000328	20.816030
1346.357127	-2.986800	3.536000	-10.561000	25.815068	0.000325	20.839564
1347.359270	-2.994200	3.536000	-10.586000	25.820785	0.000327	20.825867
1348.359838	-2.989000	3.535500	-10.567000	25.819467	0.000325	20.831181
1349.357522	-2.980000	3.534400	-10.532000	25.809829	0.000326	20.826716
1350.357486	-3.005100	3.534300	-10.620000	25.796073	0.000326	20.824277
1351.359080	-2.978800	3.533800	-10.526000	25.810184	0.000326	20.820434
1352.368240	-2.989600	3.534400	-10.565000	25.784374	0.000324	20.815371
1353.361428	-3.000200	3.533800	-10.601000	25.818413	0.000324	20.821587
1354.361890	-3.003800	3.533600	-10.614000	25.832647	0.000324	20.818343
1355.360252	-3.010000	3.532500	-10.632000	25.793747	0.000322	20.805346
1356.360141	-2.999900	3.532400	-10.596000	25.739564	0.000323	20.807819
1357.360432	-3.027600	3.531800	-10.692000	25.724955	0.000323	20.824913
1358.364160	-2.995200	3.532100	-10.578000	25.706844	0.000322	20.816679
1359.360291	-2.990700	3.532000	-10.561000	25.682774	0.000321	20.812418
1360.360062	-2.979400	3.532700	-10.524000	25.717186	0.000322	20.817110
1361.360148	-3.010200	3.530600	-10.627000	25.740690	0.000321	20.814640
1362.361391	-2.974100	3.530900	-10.500000	25.773518	0.000320	20.813001
1363.360597	-2.994900	3.530200	-10.571000	25.756127	0.000321	20.816868
1364.359994	-3.006900	3.529500	-10.612000	25.728899	0.000319	20.816072
1365.361181	-3.024200	3.530100	-10.675000	25.755735	0.000319	20.802251
1366.361117	-3.012400	3.530200	-10.634000	25.760681	0.000321	20.819072
1367.360423	-3.004500	3.528200	-10.600000	25.730522	0.000319	20.805849
1368.363510	-3.008700	3.527000	-10.611000	25.754871	0.000319	20.810866
1369.362844	-3.010500	3.526400	-10.615000	25.755995	0.000318	20.816736
1370.362134	-2.986300	3.526900	-10.532000	25.768493	0.000318	20.823600
1371.363903	-2.981700	3.528600	-10.521000	25.728073	0.000318	20.808604
1372.362536	-3.012400	3.526700	-10.622000	25.727632	0.000316	20.803420
1373.364188	-3.002800	3.526600	-10.589000	25.725574	0.000317	20.795189
1374.364605	-3.000300	3.525500	-10.577000	25.755166	0.000319	20.804998
1375.362471	-3.007700	3.525300	-10.602000	25.770302	0.000316	20.819254
1376.361692	-3.008400	3.525700	-10.605000	25.768093	0.000315	20.799491
1377.365453	-2.994000	3.526800	-10.558000	25.765243	0.000315	20.786197
1378.364456	-3.014000	3.525300	-10.624000	25.769097	0.000316	20.803818
1379.371833	-2.976100	3.525900	-10.492000	25.813894	0.000315	20.808039
1380.362452	-2.992300	3.524500	-10.545000	25.804506	0.000312	20.785333
1381.361747	-2.990800	3.524700	-10.541000	25.810924	0.000312	20.794150
1382.362104	-3.008600	3.523300	-10.600000	25.766302	0.000314	20.799115
1383.367686	-2.994200	3.524100	-10.551000	25.779153	0.000314	20.805859
1384.366055	-2.986300	3.524100	-10.523000	25.804124	0.000315	20.792062
1385.362482	-2.994900	3.523500	-10.552000	25.789964	0.000311	20.795381
1386.368849	-2.986500	3.523300	-10.521000	25.782291	0.000314	20.783881
1387.364021	-3.010500	3.522500	-10.603000	25.790668	0.000315	20.795140
1388.364704	-3.017700	3.521800	-10.626000	25.771761	0.000314	20.796538
1389.365250	-2.989300	3.521300	-10.526000	25.762151	0.000313	20.803006
1390.365746	-2.966800	3.522200	-10.449000	25.765036	0.000313	20.794998
1391.364145	-2.997500	3.521700	-10.555000	25.779574	0.000313	20.770246
1392.369294	-3.020200	3.521100	-10.633000	25.770979	0.000312	20.797648
1393.366206	-3.018300	3.520600	-10.625000	25.784471	0.000313	20.764733
1394.365430	-2.992900	3.520000	-10.535000	25.790188	0.000313	20.776640
1395.364308	-2.997200	3.520400	-10.550000	25.830785	0.000313	20.783756
1396.366529	-2.999400	3.520300	-10.558000	25.863403	0.000311	20.796133
1397.365969	-3.001900	3.518600	-10.561000	25.851008	0.000312	20.778940
1398.368517	-3.009800	3.519600	-10.593000	25.817868	0.000312	20.777418
1399.370464	-2.985100	3.519100	-10.504000	25.779239	0.000312	20.784134
1400.368124	-2.994500	3.518000	-10.534000	25.771486	0.000310	20.799105
1401.366624	-2.989100	3.517100	-10.512000	25.776009	0.000313	20.778518
1402.370460	-2.989100	3.518000	-10.514000	25.793798	0.000311	20.800181
1403.373129	-3.007600	3.516900	-10.576000	25.785298	0.000309	20.795910
1404.372664	-3.014100	3.516300	-10.598000	25.780430	0.000312	20.790546
1405.372009	-3.021700	3.516000	-10.623000	25.734296	0.000309	20.788302
1406.372083	-2.984600	3.517000	-10.495000	25.753301	0.000308	20.796487
1407.371308	-3.004600	3.515000	-10.560000	25.736283	0.000307	20.773703
1408.372270	-2.999300	3.515700	-10.544000	25.742373	0.000308	20.790252
1409.374798	-2.984100	3.515300	-10.489000	25.742395	0.000308	20.758504
1410.370020	-3.008500	3.515300	-10.575000	25.749951	0.000308	20.781268
1411.372428	-2.999600	3.514900	-10.542000	25.722420	0.000307	20.765468
1412.371325	-3.009500	3.514000	-10.574000	25.784012	0.000307	20.758582
1413.377636	-3.003000	3.513800	-10.551000	25.805902	0.000306	20.764923
1414.372637	-2.994100	3.514100	-10.521000	25.786027	0.000305	20.774831
1415.373029	-2.992800	3.513300	-10.514000	25.737783	0.000305	20.763355
1416.376153	-2.986800	3.514400	-10.496000	25.731001	0.000305	20.759389
1417.372558	-2.980600	3.511800	-10.466000	25.752071	0.000304	20.786717
1418.375937	-2.975700	3.513200	-10.454000	25.781162	0.000304	20.767099
1419.378400	-2.996500	3.511200	-10.520000	25.800198	0.000304	20.760616
1420.376268	-2.987300	3.511500	-10.488000	25.792889	0.000303	20.758016
1421.375370	-2.977500	3.511300	-10.454000	25.748746	0.000302	20.768677
1422.377378	-3.015700	3.509400	-10.582000	25.784304	0.000302	20.776419
1423.371911	-3.004000	3.509300	-10.541000	25.793970	0.000302	20.750092
1424.375177	-3.001900	3.509600	-10.534000	25.786519	0.000302	20.769636
1425.380119	-3.008100	3.509900	-10.558000	25.783539	0.000303	20.756685
1426.373975	-3.006500	3.509100	-10.550000	25.802618	0.000301	20.776324
1427.373435	-2.996900	3.509900	-10.517000	25.835191	0.000302	20.778224
1428.374899	-3.002800	3.507700	-10.532000	25.826916	0.000302	20.778921
1429.373085	-2.996800	3.508300	-10.513000	25.865547	0.000304	20.764622
1430.374369	-3.008800	3.508200	-10.555000	25.863095	0.000300	20.772116
1431.378505	-3.017000	3.507200	-10.580000	25.868632	0.000301	20.790955
1432.381592	-2.990700	3.507900	-10.490000	25.830650	0.000301	20.784568
1433.375328	-3.006500	3.505900	-10.539000	25.782877	0.000301	20.762657
1434.380611	-3.014200	3.505300	-10.564000	25.779502	0.000300	20.769225
1435.374936	-3.010300	3.504400	-10.548000	25.839918	0.000300	20.774437
1436.375192	-2.990500	3.505000	-10.481000	25.848688	0.000300	20.765704
1437.381661	-3.007300	3.505400	-10.541000	25.851718	0.000300	20.748832
1438.375238	-2.993800	3.504700	-10.492000	25.833464	0.000300	20.751359
1439.377736	-2.982800	3.505100	-10.455000	25.813509	0.000300	20.784419
1440.374730	-3.005000	3.504900	-10.531000	25.820889	0.000300	20.771918
1441.375941	-2.990300	3.504800	-10.479000	25.866399	0.000300	20.765952
1442.376726	-3.000800	3.504900	-10.517000	25.891144	0.000298	20.764731
1443.376616	-2.999100	3.503800	-10.507000	25.925274	0.000297	20.783372
1444.377397	-2.982100	3.503100	-10.446000	25.923658	0.000297	20.758040
1445.375893	-2.997900	3.502300	-10.499000	25.867713	0.000295	20.783393
1446.377163	-2.994500	3.502000	-10.485000	25.818279	0.000298	20.778779
1447.378221	-3.010000	3.502200	-10.540000	25.739593	0.000297	20.769441
1448.377467	-2.996000	3.501500	-10.490000	25.781954	0.000297	20.752721
1449.378126	-2.978600	3.502600	-10.432000	25.772066	0.000295	20.780722
1450.377025	-3.011800	3.503100	-10.549000	25.745057	0.000295	20.782990
1451.377549	-2.979100	3.500900	-10.428000	25.762942	0.000295	20.763971
1452.376921	-3.000400	3.499500	-10.499000	25.751437	0.000294	20.774700
1453.377954	-2.994400	3.500800	-10.482000	25.739759	0.000293	20.759176
1454.378196	-3.000400	3.500900	-10.503000	25.757447	0.000293	20.748019
1455.379041	-2.993200	3.499200	-10.473000	25.761473	0.000294	20.756805
1456.385828	-2.994100	3.499700	-10.478000	25.766063	0.000292	20.775167
1457.384294	-3.008200	3.498700	-10.524000	25.767501	0.000294	20.764282
1458.380131	-2.996700	3.499000	-10.485000	25.803802	0.000291	20.761865
1459.382208	-3.010800	3.499000	-10.534000	25.810407	0.000290	20.778458
1460.383767	-2.992800	3.498600	-10.470000	25.820643	0.000290	20.761713
1461.380960	-3.016800	3.496500	-10.548000	25.823148	0.000289	20.765652
1462.380295	-3.007900	3.497300	-10.518000	25.827097	0.000291	20.753971
1463.386875	-3.002400	3.496900	-10.497000	25.853776	0.000290	20.770341
1464.385697	-3.003500	3.496000	-10.500000	25.863737	0.000288	20.780348
1465.380234	-2.996500	3.496200	-10.476000	25.861078	0.000287	20.767719
1466.382542	-2.981000	3.496500	-10.422000	25.854470	0.000287	20.766296
1467.379525	-3.002000	3.495000	-10.491000	25.853920	0.000288	20.790401
1468.380534	-2.992500	3.495400	-10.459000	25.840260	0.000289	20.758660
1469.382514	-3.007700	3.494600	-10.510000	25.840380	0.000287	20.769212
1470.383962	-2.976000	3.495500	-10.401000	25.804707	0.000286	20.773681
1471.381854	-3.006800	3.494800	-10.507000	25.815691	0.000290	20.761480
1472.386157	-3.004000	3.494200	-10.496000	25.783065	0.000286	20.790348
1473.382552	-2.972400	3.494600	-10.386000	25.802023	0.000287	20.776675
1474.383052	-2.994400	3.493100	-10.459000	25.841102	0.000286	20.786533
1475.382201	-3.019000	3.492200	-10.543000	25.860405	0.000286	20.774155
1476.382102	-3.011700	3.491700	-10.516000	25.860754	0.000286	20.768341
1477.385057	-2.996600	3.492100	-10.463000	25.867707	0.000285	20.778172
1478.382188	-3.031400	3.491300	-10.583000	25.819041	0.000286	20.776225
1479.382802	-2.999600	3.492300	-10.475000	25.827660	0.000287	20.778246
1480.384449	-2.991000	3.491800	-10.443000	25.826917	0.000284	20.776551
1481.382281	-3.019200	3.490300	-10.537000	25.821352	0.000284	20.764322
1482.383183	-2.993800	3.489700	-10.447000	25.839137	0.000284	20.786929
1483.385316	-2.997300	3.490600	-10.461000	25.832458	0.000287	20.777375
1484.384811	-2.999700	3.490300	-10.469000	25.813052	0.000286	20.784435
1485.383709	-3.001000	3.489700	-10.472000	25.785181	0.000285	20.784413
1486.386261	-2.996600	3.489700	-10.457000	25.771986	0.000283	20.779693
1487.383658	-3.014700	3.487300	-10.513000	25.806867	0.000284	20.801455
1488.383776	-3.010000	3.487600	-10.496000	25.846196	0.000284	20.785486
1489.384822	-2.997900	3.488400	-10.457000	25.851634	0.000282	20.787630
1490.388144	-2.992800	3.487900	-10.437000	25.873399	0.000284	20.774881
1491.386554	-3.004100	3.487700	-10.476000	25.863984	0.000282	20.791027
1492.391259	-2.982600	3.486700	-10.399000	25.899633	0.000281	20.772786
1493.390869	-2.974800	3.487400	-10.373000	25.947151	0.000282	20.795867
1494.387625	-2.972800	3.487500	-10.367000	25.878718	0.000282	20.780224
1495.391787	-3.007700	3.485500	-10.482000	25.857453	0.000283	20.789208
1496.391211	-2.993500	3.485200	-10.431000	25.827142	0.000281	20.797166
1497.388688	-2.956600	3.487300	-10.309000	25.871015	0.000282	20.783391
1498.393605	-2.975500	3.485600	-10.369000	25.897073	0.000281	20.789180
1499.394800	-2.977200	3.485900	-10.377000	25.972613	0.000282	20.792049
1500.394067	-2.988400	3.484300	-10.410000	25.998422	0.000280	20.771038
1501.389664	-2.974600	3.484200	-10.363000	25.949906	0.000279	20.805747
1502.389308	-2.978800	3.483900	-10.377000	25.916100	0.000278	20.795967
1503.392511	-2.980200	3.483900	-10.381000	25.925938	0.000279	20.797315
1504.389448	-2.998600	3.482900	-10.443000	25.916319	0.000280	20.817997
1505.395771	-3.005400	3.483200	-10.468000	25.888848	0.000276	20.800832
1506.389502	-3.012900	3.481300	-10.487000	25.890659	0.000276	20.796013
1507.390729	-2.999400	3.482200	-10.444000	25.942203	0.000278	20.808440
1508.392153	-2.994700	3.482800	-10.429000	25.939269	0.000276	20.804544
1509.394670	-2.987800	3.481800	-10.401000	25.882431	0.000275	20.821886
1510.391857	-3.011200	3.480900	-10.481000	25.903593	0.000275	20.801894
1511.394213	-2.998100	3.482000	-10.439000	25.867626	0.000276	20.789470
1512.394287	-3.007900	3.479700	-10.465000	25.852167	0.000273	20.797174
1513.392095	-2.974000	3.480300	-10.350000	25.864168	0.000273	20.808281
1514.392225	-2.987700	3.480100	-10.397000	25.865059	0.000273	20.789736
1515.391845	-3.022200	3.478500	-10.512000	25.846151	0.000272	20.803933
1516.395777	-2.983900	3.480400	-10.384000	25.881452	0.000273	20.787712
1517.392690	-3.002900	3.478500	-10.445000	25.909839	0.000273	20.786357
1518.393846	-3.000300	3.479300	-10.437000	25.878543	0.000274	20.805178
1519.397700	-2.992600	3.478800	-10.409000	25.844978	0.000273	20.799435
1520.394345	-3.015200	3.476700	-10.482000	25.831410	0.000274	20.813780
1521.393928	-3.008200	3.477700	-10.460000	25.835883	0.000271	20.825386
1522.397947	-2.972000	3.477900	-10.336000	25.870636	0.000273	20.802450
1523.393940	-3.014700	3.477400	-10.482000	25.884447	0.000272	20.801152
1524.393113	-2.982400	3.477500	-10.370000	25.898828	0.000270	20.808961
1525.396504	-3.002500	3.476200	-10.437000	25.886307	0.000273	20.795434
1526.393742	-3.004200	3.476000	-10.441000	25.890632	0.000271	20.799779
1527.393734	-2.998100	3.475300	-10.419000	25.834411	0.000270	20.813002
1528.396172	-3.014100	3.476000	-10.476000	25.826736	0.000269	20.806714
1529.393192	-3.004900	3.475800	-10.444000	25.784352	0.000272	20.799701
1530.393388	-2.990300	3.474900	-10.390000	25.798037	0.000268	20.818190
1531.395700	-2.980600	3.475200	-10.358000	25.838881	0.000271	20.817493
1532.394686	-3.001500	3.473300	-10.424000	25.875423	0.000270	20.822432
1533.395741	-2.997900	3.473600	-10.413000	25.879523	0.000269	20.815171
1534.396754	-3.024300	3.472500	-10.501000	25.876864	0.000270	20.830517
1535.396851	-2.985400	3.474100	-10.371000	25.885335	0.000267	20.822432
1536.397015	-2.997000	3.472400	-10.406000	25.906549	0.000270	20.796329
1537.398657	-3.010300	3.472700	-10.453000	25.883369	0.000269	20.833734
1538.401613	-3.015800	3.471300	-10.467000	25.927834	0.000268	20.813919
1539.398022	-2.976800	3.472500	-10.336000	25.974309	0.000269	20.806082
1540.399766	-3.000800	3.471900	-10.418000	25.963824	0.000269	20.844859
1541.398420	-2.998700	3.471200	-10.408000	25.877378	0.000268	20.822974
1542.398761	-3.000300	3.471800	-10.415000	25.868287	0.000266	20.825221
1543.398108	-3.020100	3.469400	-10.477000	25.886818	0.000269	20.830560
1544.399227	-3.005500	3.469800	-10.427000	25.882792	0.000265	20.820352
1545.399288	-2.997100	3.469100	-10.396000	25.843813	0.000268	20.816283
1546.400703	-2.999600	3.469100	-10.405000	25.885371	0.000266	20.825313
1547.401834	-3.014600	3.468300	-10.454000	25.900675	0.000268	20.859178
1548.402285	-3.010700	3.468100	-10.440000	25.933414	0.000264	20.822369
1549.402447	-2.994700	3.469100	-10.388000	25.902588	0.000264	20.823643
1550.401814	-3.023500	3.466800	-10.480000	25.898013	0.000265	20.826633
1551.400979	-2.998800	3.468400	-10.400000	25.954723	0.000264	20.838561
1552.404058	-2.993400	3.468200	-10.380000	25.957953	0.000262	20.827582
1553.403105	-3.008900	3.468100	-10.434000	25.956016	0.000264	20.828480
1554.403947	-3.022500	3.467900	-10.481000	25.922506	0.000262	20.837489
1555.405167	-2.997800	3.467000	-10.392000	25.929212	0.000263	20.822890
1556.404799	-3.012100	3.465100	-10.437000	25.957802	0.000262	20.842602
1557.406141	-2.989100	3.466000	-10.359000	25.975887	0.000262	20.835642
1558.405656	-3.005800	3.464800	-10.414000	25.996378	0.000261	20.840107
1559.408857	-2.972400	3.464600	-10.297000	26.043075	0.000261	20.835815
1560.409382	-3.006100	3.463900	-10.412000	26.033637	0.000259	20.810686
1561.404919	-2.998100	3.464000	-10.384000	26.026882	0.000261	20.842779
1562.404844	-3.004200	3.463600	-10.405000	25.995959	0.000259	20.831626
1563.408887	-2.986100	3.463600	-10.341000	25.978247	0.000259	20.840383
1564.405084	-2.992800	3.463800	-10.366000	26.003260	0.000258	20.839909
1565.409547	-2.982000	3.463600	-10.327000	26.006366	0.000258	20.839711
1566.408420	-3.017600	3.461400	-10.444000	25.963595	0.000256	20.838939
1567.405441	-2.997400	3.462500	-10.378000	25.978948	0.000258	20.841561
1568.406092	-2.990900	3.462400	-10.355000	26.042958	0.000256	20.838069
1569.409548	-3.000800	3.461900	-10.387000	26.031629	0.000255	20.843755
1570.408449	-2.983700	3.462200	-10.328000	26.072270	0.000257	20.827691
1571.410309	-3.010000	3.462100	-10.420000	26.050213	0.000256	20.813116
1572.410965	-3.009600	3.459400	-10.410000	26.038492	0.000257	20.855866
1573.408689	-2.992700	3.461100	-10.357000	26.034344	0.000255	20.859284
1574.412582	-3.009300	3.459600	-10.410000	26.039066	0.000253	20.852176
1575.414480	-3.013300	3.460400	-10.426000	26.028959	0.000253	20.851977
1576.410659	-3.018000	3.459600	-10.441000	26.030998	0.000252	20.853078
1577.410108	-3.008900	3.458900	-10.406000	26.017632	0.000255	20.849607
1578.409843	-2.991000	3.459600	-10.347000	26.047370	0.000252	20.853407
1579.413289	-3.011400	3.458700	-10.414000	26.016072	0.000254	20.857996
1580.410423	-3.014400	3.457900	-10.422000	26.005668	0.000252	20.849914
1581.411714	-3.010100	3.459000	-10.411000	26.003312	0.000252	20.850866
1582.415114	-3.004000	3.457600	-10.386000	25.980757	0.000251	20.871352
1583.414240	-2.995000	3.457400	-10.354000	26.003861	0.000251	20.836245
1584.415086	-2.993800	3.457200	-10.349000	25.973410	0.000251	20.870135
1585.418971	-3.005500	3.457600	-10.391000	25.969091	0.000252	20.845409
1586.416132	-3.014600	3.455800	-10.417000	25.941344	0.000249	20.845034
1587.416760	-2.988700	3.456200	-10.329000	25.961667	0.000250	20.867346
1588.421586	-2.999800	3.456200	-10.367000	25.967186	0.000252	20.874787
1589.416135	-2.997000	3.454400	-10.352000	26.021706	0.000248	20.871242
1590.418780	-2.959500	3.456300	-10.227000	26.005515	0.000248	20.863511
1591.420097	-2.992000	3.455500	-10.338000	26.002162	0.000248	20.848763
1592.416440	-2.999700	3.454700	-10.361000	25.962198	0.000248	20.842751
1593.416476	-2.991700	3.453500	-10.331000	25.946250	0.000249	20.848540
1594.415898	-3.003300	3.453400	-10.370000	25.974099	0.000247	20.864664
1595.417393	-3.003600	3.453900	-10.373000	25.943869	0.000248	20.864165
1596.417975	-3.027200	3.452800	-10.451000	25.931203	0.000247	20.863769
1597.417477	-3.014500	3.452700	-10.408000	25.956492	0.000246	20.854562
1598.420632	-2.994100	3.452600	-10.337000	25.960764	0.000247	20.860750
1599.419493	-2.996000	3.453100	-10.344000	25.979146	0.000247	20.876846
1600.423460	-2.997600	3.452000	-10.347000	26.016232	0.000245	20.877596
1601.421134	-2.986200	3.451800	-10.307000	26.057018	0.000246	20.873056
1602.418832	-3.003700	3.451800	-10.367000	26.086851	0.000245	20.872211
1603.419021	-3.004700	3.450000	-10.365000	26.036556	0.000246	20.866249
1604.419898	-3.019600	3.450700	-10.419000	26.011593	0.000244	20.849704
1605.419713	-3.021200	3.449600	-10.421000	25.930319	0.000243	20.863354
1606.420939	-3.006000	3.450500	-10.370000	25.919463	0.000242	20.854820
1607.423411	-2.988700	3.448800	-10.306000	25.912859	0.000241	20.857668
1608.422936	-2.989500	3.449500	-10.311000	25.953896	0.000244	20.869497
1609.421943	-3.002000	3.448300	-10.351000	25.950324	0.000243	20.865434
1610.423863	-2.998800	3.448200	-10.339000	25.968530	0.000240	20.862862
1611.423600	-3.014600	3.447200	-10.392000	25.987806	0.000241	20.871796
1612.422238	-3.022200	3.448300	-10.420000	26.037560	0.000241	20.880058
1613.422894	-2.983600	3.448300	-10.288000	26.011184	0.000242	20.860198
1614.423326	-3.015300	3.447900	-10.395000	25.981103	0.000241	20.885924
1615.424379	-3.003600	3.447000	-10.353000	25.984981	0.000239	20.859950
1616.426889	-2.991000	3.446700	-10.307000	25.986644	0.000240	20.866361
1617.427189	-2.998400	3.446400	-10.333000	25.949859	0.000239	20.878243
1618.424318	-3.021200	3.444600	-10.405000	25.956121	0.000240	20.876473
1619.423608	-3.009500	3.445700	-10.369000	26.005352	0.000241	20.869510
1620.422966	-3.016800	3.445200	-10.393000	25.982727	0.000239	20.870961
1621.427728	-3.008700	3.443800	-10.361000	26.039433	0.000239	20.886207
1622.425249	-2.987600	3.444900	-10.290000	26.033626	0.000238	20.875157
1623.425363	-3.003700	3.443800	-10.343000	26.047061	0.000239	20.881544
1624.430276	-3.013700	3.443900	-10.378000	26.043286	0.000238	20.857837
1625.428389	-2.986200	3.444600	-10.285000	26.013656	0.000241	20.881172
1626.426225	-2.983200	3.445100	-10.277000	26.029927	0.000239	20.876657
1627.425127	-2.991100	3.443600	-10.299000	26.008909	0.000237	20.895367
1628.424201	-2.996900	3.442300	-10.315000	25.999276	0.000238	20.878578
1629.436141	-2.977800	3.444300	-10.255000	25.999174	0.000236	20.903130
1630.425694	-3.000600	3.443100	-10.331000	26.035517	0.000236	20.889858
1631.424767	-3.007200	3.442400	-10.351000	26.076172	0.000237	20.890877
1632.428717	-3.021100	3.441900	-10.398000	26.079651	0.000238	20.876356
1633.428961	-2.990800	3.443000	-10.297000	26.053672	0.000239	20.884866
1634.431938	-2.977900	3.442800	-10.251000	26.050643	0.000237	20.891779
1635.427972	-3.013500	3.440600	-10.367000	26.052879	0.000235	20.902086
1636.427464	-2.998900	3.441400	-10.319000	26.027300	0.000236	20.899146
1637.426608	-3.017100	3.439500	-10.377000	26.016643	0.000235	20.859518
1638.426454	-3.009200	3.440100	-10.351000	26.072330	0.000235	20.887965
1639.437772	-3.014800	3.439300	-10.368000	26.089072	0.000235	20.872546
1640.427337	-2.997200	3.439800	-10.308000	26.091357	0.000234	20.888117
1641.426347	-3.008600	3.439400	-10.347000	26.084279	0.000234	20.889065
1642.430089	-3.003200	3.439000	-10.327000	26.036915	0.000234	20.923502
1643.429472	-2.992800	3.438800	-10.291000	26.021739	0.000231	20.915368
1644.428829	-3.004500	3.437700	-10.328000	26.017742	0.000234	20.889543
1645.430318	-2.995500	3.438600	-10.300000	26.038432	0.000231	20.903218
1646.433318	-3.024600	3.436700	-10.394000	26.036668	0.000232	20.891963
1647.432414	-2.983900	3.436300	-10.253000	26.005806	0.000232	20.904576
1648.432551	-3.003500	3.436000	-10.319000	26.043109	0.000232	20.915028
1649.433248	-2.978000	3.436400	-10.232000	26.066659	0.000231	20.916878
1650.433297	-3.002000	3.435100	-10.311000	26.081465	0.000231	20.912314
1651.431406	-3.019500	3.434900	-10.371000	26.064525	0.000231	20.912364
1652.431104	-2.990100	3.437100	-10.276000	26.064405	0.000231	20.911769
1653.432057	-3.014900	3.435700	-10.357000	25.991207	0.000230	20.914090
1654.431536	-3.020600	3.435100	-10.375000	25.970818	0.000230	20.895504
1655.433608	-3.032500	3.433600	-10.412000	25.994986	0.000230	20.911723
1656.439910	-2.988100	3.434400	-10.260000	26.044916	0.000228	20.890767
1657.431931	-2.991600	3.434100	-10.273000	26.102365	0.000227	20.909133
1658.435782	-2.998300	3.434200	-10.296000	26.081031	0.000232	20.905241
1659.433434	-3.013700	3.433200	-10.345000	26.090349	0.000229	20.900854
1660.433728	-3.000600	3.433000	-10.300000	26.082475	0.000227	20.917596
1661.433723	-3.007600	3.432600	-10.323000	26.090029	0.000227	20.905273
1662.434912	-2.986800	3.433400	-10.254000	26.055182	0.000228	20.900606
1663.433085	-3.007300	3.431400	-10.318000	26.112581	0.000226	20.904226
1664.434347	-2.994700	3.431200	-10.275000	26.137496	0.000228	20.907449
1665.433171	-2.996500	3.431800	-10.283000	26.161787	0.000228	20.917158
1666.432669	-2.985200	3.431800	-10.244000	26.158509	0.000230	20.915760
1667.433974	-2.977900	3.432000	-10.220000	26.179746	0.000224	20.921453
1668.435183	-2.990000	3.429600	-10.254000	26.155431	0.000227	20.924520
1669.437852	-2.991200	3.428800	-10.254000	26.137306	0.000227	20.920533
1670.433618	-3.002500	3.429100	-10.294000	26.125435	0.000225	20.925200
1671.434852	-2.994700	3.429000	-10.268000	26.103679	0.000227	20.918039
1672.442463	-3.016100	3.429500	-10.343000	26.064736	0.000225	20.892189
1673.435290	-3.008800	3.428600	-10.314000	26.054403	0.000225	20.910729
1674.435869	-3.011900	3.427600	-10.322000	26.094565	0.000226	20.903667
1675.436402	-3.032200	3.427400	-10.392000	26.082820	0.000224	20.905142
1676.435316	-3.007100	3.426300	-10.302000	26.033593	0.000224	20.908786
1677.436379	-2.995300	3.428700	-10.268000	26.027060	0.000224	20.907913
1678.440148	-2.992000	3.427700	-10.254000	26.013099	0.000224	20.895310
1679.438190	-3.007200	3.426900	-10.305000	25.947650	0.000224	20.913478
1680.437967	-2.993900	3.426800	-10.259000	25.981630	0.000224	20.901151
1681.438120	-3.015800	3.426400	-10.332000	25.988188	0.000222	20.903946
1682.440490	-3.023100	3.424900	-10.353000	26.015984	0.000225	20.920965
1683.438552	-3.027800	3.425900	-10.371000	26.029891	0.000224	20.902697
1684.438083	-3.009300	3.424400	-10.304000	26.002375	0.000222	20.908716
1685.438925	-2.999400	3.425600	-10.274000	26.057886	0.000225	20.902849
1686.438498	-3.009800	3.425100	-10.307000	26.087990	0.000222	20.886631
1687.437834	-3.001200	3.424400	-10.276000	26.136366	0.000223	20.901572
1688.440032	-2.998900	3.423700	-10.266000	26.164309	0.000222	20.897882
1689.437125	-2.981600	3.425000	-10.211000	26.150001	0.000222	20.881610
1690.438550	-3.001500	3.422800	-10.272000	26.106816	0.000222	20.888003
1691.437563	-3.015700	3.421100	-10.316000	26.065606	0.000220	20.903019
1692.440426	-3.002600	3.423300	-10.278000	26.060587	0.000221	20.882332
1693.438449	-3.005100	3.422300	-10.283000	26.075932	0.000220	20.902489
1694.443448	-3.001000	3.423100	-10.272000	26.069054	0.000220	20.885148
1695.440835	-2.991700	3.421700	-10.236000	26.053600	0.000220	20.896173
1696.438497	-2.995600	3.420500	-10.246000	26.087705	0.000220	20.885396
1697.447040	-2.990900	3.421000	-10.231000	26.094656	0.000218	20.880527
1698.441653	-3.013600	3.422200	-10.312000	26.088990	0.000219	20.888110
1699.439932	-2.997200	3.420100	-10.250000	26.062584	0.000221	20.880545
1700.439023	-3.015900	3.419100	-10.310000	26.097034	0.000221	20.903777
1701.442220	-3.025300	3.419100	-10.343000	26.079696	0.000220	20.870238
1702.440409	-2.995200	3.420600	-10.245000	26.101101	0.000220	20.887002
1703.440865	-2.981100	3.419500	-10.192000	26.091068	0.000218	20.866965
1704.446915	-2.989900	3.419300	-10.223000	26.126305	0.000218	20.887671
1705.443351	-3.002300	3.417500	-10.260000	26.127569	0.000219	20.884200
1706.441241	-2.997400	3.419400	-10.249000	26.109859	0.000219	20.883001
1707.442120	-3.012800	3.416600	-10.292000	26.113733	0.000218	20.884996
1708.442234	-2.996800	3.417200	-10.240000	26.174577	0.000216	20.867425
1709.442169	-3.010500	3.417500	-10.288000	26.174598	0.000216	20.884989
1710.442108	-3.029000	3.416200	-10.347000	26.128327	0.000216	20.876427
1711.445568	-3.022300	3.415000	-10.320000	26.100929	0.000215	20.883984
1712.443125	-3.019500	3.415500	-10.311000	26.101873	0.000214	20.877821
1713.445315	-2.988000	3.416600	-10.208000	26.106937	0.000214	20.881961
1714.446226	-3.014200	3.414800	-10.292000	26.091688	0.000213	20.878019
1715.442915	-2.983700	3.416300	-10.192000	26.135095	0.000217	20.884176
1716.445910	-3.011400	3.414900	-10.283000	26.141328	0.000211	20.876215
1717.446889	-2.997100	3.413800	-10.231000	26.095407	0.000211	20.877963
1718.443437	-3.002900	3.413900	-10.251000	26.068952	0.000212	20.880779
1719.444766	-2.997100	3.413900	-10.231000	26.098108	0.000211	20.872616
1720.445728	-3.010900	3.413900	-10.278000	26.077669	0.000210	20.879580
1721.446636	-3.003900	3.413800	-10.254000	26.086483	0.000209	20.891281
1722.446004	-2.993400	3.413200	-10.217000	26.116512	0.000211	20.885418
1723.445539	-2.994800	3.413700	-10.221000	26.156967	0.000208	20.881023
1724.447918	-3.017600	3.412100	-10.296000	26.207009	0.000208	20.886738
1725.448165	-2.991600	3.411500	-10.205000	26.130394	0.000208	20.885142
1726.447449	-3.009100	3.412200	-10.266000	26.102824	0.000207	20.888259
1727.450524	-3.002800	3.411400	-10.243000	26.088868	0.000211	20.871392
1728.447940	-3.000800	3.411500	-10.237000	26.074038	0.000207	20.873561
1729.449172	-2.990000	3.410600	-10.196000	26.090157	0.000208	20.873636
1730.452243	-2.999100	3.409900	-10.226000	26.045871	0.000207	20.877503
1731.452760	-2.987400	3.410300	-10.186000	26.110177	0.000207	20.861036
1732.453587	-2.994700	3.410100	-10.211000	26.149791	0.000205	20.887562
1733.456121	-3.010100	3.409000	-10.260000	26.114153	0.000203	20.863608
1734.451202	-2.998100	3.408900	-10.220000	26.101859	0.000205	20.860739
1735.458327	-2.981400	3.408200	-10.161000	26.140952	0.000204	20.875836
1736.453477	-2.991300	3.409100	-10.197000	26.142642	0.000205	20.875638
1737.451873	-2.999200	3.407800	-10.220000	26.179103	0.000204	20.865335
1738.458237	-3.025000	3.406400	-10.303000	26.145403	0.000204	20.845697
1739.453820	-2.990300	3.407900	-10.189000	26.160830	0.000201	20.853612
1740.453819	-3.015400	3.407800	-10.275000	26.156706	0.000203	20.870805
1741.453889	-3.002800	3.407000	-10.229000	26.130806	0.000202	20.852367
1742.452490	-2.998100	3.407000	-10.214000	26.102838	0.000202	20.849395
1743.452444	-3.006900	3.405300	-10.238000	26.088737	0.000201	20.854192
1744.451947	-2.997900	3.405800	-10.210000	26.103496	0.000202	20.863332
1745.453709	-2.990800	3.406700	-10.187000	26.100464	0.000204	20.853173
1746.455709	-2.991000	3.406200	-10.187000	26.119892	0.000204	20.867953
1747.452002	-2.989500	3.405600	-10.180000	26.180965	0.000200	20.879533
1748.453834	-3.004500	3.405500	-10.231000	26.184046	0.000203	20.865561
1749.456411	-2.983100	3.404900	-10.156000	26.160129	0.000201	20.865709
1750.453010	-2.987200	3.403600	-10.167000	26.179803	0.000202	20.870780
1751.452975	-3.009000	3.403600	-10.240000	26.185592	0.000201	20.848149
1752.455310	-3.001100	3.403300	-10.213000	26.143796	0.000199	20.848825
1753.453305	-3.007700	3.403400	-10.236000	26.150480	0.000200	20.842264
1754.454596	-3.030400	3.402900	-10.311000	26.154332	0.000200	20.836179
1755.453317	-3.008000	3.403700	-10.237000	26.179813	0.000200	20.841868
1756.457077	-2.993500	3.402100	-10.184000	26.220963	0.000200	20.857139
1757.454530	-3.040400	3.401100	-10.339000	26.218009	0.000201	20.853697
1758.456717	-3.018200	3.401700	-10.266000	26.226502	0.000199	20.854171
1759.458883	-2.993800	3.400600	-10.180000	26.206459	0.000201	20.842565
1760.454353	-3.025600	3.400400	-10.287000	26.188955	0.000199	20.850105
1761.458844	-3.006200	3.401200	-10.223000	26.204948	0.000200	20.851478
1762.456777	-3.003000	3.399200	-10.208000	26.240463	0.000198	20.834063
1763.458058	-2.993500	3.400100	-10.178000	26.199036	0.000199	20.844115
1764.458401	-2.969200	3.399800	-10.093000	26.164692	0.000201	20.825252
1765.456665	-2.990300	3.399800	-10.166000	26.124801	0.000198	20.844911
1766.458608	-3.007800	3.398500	-10.221000	26.176637	0.000197	20.828720
1767.458775	-2.989600	3.398200	-10.158000	26.157882	0.000196	20.843064
1768.456952	-2.988700	3.398900	-10.157000	26.093709	0.000197	20.857766
1769.457132	-3.008100	3.397400	-10.218000	26.094526	0.000195	20.858587
1770.458117	-2.998700	3.397800	-10.187000	26.076344	0.000197	20.843163
1771.456733	-3.001900	3.395900	-10.193000	26.104559	0.000198	20.849702
1772.457016	-3.016400	3.396200	-10.243000	26.111236	0.000197	20.850721
1773.462928	-3.010500	3.395900	-10.223000	26.129809	0.000196	20.842357
1774.457158	-3.010100	3.395800	-10.221000	26.133165	0.000195	20.848573
1775.464609	-3.011600	3.396000	-10.226000	26.121392	0.000196	20.847176
1776.462005	-2.982300	3.397300	-10.130000	26.147592	0.000193	20.836992
1777.461515	-2.990000	3.394900	-10.150000	26.153082	0.000194	20.839190
1778.467056	-2.994300	3.395800	-10.167000	26.170883	0.000195	20.861817
1779.463477	-3.009400	3.395500	-10.218000	26.193483	0.000193	20.850389
1780.461764	-3.003500	3.394100	-10.192000	26.206047	0.000195	20.846419
1781.462954	-3.003300	3.392500	-10.188000	26.200213	0.000194	20.840081
1782.465681	-2.994400	3.394400	-10.163000	26.252284	0.000191	20.844044
1783.465492	-2.987600	3.393200	-10.137000	26.277291	0.000193	20.840251
1784.464303	-2.986000	3.393400	-10.131000	26.287840	0.000192	20.848482
1785.466541	-3.041700	3.390900	-10.313000	26.288312	0.000193	20.833783
1786.463342	-2.981300	3.392100	-10.112000	26.281506	0.000191	20.850176
1787.463989	-2.977400	3.391500	-10.097000	26.232108	0.000190	20.858856
1788.465868	-2.989400	3.391300	-10.137000	26.234541	0.000190	20.846129
1789.464440	-3.000000	3.390800	-10.172000	26.216615	0.000191	20.852770
1790.465744	-2.984900	3.390900	-10.121000	26.180944	0.000189	20.849642
1791.466543	-3.006600	3.390500	-10.193000	26.170637	0.000191	20.840708
1792.465604	-2.984400	3.390900	-10.120000	26.183624	0.000192	20.846171
1793.465750	-2.985400	3.390000	-10.120000	26.199466	0.000189	20.833642
1794.467275	-2.999600	3.390200	-10.168000	26.192611	0.000190	20.849512
1795.465776	-3.000200	3.390200	-10.169000	26.226584	0.000188	20.848563
1796.465541	-2.994200	3.388900	-10.146000	26.201572	0.000188	20.822956
1797.469852	-2.988400	3.388700	-10.126000	26.207805	0.000189	20.833012
1798.466433	-2.973800	3.389900	-10.080000	26.223496	0.000188	20.835029
1799.466993	-2.995000	3.388000	-10.146000	26.271675	0.000186	20.845039
1800.468357	-3.004300	3.387800	-10.177000	26.275693	0.000187	20.840068
1801.469237	-2.989200	3.388300	-10.126000	26.313811	0.000186	20.816736
1802.467854	-2.989200	3.388800	-10.130000	26.290812	0.000185	20.830133
1803.468524	-2.979600	3.387200	-10.090000	26.266130	0.000185	20.814811
1804.471025	-3.000600	3.387500	-10.164000	26.262056	0.000185	20.855761
1805.469358	-2.962900	3.387600	-10.036000	26.271887	0.000186	20.827235
1806.469702	-2.987800	3.386400	-10.117000	26.268884	0.000185	20.839863
1807.468389	-2.993800	3.386300	-10.137000	26.259320	0.000183	20.834046
1808.470190	-2.994500	3.384200	-10.133000	26.211615	0.000185	20.816927
1809.471061	-3.013000	3.384800	-10.198000	26.233218	0.000183	20.844325
1810.475123	-2.989300	3.384900	-10.117000	26.304611	0.000184	20.837362
1811.471872	-2.993900	3.384400	-10.132000	26.320107	0.000184	20.825908
1812.472844	-3.003700	3.383900	-10.163000	26.287845	0.000182	20.835210
1813.477885	-3.020000	3.384500	-10.220000	26.281017	0.000186	20.817918
1814.474158	-2.984400	3.384000	-10.098000	26.303763	0.000183	20.836983
1815.473241	-3.000100	3.384400	-10.153000	26.302541	0.000182	20.812523
1816.477237	-2.991700	3.384000	-10.123000	26.302763	0.000184	20.826022
1817.473278	-3.018700	3.382900	-10.210000	26.289278	0.000180	20.843289
1818.473982	-2.991500	3.382800	-10.119000	26.259775	0.000181	20.831184
1819.474476	-2.979800	3.383300	-10.081000	26.251803	0.000181	20.842139
1820.474826	-3.020200	3.381100	-10.211000	26.235582	0.000180	20.829631
1821.472392	-3.008300	3.380400	-10.169000	26.218099	0.000181	20.840037
1822.475642	-2.994700	3.380500	-10.123000	26.225620	0.000181	20.842854
1823.472834	-3.000600	3.380200	-10.141000	26.276476	0.000180	20.832320
1824.473592	-3.004200	3.380100	-10.153000	26.316605	0.000181	20.830449
1825.473885	-2.993700	3.379700	-10.117000	26.330783	0.000179	20.816249
1826.481472	-2.973600	3.380600	-10.052000	26.360010	0.000179	20.828078
1827.473885	-3.027000	3.378900	-10.227000	26.326858	0.000179	20.824632
1828.483656	-2.988000	3.379800	-10.098000	26.304855	0.000179	20.821012
1829.480159	-3.030700	3.377100	-10.234000	26.303764	0.000177	20.842674
1830.473881	-2.996900	3.378800	-10.124000	26.283297	0.000177	20.832063
1831.474772	-3.004800	3.377000	-10.147000	26.246248	0.000176	20.819013
1832.475876	-3.012900	3.378000	-10.176000	26.242522	0.000176	20.814795
1833.472716	-2.979200	3.379100	-10.066000	26.227026	0.000177	20.817714
1834.477368	-3.008600	3.377700	-10.162000	26.256702	0.000178	20.802018
1835.475400	-2.993800	3.376600	-10.108000	26.306810	0.000176	20.806381
1836.474973	-2.982900	3.378800	-10.078000	26.322130	0.000176	20.825096
1837.474346	-2.994400	3.377200	-10.111000	26.328214	0.000176	20.824098
1838.473249	-2.978000	3.376600	-10.054000	26.405659	0.000174	20.822276
1839.473701	-2.975900	3.376100	-10.046000	26.406751	0.000176	20.799665
1840.473736	-2.981400	3.376200	-10.064000	26.430265	0.000175	20.810970
1841.476656	-3.002300	3.375400	-10.133000	26.429392	0.000172	20.808671
1842.477870	-2.989200	3.374300	-10.086000	26.437489	0.000174	20.814438
1843.474336	-3.000400	3.374000	-10.122000	26.364239	0.000172	20.811466
1844.483339	-2.980400	3.374600	-10.058000	26.344448	0.000171	20.807223
1845.479680	-2.986600	3.374300	-10.077000	26.315271	0.000171	20.797341
1846.475808	-2.970400	3.374100	-10.021000	26.293170	0.000172	20.800260
1847.477272	-3.007700	3.372800	-10.144000	26.297293	0.000174	20.799662
1848.479059	-2.993700	3.373200	-10.097000	26.293864	0.000172	20.811388
1849.475949	-3.004600	3.372600	-10.132000	26.270220	0.000170	20.816551
1850.478735	-2.975700	3.373300	-10.036000	26.275829	0.000170	20.829774
1851.479701	-2.986600	3.372600	-10.072000	26.331552	0.000168	20.793314
1852.484056	-2.987400	3.371400	-10.071000	26.358842	0.000170	20.794662
1853.478416	-3.006700	3.371200	-10.135000	26.403534	0.000169	20.810656
1854.479237	-2.981500	3.370400	-10.048000	26.454532	0.000169	20.816396
1855.481370	-3.005600	3.370200	-10.129000	26.446164	0.000170	20.825528
1856.480223	-2.985100	3.369800	-10.058000	26.428984	0.000168	20.812528
1857.486903	-2.991100	3.370000	-10.079000	26.379720	0.000168	20.810430
1858.484734	-2.991500	3.369600	-10.079000	26.315955	0.000170	20.800398
1859.478788	-2.979900	3.369700	-10.040000	26.295815	0.000168	20.798176
1860.481925	-3.030200	3.368700	-10.207000	26.337432	0.000167	20.813922
1861.482677	-3.014400	3.367600	-10.151000	26.396056	0.000167	20.795080
1862.479242	-3.019800	3.367900	-10.169000	26.401936	0.000168	20.793878
1863.484675	-3.007800	3.368300	-10.130000	26.461901	0.000166	20.806733
1864.488770	-3.016300	3.367200	-10.156000	26.496608	0.000166	20.812695
1865.481941	-2.994400	3.367500	-10.083000	26.474610	0.000166	20.787264
1866.483386	-2.997900	3.366600	-10.092000	26.424457	0.000164	20.784271
1867.486670	-2.981800	3.367600	-10.041000	26.426668	0.000165	20.787915
1868.482873	-2.998800	3.366800	-10.095000	26.458694	0.000164	20.799716
1869.482466	-2.992900	3.365900	-10.073000	26.449805	0.000163	20.805480
1870.486021	-3.027300	3.364600	-10.185000	26.482524	0.000163	20.803280
1871.482985	-2.992900	3.365000	-10.071000	26.455413	0.000165	20.795470
1872.484244	-2.997100	3.366300	-10.088000	26.443247	0.000162	20.785138
1873.484030	-2.999600	3.365200	-10.094000	26.462733	0.000161	20.780542
1874.483639	-3.005800	3.365000	-10.114000	26.482845	0.000163	20.794119
1875.482780	-2.977000	3.365000	-10.017000	26.516038	0.000162	20.781016
1876.483637	-3.003400	3.365100	-10.106000	26.553426	0.000160	20.772131
1877.484727	-3.012500	3.364000	-10.132000	26.578573	0.000161	20.777495
1878.484473	-3.009500	3.363600	-10.122000	26.523807	0.000162	20.806843
1879.484772	-3.006900	3.363300	-10.112000	26.571991	0.000162	20.791267
1880.486050	-3.001400	3.363000	-10.093000	26.577429	0.000161	20.791992
1881.485345	-3.011500	3.362200	-10.124000	26.542644	0.000162	20.793061
1882.487893	-3.026500	3.361900	-10.174000	26.488591	0.000160	20.788041
1883.489301	-3.003900	3.361900	-10.098000	26.435358	0.000159	20.786692
1884.487428	-2.996800	3.362000	-10.075000	26.419639	0.000162	20.791282
1885.487209	-2.996100	3.359700	-10.066000	26.453732	0.000159	20.778133
1886.487489	-3.018000	3.361500	-10.143000	26.473960	0.000160	20.792775
1887.490124	-2.979900	3.361800	-10.017000	26.504675	0.000160	20.783345
1888.488397	-3.011300	3.359100	-10.114000	26.594369	0.000163	20.807598
1889.489543	-3.017000	3.360000	-10.135000	26.551966	0.000160	20.782992
1890.492437	-3.007800	3.359300	-10.103000	26.509389	0.000160	20.780497
1891.489640	-2.985400	3.359200	-10.028000	26.494710	0.000157	20.781863
1892.495260	-3.007400	3.357800	-10.097000	26.465096	0.000158	20.790978
1893.492890	-2.991900	3.357200	-10.043000	26.454838	0.000156	20.808168
1894.492082	-2.975700	3.357700	-9.989800	26.512737	0.000158	20.774853
1895.495988	-3.009300	3.357800	-10.104000	26.542005	0.000159	20.773926
1896.493752	-2.997800	3.358400	-10.066000	26.556131	0.000157	20.791920
1897.492301	-3.004800	3.358200	-10.090000	26.553150	0.000158	20.781810
1898.508522	-3.012000	3.357800	-10.113000	26.575960	0.000157	20.780084
1899.493109	-3.014300	3.355900	-10.115000	26.561412	0.000157	20.764985
1900.496844	-2.995700	3.356400	-10.054000	26.537179	0.000156	20.781404
1901.502539	-3.024400	3.356000	-10.149000	26.542241	0.000156	20.792182
1902.497144	-3.004200	3.354200	-10.076000	26.521736	0.000154	20.790063
1903.493474	-2.994900	3.354900	-10.046000	26.503314	0.000156	20.787667
1904.498836	-3.003300	3.354800	-10.074000	26.530220	0.000154	20.771564
1905.497509	-3.003600	3.355000	-10.075000	26.542808	0.000156	20.778528
1906.496290	-3.006400	3.354000	-10.082000	26.570586	0.000153	20.773259
1907.501137	-3.010700	3.353300	-10.095000	26.590619	0.000155	20.787707
1908.494789	-2.996600	3.353600	-10.049000	26.619391	0.000151	20.795768
1909.495894	-2.997500	3.352900	-10.050000	26.614249	0.000152	20.769735
1910.499749	-2.991900	3.352700	-10.030000	26.601637	0.000154	20.764643
1911.494533	-3.016500	3.352000	-10.110000	26.527602	0.000152	20.781261
1912.501019	-3.005700	3.353100	-10.078000	26.510667	0.000152	20.797428
1913.497920	-3.003500	3.352100	-10.067000	26.561562	0.000151	20.761817
1914.496496	-3.001800	3.352500	-10.063000	26.568732	0.000151	20.780879
1915.498970	-2.978400	3.352500	-9.984200	26.565804	0.000150	20.770348
1916.499578	-2.979200	3.351400	-9.983100	26.565427	0.000149	20.788937
1917.497682	-3.004300	3.350200	-10.064000	26.546979	0.000150	20.766598
1918.501194	-2.998600	3.350600	-10.046000	26.525132	0.000149	20.761708
1919.505369	-2.996500	3.349700	-10.036000	26.532451	0.000148	20.796566
1920.498861	-2.996000	3.350100	-10.036000	26.520433	0.000148	20.788753
1921.501765	-3.011700	3.350000	-10.088000	26.493570	0.000147	20.798261
1922.508957	-2.998200	3.349000	-10.040000	26.499573	0.000146	20.775846
1923.499724	-2.998800	3.348300	-10.040000	26.463271	0.000145	20.792463
1924.507390	-2.996000	3.347600	-10.029000	26.490160	0.000146	20.777290
1925.506606	-2.999700	3.348500	-10.044000	26.532512	0.000146	20.794731
1926.500865	-3.016700	3.347100	-10.096000	26.513813	0.000145	20.788737
1927.502503	-2.989500	3.347300	-10.006000	26.554950	0.000145	20.790733
1928.503862	-3.000800	3.347600	-10.045000	26.553033	0.000146	20.794495
1929.501353	-3.024600	3.346300	-10.121000	26.567307	0.000145	20.771860
1930.504712	-3.009400	3.345600	-10.067000	26.515540	0.000145	20.782886
1931.508122	-2.977300	3.345900	-9.961300	26.487835	0.000144	20.793445
1932.500998	-2.998100	3.346100	-10.032000	26.518814	0.000144	20.766262
1933.506182	-3.010700	3.344100	-10.068000	26.563401	0.000143	20.779313
1934.508706	-3.021000	3.345700	-10.106000	26.600112	0.000146	20.785870
1935.501661	-2.994500	3.345600	-10.017000	26.577718	0.000145	20.769522
1936.508454	-3.014600	3.344400	-10.081000	26.572033	0.000143	20.791309
1937.505584	-2.993200	3.344200	-10.009000	26.540774	0.000143	20.780276
1938.505180	-2.988800	3.344800	-9.995600	26.485334	0.000145	20.789508
1939.506721	-2.990600	3.345000	-10.003000	26.486024	0.000144	20.795892
1940.506782	-3.005600	3.343100	-10.046000	26.483934	0.000142	20.802800
1941.506062	-2.999600	3.344000	-10.030000	26.537984	0.000142	20.785058
1942.511036	-3.016000	3.342600	-10.080000	26.595996	0.000142	20.788845
1943.509738	-3.000900	3.342700	-10.030000	26.685330	0.000143	20.791882
1944.505580	-3.028000	3.341900	-10.118000	26.627071	0.000143	20.782625
1945.507423	-3.021500	3.341100	-10.094000	26.627514	0.000143	20.782123
1946.508265	-3.007400	3.340400	-10.045000	26.611675	0.000140	20.789434
1947.510384	-3.002900	3.340700	-10.031000	26.613534	0.000140	20.791302
1948.507836	-3.010000	3.340900	-10.054000	26.626238	0.000139	20.801703
1949.513182	-2.992300	3.340600	-9.995100	26.601489	0.000140	20.781565
1950.509499	-2.999800	3.341400	-10.022000	26.591926	0.000142	20.780487
1951.512598	-3.001700	3.339700	-10.024000	26.615208	0.000141	20.797727
1952.512134	-2.989800	3.338300	-9.979700	26.637148	0.000139	20.801765
1953.506605	-2.998800	3.338900	-10.012000	26.665842	0.000138	20.809274
1954.512135	-2.994400	3.338600	-9.997200	26.649109	0.000138	20.786762
1955.520116	-2.999800	3.338200	-10.013000	26.567479	0.000139	20.794318
1956.510557	-3.023500	3.336700	-10.088000	26.537558	0.000137	20.802174
1957.510001	-2.996900	3.338300	-10.004000	26.488700	0.000136	20.808065
1958.515843	-3.021400	3.336300	-10.079000	26.533486	0.000136	20.806141
1959.512565	-2.996700	3.337800	-10.001000	26.545596	0.000135	20.792710
1960.513782	-3.001600	3.338000	-10.018000	26.561384	0.000136	20.795304
1961.517432	-2.980900	3.336200	-9.943800	26.628233	0.000136	20.798967
1962.510033	-3.016800	3.336000	-10.062000	26.702905	0.000134	20.815240
1963.516053	-2.990300	3.336700	-9.975800	26.720672	0.000136	20.802283
1964.514181	-3.000300	3.335400	-10.006000	26.760510	0.000133	20.811989
1965.512140	-2.972700	3.334900	-9.912800	26.759662	0.000135	20.799283
1966.517667	-2.983200	3.336300	-9.951900	26.758020	0.000135	20.811382
1967.515634	-3.019400	3.333700	-10.064000	26.778373	0.000136	20.815249
1968.512752	-2.998500	3.333600	-9.995300	26.794826	0.000134	20.785799
1969.518724	-3.015600	3.333400	-10.050000	26.755505	0.000133	20.803163
1970.516299	-2.986800	3.333400	-9.955500	26.779704	0.000132	20.809476
1971.515239	-2.992200	3.333800	-9.974000	26.759352	0.000131	20.789487
1972.518635	-3.008400	3.333600	-10.028000	26.757286	0.000133	20.788834
1973.516108	-3.000300	3.333300	-10.000000	26.736332	0.000132	20.795742
1974.516295	-3.010300	3.331800	-10.029000	26.716447	0.000131	20.817001
1975.520149	-2.983900	3.331300	-9.939500	26.739110	0.000130	20.815603
1976.524485	-2.991900	3.332400	-9.969000	26.677348	0.000133	20.832220
1977.518607	-3.019500	3.330600	-10.055000	26.679133	0.000132	20.804143
1978.521889	-2.997400	3.332800	-9.988700	26.712246	0.000129	20.813726
1979.523973	-2.998900	3.331300	-9.989600	26.767989	0.000131	20.802913
1980.515353	-3.000900	3.330900	-9.994800	26.719786	0.000131	20.803763
1981.519269	-3.013600	3.330200	-10.035000	26.725837	0.000127	20.803682
1982.517645	-2.992900	3.329700	-9.964700	26.713399	0.000127	20.818204
1983.515816	-2.989200	3.330100	-9.953200	26.733528	0.000128	20.819475
1984.519044	-2.992800	3.329700	-9.964700	26.732779	0.000127	20.815403
1985.519765	-2.988600	3.328400	-9.946400	26.702395	0.000130	20.799555
1986.518151	-3.013400	3.327700	-10.026000	26.744561	0.000125	20.825825
1987.519567	-3.011300	3.327300	-10.019000	26.719837	0.000126	20.813296
1988.519672	-3.001200	3.327400	-9.985300	26.758210	0.000127	20.810151
1989.518790	-3.013800	3.327000	-10.026000	26.812564	0.000125	20.802686
1990.519608	-3.004800	3.326000	-9.993100	26.782009	0.000126	20.830759
1991.519393	-3.005700	3.326500	-9.996800	26.788584	0.000127	20.829309
1992.517828	-2.996700	3.326700	-9.968600	26.787043	0.000124	20.821122
1993.519150	-2.983600	3.325700	-9.921500	26.765473	0.000125	20.828358
1994.524697	-3.023300	3.325300	-10.052000	26.760107	0.000126	20.820118
1995.519625	-2.991800	3.326400	-9.950400	26.769141	0.000125	20.828727
1996.522060	-3.022400	3.324800	-10.048000	26.816245	0.000123	20.817292
1997.525136	-2.962800	3.326900	-9.855400	26.817312	0.000122	20.829744
1998.523510	-3.001500	3.324300	-9.977100	26.823541	0.000121	20.818938
1999.524102	-3.003200	3.324200	-9.982800	26.810137	0.000122	20.795029
2000.523707	-2.992300	3.323100	-9.943000	26.840487	0.000121	20.841192
2001.521813	-2.998100	3.323000	-9.960800	26.839964	0.000121	20.811743
2002.524573	-2.991700	3.324400	-9.944600	26.844504	0.000121	20.821523
2003.523525	-3.004900	3.323500	-9.985600	26.800299	0.000118	20.827337
2004.522276	-3.020600	3.321200	-10.031000	26.833186	0.000120	20.844282
2005.524599	-3.012300	3.320900	-10.003000	26.786820	0.000118	20.819949
2006.530034	-3.025100	3.322000	-10.048000	26.821246	0.000118	20.842234
2007.523139	-2.994600	3.321500	-9.945500	26.845641	0.000117	20.842107
2008.524374	-2.998100	3.320700	-9.954800	26.830973	0.000118	20.826885
2009.533201	-3.020100	3.319900	-10.025000	26.847229	0.000117	20.805297
2010.522654	-2.974800	3.320900	-9.878200	26.877236	0.000117	20.849693
2011.527430	-3.011500	3.320200	-9.997700	26.890985	0.000115	20.812310
2012.530599	-3.025000	3.319300	-10.040000	26.946895	0.000115	20.832020
2013.524538	-3.007100	3.319600	-9.981400	26.928061	0.000115	20.833470
2014.529217	-2.996400	3.318800	-9.943700	26.897186	0.000115	20.835615
2015.529460	-2.999200	3.319700	-9.955400	26.894903	0.000115	20.836638
2016.529318	-3.027900	3.318000	-10.046000	26.848841	0.000115	20.818772
2017.530746	-3.009600	3.318200	-9.986100	26.897510	0.000114	20.823138
2018.536733	-2.993600	3.318300	-9.932200	26.904808	0.000113	20.846123
2019.531837	-2.994900	3.317700	-9.935000	26.899969	0.000113	20.838413
2020.531122	-3.001000	3.317100	-9.953300	26.944691	0.000111	20.839761
2021.536029	-3.016600	3.316400	-10.003000	26.934367	0.000114	20.834121
2022.531031	-3.002100	3.316000	-9.954600	26.942111	0.000111	20.849969
2023.534117	-2.998000	3.316200	-9.941700	26.941215	0.000113	20.828679
2024.538284	-3.022300	3.315700	-10.019000	26.879668	0.000111	20.844552
2025.532507	-2.998600	3.316300	-9.943100	26.824245	0.000112	20.842405
2026.534745	-3.000500	3.315100	-9.946200	26.811266	0.000111	20.838838
2027.535976	-3.002200	3.315200	-9.952000	26.817473	0.000112	20.826113
2028.532598	-3.005600	3.315200	-9.963200	26.863709	0.000111	20.844626
2029.536383	-3.030600	3.312800	-10.038000	26.907020	0.000108	20.829857
2030.536530	-2.998000	3.314600	-9.936700	26.845669	0.000108	20.835023
2031.532361	-3.021100	3.313900	-10.010000	26.862349	0.000108	20.851794
2032.541990	-2.999600	3.314500	-9.941400	26.917721	0.000106	20.857685
2033.535820	-2.980500	3.314400	-9.877900	26.935463	0.000107	20.830008
2034.535683	-3.015400	3.312700	-9.988100	26.938120	0.000106	20.854964
2035.538152	-3.018700	3.313700	-10.002000	26.981379	0.000106	20.832084
2036.536365	-3.007100	3.312800	-9.961400	26.950385	0.000105	20.854970
2037.534140	-3.030600	3.311600	-10.035000	26.912188	0.000106	20.840743
2038.535143	-2.983900	3.313900	-9.887600	26.876428	0.000106	20.826596
2039.535689	-2.992100	3.311400	-9.907500	26.803436	0.000104	20.857991
2040.533107	-2.990200	3.312200	-9.903500	26.771592	0.000103	20.855372
2041.537075	-2.993800	3.309300	-9.906600	26.817339	0.000103	20.823608
2042.535972	-3.012500	3.310800	-9.973100	26.863205	0.000104	20.831792
2043.534852	-3.016800	3.309900	-9.985000	26.947836	0.000104	20.844346
2044.539107	-3.015000	3.309700	-9.977800	27.019856	0.000107	20.840432
2045.540538	-3.004300	3.309000	-9.940600	27.051871	0.000104	20.829954
2046.538976	-3.010800	3.308100	-9.958300	27.014278	0.000104	20.843831
2047.537226	-3.037600	3.308000	-10.047000	26.974820	0.000104	20.867686
2048.541890	-2.996000	3.307600	-9.909000	26.958868	0.000101	20.833629
2049.536797	-3.009200	3.307900	-9.952700	27.047809	0.000102	20.842464
2050.536829	-2.990300	3.309200	-9.894600	27.046770	0.000103	20.845213
2051.536514	-2.994900	3.306700	-9.902400	27.002228	0.000102	20.858265
2052.537748	-3.004100	3.307000	-9.934000	26.950686	0.000102	20.859539
2053.544593	-3.011800	3.306800	-9.959100	26.892736	0.000102	20.853424
2054.537461	-2.990700	3.308000	-9.892600	26.899541	0.000100	20.832767
2055.537035	-2.995700	3.307400	-9.907300	26.938084	0.000101	20.835962
2056.537779	-2.985900	3.306600	-9.872200	26.949899	0.000102	20.855429
2057.540514	-3.009600	3.304000	-9.942600	26.996976	9.951880E-5	20.829751
2058.537789	-2.981200	3.304600	-9.850900	27.028197	9.852872E-5	20.839810
2059.541162	-3.018200	3.303500	-9.969900	27.048695	9.734064E-5	20.837192
2060.537792	-2.977600	3.304700	-9.839300	27.034406	0.000100	20.859330
2061.537602	-2.995600	3.304000	-9.896000	27.020311	9.608655E-5	20.846578
2062.537446	-2.979600	3.303600	-9.841400	27.013389	9.743965E-5	20.851471
2063.541904	-2.980200	3.303300	-9.843200	27.018874	9.750565E-5	20.863625
2064.540908	-2.990600	3.303100	-9.877000	27.039598	9.456844E-5	20.837052
2065.541180	-2.986700	3.301600	-9.860000	27.060195	9.644957E-5	20.861084
2066.542940	-3.000300	3.302500	-9.907200	27.096498	9.981582E-5	20.853024
2067.538688	-2.984600	3.300900	-9.851100	27.047816	9.743965E-5	20.849584
2068.541782	-3.038800	3.299800	-10.027000	26.998113	9.621856E-5	20.859816
2069.542836	-3.006800	3.301600	-9.925900	26.968978	9.621856E-5	20.848536
2070.540966	-3.010900	3.301400	-9.939600	26.993475	9.565751E-5	20.853256
2071.541046	-3.001700	3.301100	-9.908400	26.921727	9.417241E-5	20.862187
2072.544925	-2.992600	3.299400	-9.872900	26.969005	9.545950E-5	20.844297
2073.541430	-2.993900	3.299300	-9.875900	26.962879	9.311633E-5	20.855205
2074.541567	-3.007300	3.298000	-9.916700	26.944714	9.740664E-5	20.852586
2075.544447	-2.981700	3.299200	-9.836900	26.900091	9.446943E-5	20.870302
2076.541065	-3.016800	3.298300	-9.949500	26.950674	9.509647E-5	20.847200
2077.539012	-3.009500	3.298300	-9.925500	26.978691	9.334735E-5	20.872527
2078.540106	-3.004500	3.298300	-9.909000	27.034950	9.377638E-5	20.859878
2079.547895	-2.991100	3.297000	-9.859900	27.016963	9.189524E-5	20.885883
2080.541265	-3.004500	3.297700	-9.907400	26.953306	9.397439E-5	20.857907
2081.542059	-2.990600	3.297000	-9.859200	26.997034	9.390839E-5	20.864420
2082.543844	-3.031400	3.296400	-9.991600	26.989865	9.324834E-5	20.859583
2083.541848	-3.024900	3.296200	-9.968400	27.003835	9.423841E-5	20.853243
2084.544447	-2.995100	3.295400	-9.869000	27.018229	9.288531E-5	20.853494
2085.540522	-3.023700	3.294300	-9.960100	26.965791	9.473345E-5	20.843435
2086.543619	-3.009700	3.294000	-9.913200	27.020611	9.100417E-5	20.854941
2087.545288	-3.023300	3.293600	-9.956100	27.065301	9.014611E-5	20.840615
2088.543198	-2.994900	3.294600	-9.866200	27.124233	8.846299E-5	20.856735
2089.540829	-2.996900	3.294400	-9.871800	27.172319	8.951907E-5	20.860054
2090.543765	-2.997100	3.294000	-9.871900	27.190085	9.024512E-5	20.864173
2091.542854	-3.001600	3.294400	-9.886900	27.185565	8.803396E-5	20.864368
2092.541212	-2.998200	3.293000	-9.872200	27.192664	9.064115E-5	20.872930
2093.544486	-2.999600	3.291100	-9.871700	27.189907	9.037713E-5	20.846924
2094.543617	-3.008100	3.292100	-9.902300	27.179837	9.087217E-5	20.862400
2095.547197	-2.998100	3.290900	-9.864900	27.169562	8.948606E-5	20.885254
2096.546446	-2.991500	3.291800	-9.846700	27.172590	8.776994E-5	20.883559
2097.546120	-2.988500	3.292400	-9.838900	27.148221	8.697788E-5	20.872326
2098.545724	-3.001100	3.289600	-9.871400	27.121198	8.819897E-5	20.871700
2099.552360	-3.018900	3.292000	-9.937300	27.127327	8.641684E-5	20.885924
2100.549887	-3.013100	3.290600	-9.914100	27.138321	8.602081E-5	20.885127
2101.546355	-2.992400	3.289500	-9.842800	27.133804	8.658185E-5	20.877265
2102.549347	-2.989200	3.289600	-9.831800	27.097228	8.677987E-5	20.879834
2103.549710	-3.030500	3.288400	-9.963800	27.163649	8.658185E-5	20.881678
2104.549813	-2.995500	3.287900	-9.848000	27.134540	8.559178E-5	20.893178
2105.551957	-3.004600	3.288300	-9.879500	27.176821	8.512975E-5	20.882125
2106.551785	-3.006800	3.287500	-9.883100	27.206745	8.526176E-5	20.868601
2107.550545	-2.999200	3.287400	-9.858500	27.208305	8.539376E-5	20.882971
2108.551188	-2.982800	3.287600	-9.805600	27.219391	8.417268E-5	20.878949
2109.555256	-3.015100	3.287000	-9.909500	27.191054	8.503074E-5	20.884111
2110.549767	-3.010700	3.285700	-9.891800	27.179490	8.377665E-5	20.865370
2111.553872	-3.016100	3.284700	-9.906100	27.229882	8.555878E-5	20.881440
2112.557890	-3.022300	3.284500	-9.925800	27.228837	8.387565E-5	20.896036
2113.553649	-2.985700	3.284900	-9.806800	27.231315	8.446970E-5	20.883830
2114.557312	-3.004100	3.283900	-9.864500	27.204044	8.743991E-5	20.879160
2115.554394	-3.005600	3.284100	-9.868900	27.203247	8.272057E-5	20.916287
2116.553465	-3.002800	3.284200	-9.860700	27.209970	8.354563E-5	20.882749
2117.556412	-3.040500	3.282500	-9.978400	27.275293	8.199452E-5	20.879703
2118.561305	-3.022700	3.283100	-9.922600	27.260378	8.321561E-5	20.870865
2119.555955	-3.014500	3.283100	-9.896300	27.216067	8.186251E-5	20.933448
2120.555501	-2.985800	3.283300	-9.802800	27.186289	8.031139E-5	20.885483
2121.560572	-3.005200	3.282900	-9.864800	27.232733	8.156549E-5	20.878145
2122.556052	-2.992700	3.282000	-9.821100	27.207820	8.064142E-5	20.903344
2123.556860	-2.996700	3.281300	-9.831500	27.203750	8.116946E-5	20.919637
2124.564920	-2.987500	3.282300	-9.804400	27.228260	7.862827E-5	20.911101
2125.559512	-3.028600	3.279400	-9.931400	27.274801	8.064142E-5	20.891061
2126.559320	-3.022400	3.280300	-9.913200	27.276114	8.017938E-5	20.913242
2127.569548	-2.987000	3.281400	-9.800700	27.319773	8.083943E-5	20.895047
2128.565106	-3.024400	3.279000	-9.916500	27.303472	7.869428E-5	20.899986
2129.564031	-3.036200	3.277400	-9.949900	27.295182	7.833125E-5	20.910612
2130.566028	-3.026600	3.279000	-9.923400	27.294810	7.717616E-5	20.905970
2131.559962	-2.998700	3.277600	-9.827800	27.297413	7.826524E-5	20.897684
2132.565446	-3.010100	3.277900	-9.865800	27.323930	7.605408E-5	20.921985
2133.565478	-2.995300	3.277700	-9.816500	27.342682	7.588907E-5	20.930891
2134.560524	-3.029100	3.275700	-9.921000	27.304924	7.453597E-5	20.908084
2135.562900	-3.009200	3.277500	-9.861800	27.271005	7.631810E-5	20.901940
2136.563427	-3.014800	3.275000	-9.871600	27.339279	7.503101E-5	20.911348
2137.565532	-2.979300	3.276000	-9.758700	27.364306	7.668113E-5	20.910920
2138.565162	-3.009800	3.276500	-9.860400	27.376235	7.430495E-5	20.901584
2139.564324	-2.982800	3.275900	-9.770300	27.317640	7.298486E-5	20.907125
2140.566552	-3.012700	3.276100	-9.868700	27.314362	7.173077E-5	20.896716
2141.569479	-3.010500	3.273800	-9.855100	27.261741	7.281985E-5	20.915380
2142.573184	-2.974400	3.274800	-9.739600	27.211524	7.189578E-5	20.900906
2143.564501	-2.997400	3.273500	-9.811600	27.171327	6.981663E-5	20.914054
2144.565759	-2.973000	3.274800	-9.735200	27.214100	7.239081E-5	20.912031
2145.564880	-3.007500	3.272000	-9.839800	27.297979	7.229181E-5	20.909633
2146.564457	-3.013200	3.273000	-9.861300	27.286886	7.133474E-5	20.909853
2147.566243	-2.997400	3.273200	-9.810700	27.287927	7.149975E-5	20.936502
2148.568195	-3.008600	3.271500	-9.841900	27.319755	7.351290E-5	20.933905
2149.572253	-2.997200	3.272400	-9.807400	27.333871	7.318287E-5	20.915865
2150.566925	-2.980300	3.271800	-9.750000	27.344137	7.123573E-5	20.913389
2151.564400	-3.017400	3.271600	-9.869700	27.349941	7.077370E-5	20.949096
2152.565299	-3.009900	3.269700	-9.840800	27.361648	7.163176E-5	20.941907
2153.565202	-3.011400	3.269400	-9.844100	27.361571	7.004764E-5	20.928081
2154.566241	-3.007000	3.268700	-9.827200	27.317236	7.153275E-5	20.942276
2155.566128	-2.990000	3.268900	-9.773100	27.308275	7.050968E-5	20.923781
2156.567683	-2.996900	3.268800	-9.795400	27.265676	7.067469E-5	20.927397
2157.570849	-2.999800	3.268100	-9.802300	27.309363	6.909057E-5	20.928194
2158.575351	-3.010400	3.267100	-9.834400	27.333698	6.902457E-5	20.932758
2159.569448	-2.993800	3.268600	-9.784900	27.387083	6.912357E-5	20.928141
2160.568668	-3.010800	3.267000	-9.835300	27.397822	6.978362E-5	20.940366
2161.572494	-3.001900	3.268900	-9.811500	27.389955	6.783648E-5	20.926289
2162.572117	-2.998400	3.266400	-9.793100	27.401365	6.928859E-5	20.939663
2163.568755	-3.003200	3.265500	-9.806000	27.407070	6.856253E-5	20.947772
2164.573033	-2.988500	3.267600	-9.763900	27.409227	6.905757E-5	20.931452
2165.573902	-2.989700	3.266300	-9.764400	27.432741	6.918958E-5	20.931874
2166.572667	-2.994000	3.264800	-9.773700	27.515660	6.747345E-5	20.939432
2167.571430	-3.027700	3.263100	-9.878100	27.528955	6.796849E-5	20.942375
2168.571048	-3.016900	3.263100	-9.843500	27.485022	6.678040E-5	20.948434
2169.574273	-3.004000	3.263500	-9.802900	27.436084	6.625236E-5	20.930970
2170.571776	-2.978300	3.265800	-9.725600	27.458925	6.618636E-5	20.941146
2171.574300	-2.983700	3.263400	-9.736000	27.420969	6.734144E-5	20.952745
2172.575289	-2.990100	3.262600	-9.754500	27.424194	6.546031E-5	20.975901
2173.573219	-2.991600	3.262300	-9.757900	27.412011	6.552631E-5	20.941364
2174.575434	-3.013600	3.260000	-9.823700	27.436566	6.678040E-5	20.948048
2175.572455	-2.996700	3.261800	-9.772700	27.504358	6.641738E-5	20.964093
2176.571609	-2.989900	3.261600	-9.751800	27.461644	6.691241E-5	20.950518
2177.574635	-2.987700	3.260300	-9.739300	27.418999	6.489927E-5	20.962141
2178.574673	-2.985400	3.259000	-9.728400	27.430431	6.252309E-5	20.969848
2179.578764	-3.005500	3.259700	-9.796600	27.452859	6.222607E-5	20.977712
2180.577584	-2.975000	3.259400	-9.695700	27.471311	6.305113E-5	20.950761
2181.580146	-2.988500	3.259500	-9.740500	27.479169	6.357917E-5	20.966251
2182.577897	-2.975800	3.259800	-9.699700	27.513526	6.268810E-5	20.949611
2183.576061	-3.002100	3.258200	-9.780400	27.520817	6.143401E-5	20.934663
2184.578141	-3.009700	3.257900	-9.804500	27.546685	6.156602E-5	20.969694
2185.574405	-2.997800	3.257900	-9.765700	27.504098	6.262210E-5	20.949608
2186.577115	-3.015200	3.257200	-9.820900	27.537232	6.077396E-5	20.951177
2187.576664	-3.023500	3.256100	-9.844500	27.593111	6.163203E-5	20.957139
2188.577655	-2.980800	3.255500	-9.703000	27.568680	6.272111E-5	20.938724
2189.581584	-2.986500	3.255200	-9.720800	27.601421	6.255609E-5	20.952224
2190.585278	-2.991500	3.254900	-9.736400	27.585990	6.070796E-5	20.953768
2191.580259	-3.000300	3.256300	-9.769100	27.500766	6.001491E-5	20.942938
2192.577140	-3.013600	3.252800	-9.802000	27.450018	6.037793E-5	20.950675
2193.579124	-2.991900	3.255900	-9.741000	27.425482	5.935486E-5	20.960130
2194.580369	-3.011500	3.252400	-9.793600	27.471371	5.948687E-5	20.948925
2195.575855	-3.005500	3.252600	-9.774500	27.555357	6.047694E-5	20.946654
2196.575551	-2.982000	3.252900	-9.698400	27.565820	6.011392E-5	20.945328
2197.578113	-3.012300	3.252500	-9.796400	27.567505	5.938786E-5	20.948446
2198.575855	-2.964800	3.252900	-9.643000	27.576933	5.859580E-5	20.942285
2199.576413	-3.001300	3.252000	-9.759000	27.532334	5.816677E-5	20.964264
2200.574880	-2.986500	3.252100	-9.711500	27.464519	5.790275E-5	20.939187
2201.575850	-2.994600	3.250400	-9.732300	27.436189	5.849680E-5	20.930601
2202.581807	-3.009800	3.248900	-9.777600	27.451566	5.816677E-5	20.945122
2203.585680	-3.004000	3.250800	-9.763500	27.468434	5.783675E-5	20.945971
2204.578119	-3.012000	3.249000	-9.785400	27.544655	5.843079E-5	20.919769
2205.578405	-3.023200	3.249200	-9.821400	27.599219	5.790275E-5	20.935786
2206.580519	-3.002900	3.247100	-9.749700	27.634859	5.800176E-5	20.940353
2207.580319	-2.990000	3.248600	-9.712300	27.604101	5.648365E-5	20.940698
2208.579368	-2.997900	3.248100	-9.736500	27.647404	5.549358E-5	20.939226
2209.583652	-2.984700	3.248200	-9.693600	27.703400	5.783675E-5	20.939149
2210.579632	-3.012700	3.246900	-9.780300	27.700968	5.767174E-5	20.957087
2211.579961	-3.022400	3.247600	-9.813900	27.693823	5.506455E-5	20.931883
2212.581684	-3.006400	3.245600	-9.756900	27.642539	5.519655E-5	20.926271
2213.581920	-3.001200	3.246000	-9.741000	27.620337	5.371145E-5	20.933328
2214.582951	-3.014000	3.246700	-9.783000	27.565202	5.575760E-5	20.919105
2215.584903	-2.992300	3.244500	-9.707600	27.623956	5.440450E-5	20.923694
2216.586214	-3.004200	3.245500	-9.749500	27.616142	5.367844E-5	20.921996
2217.585071	-2.989800	3.243300	-9.695600	27.578490	5.371145E-5	20.915880
2218.586947	-3.020300	3.242200	-9.791400	27.519186	5.440450E-5	20.918799
2219.589024	-2.991500	3.244400	-9.704700	27.549196	5.156629E-5	20.937612
2220.586069	-3.002600	3.242500	-9.735100	27.583570	5.159929E-5	20.930473
2221.588233	-2.977100	3.243100	-9.654400	27.667473	5.410747E-5	20.930972
2222.586910	-3.003000	3.241800	-9.734400	27.735472	5.483353E-5	20.916898
2223.586093	-2.995300	3.241900	-9.709600	27.721260	5.153329E-5	20.910183
2224.584337	-2.994000	3.241700	-9.704600	27.686962	5.100525E-5	20.909808
2225.583729	-2.974100	3.240200	-9.635900	27.728251	5.179731E-5	20.935707
2226.585139	-2.988200	3.240300	-9.681200	27.718107	5.183031E-5	20.922656
2227.589107	-3.006300	3.240000	-9.739800	27.724504	5.024619E-5	20.929092
2228.583950	-2.998500	3.240400	-9.715700	27.728098	5.387646E-5	20.923701
2229.586410	-3.009900	3.238700	-9.747200	27.736828	5.222634E-5	20.926322
2230.585935	-3.016000	3.238900	-9.767700	27.741488	5.390946E-5	20.910625
2231.585254	-3.004700	3.237300	-9.726500	27.789968	4.859607E-5	20.921953
2232.587176	-3.000200	3.236300	-9.709000	27.824803	5.031220E-5	20.918605
2233.586853	-3.012500	3.237800	-9.753200	27.824159	5.074123E-5	20.913216
2234.584900	-2.995000	3.236500	-9.692000	27.820612	5.173130E-5	20.902061
2235.584596	-3.021500	3.237500	-9.781300	27.842430	5.001517E-5	20.913111
2236.588578	-3.004200	3.235900	-9.720900	27.877887	5.146728E-5	20.908968
2237.586247	-3.000300	3.234900	-9.704000	27.819788	4.879409E-5	20.914980
2238.588939	-3.023600	3.235300	-9.781600	27.751345	5.027919E-5	20.912483
2239.595872	-2.995300	3.235600	-9.690700	27.730167	5.074123E-5	20.927205
2240.587040	-2.992000	3.233000	-9.672100	27.756747	4.915711E-5	20.913652
2241.585685	-2.979200	3.235400	-9.638000	27.732271	5.136827E-5	20.905617
2242.588411	-3.004500	3.232800	-9.712000	27.759251	4.839806E-5	20.903845
2243.589787	-2.989500	3.232700	-9.663100	27.791065	4.942113E-5	20.915472
2244.584983	-2.982800	3.234200	-9.645800	27.820096	4.899210E-5	20.907705
2245.591834	-2.959400	3.232900	-9.565800	27.853472	4.625290E-5	20.901467
2246.586652	-3.015800	3.230200	-9.741400	27.890170	4.836505E-5	20.901891
2247.588011	-3.009900	3.231100	-9.724100	27.880896	4.747399E-5	20.911996
2248.586760	-3.030000	3.230600	-9.788100	27.780317	4.539484E-5	20.905130
2249.587608	-3.013300	3.229900	-9.731900	27.735280	4.747399E-5	20.910542
2250.588404	-3.022400	3.230000	-9.761500	27.694835	4.658292E-5	20.890706
2251.591827	-3.012700	3.229400	-9.727900	27.690118	4.539484E-5	20.906821
2252.590268	-3.018900	3.230100	-9.750700	27.712313	4.526283E-5	20.906396
2253.589080	-3.014400	3.229900	-9.736100	27.712412	4.315067E-5	20.889902
2254.588473	-3.000300	3.228900	-9.686700	27.690264	4.460278E-5	20.905071
2255.588433	-2.995300	3.229000	-9.671200	27.661742	4.222660E-5	20.906716
2256.592188	-3.017000	3.226400	-9.733500	27.658693	4.179757E-5	20.897485
2257.590337	-3.025000	3.225900	-9.757500	27.700778	4.463578E-5	20.900953
2258.592880	-2.990900	3.226300	-9.649200	27.714862	4.146755E-5	20.921761
2259.590823	-3.031100	3.225600	-9.776300	27.691102	4.278764E-5	20.895010
2260.597094	-2.991500	3.225700	-9.648500	27.729098	4.100551E-5	20.908114
2261.592874	-3.000200	3.225000	-9.675000	27.823872	4.239162E-5	20.909134
2262.590831	-3.014900	3.223900	-9.718800	27.853627	4.225961E-5	20.905890
2263.595842	-3.020100	3.223100	-9.733400	27.846659	4.117053E-5	20.894136
2264.598452	-2.996900	3.225100	-9.664800	27.838157	4.367871E-5	20.904544
2265.592980	-3.013300	3.222900	-9.710600	27.835303	4.014745E-5	20.902146
2266.597627	-3.010600	3.222500	-9.700700	27.841331	4.265564E-5	20.880240
2267.596097	-3.027100	3.222100	-9.752700	27.809664	4.225961E-5	20.879664
2268.596098	-3.000800	3.222000	-9.668100	27.835157	4.034547E-5	20.875450
2269.603502	-3.022500	3.223700	-9.742600	27.863721	3.922338E-5	20.894712
2270.596601	-3.029300	3.219600	-9.752500	27.914030	3.552711E-5	20.886079
2271.601609	-2.999300	3.221400	-9.661200	27.903321	3.691321E-5	20.899955
2272.602786	-2.998800	3.221400	-9.658800	27.914356	3.793629E-5	20.878821
2273.595896	-3.028800	3.220100	-9.752300	27.918596	3.711123E-5	20.881665
2274.598822	-2.995200	3.219900	-9.643800	27.854974	3.734225E-5	20.890177
2275.602631	-2.981200	3.218500	-9.593500	27.844957	3.684721E-5	20.886734
2276.597187	-2.999700	3.217700	-9.651400	27.852372	3.823331E-5	20.866223
2277.599690	-3.002400	3.218800	-9.663200	27.851479	3.661619E-5	20.880022
2278.600590	-2.981900	3.217200	-9.592100	27.819395	3.711123E-5	20.867174
2279.601948	-3.006600	3.218200	-9.674900	27.829664	3.486706E-5	20.882249
2280.598461	-3.006500	3.215400	-9.665800	27.898151	3.239188E-5	20.879106
2281.602024	-3.001300	3.216500	-9.653400	27.864207	3.427302E-5	20.884297
2282.597282	-2.998900	3.216100	-9.643600	27.842562	3.480106E-5	20.873419
2283.600400	-3.006900	3.214800	-9.665300	27.841226	3.513108E-5	20.873022
2284.601123	-3.005700	3.216000	-9.665400	27.856055	3.414101E-5	20.867559
2285.600295	-2.998500	3.214900	-9.638800	27.856701	3.450404E-5	20.896182
2286.601557	-3.010600	3.212800	-9.671900	27.815020	3.387699E-5	20.892166
2287.603064	-2.997300	3.211900	-9.626600	27.849437	3.298593E-5	20.880338
2288.604155	-2.994800	3.215900	-9.630800	27.877435	3.595614E-5	20.864895
2289.600894	-2.982100	3.212100	-9.578100	27.873817	3.394300E-5	20.873581
2290.604184	-3.013900	3.212200	-9.679800	27.895088	3.473505E-5	20.871282
2291.599353	-3.012900	3.210500	-9.672600	27.922442	3.377798E-5	20.872735
2292.601836	-2.988800	3.212000	-9.599100	27.910021	3.371198E-5	20.862130
2293.604897	-2.984300	3.211400	-9.582600	27.924178	3.499907E-5	20.866896
2294.601316	-3.016500	3.209400	-9.680600	27.947661	3.324994E-5	20.887212
2295.602221	-3.005000	3.208700	-9.641800	27.954382	3.272191E-5	20.861736
2296.604051	-2.964300	3.209500	-9.512700	27.931348	3.361297E-5	20.861785
2297.604801	-2.975500	3.209000	-9.547200	27.916449	3.229287E-5	20.848686
2298.602659	-2.987100	3.207700	-9.581000	27.865865	3.255689E-5	20.891655
2299.607720	-2.981200	3.208200	-9.563000	27.829441	3.225987E-5	20.875860
2300.604712	-3.007000	3.207400	-9.644200	27.799811	3.341496E-5	20.861214
2301.606107	-2.987600	3.207000	-9.580000	27.780022	3.404200E-5	20.865482
2302.606670	-2.974200	3.206200	-9.535300	27.796910	3.245789E-5	20.855925
2303.606529	-3.012300	3.205500	-9.654400	27.853744	3.354697E-5	20.863811
2304.606268	-2.993600	3.206100	-9.596400	27.861901	3.126980E-5	20.849736
2305.609087	-3.004300	3.204600	-9.626400	27.901450	3.291992E-5	20.860616
2306.606081	-2.998300	3.204500	-9.606400	27.849329	3.318394E-5	20.855100
2307.605972	-2.979600	3.205200	-9.548600	27.841221	3.338195E-5	20.858320
2308.608488	-2.982600	3.203000	-9.551800	27.889473	3.417401E-5	20.849036
2309.605960	-2.981200	3.202600	-9.546700	27.876605	3.295292E-5	20.850309
2310.612293	-3.000700	3.201500	-9.605700	27.905044	3.225987E-5	20.856173
2311.615929	-3.018200	3.200300	-9.658100	27.870899	3.242488E-5	20.843145
2312.608729	-2.993100	3.201000	-9.579900	27.907399	3.295292E-5	20.842423
2313.608068	-2.999800	3.202200	-9.605800	27.974712	3.140181E-5	20.867025
2314.611404	-2.996900	3.202200	-9.595400	27.935862	3.219387E-5	20.863957
2315.609664	-2.986200	3.199500	-9.553100	27.928995	3.232588E-5	20.862262
2316.608308	-2.998600	3.199900	-9.594400	27.920313	3.156682E-5	20.861584
2317.612930	-2.965700	3.198200	-9.484000	27.958175	3.328295E-5	20.853226
2318.611632	-2.996000	3.197200	-9.577800	27.917561	3.262290E-5	20.848383
2319.609656	-2.978900	3.198500	-9.526000	27.917166	3.084077E-5	20.838029
2320.615530	-2.972800	3.197600	-9.505000	27.877369	3.113779E-5	20.825950
2321.611228	-2.988300	3.195800	-9.549500	27.926758	3.242488E-5	20.826347
2322.610335	-2.979800	3.196600	-9.524000	27.934843	3.014772E-5	20.845863
2323.614300	-2.993600	3.195800	-9.565700	27.999230	3.090677E-5	20.850927
2324.610363	-3.008700	3.194600	-9.610400	28.042021	3.219387E-5	20.856068
2325.609795	-2.998600	3.193900	-9.576200	28.017798	3.153382E-5	20.835954
2326.614547	-3.008300	3.194000	-9.607400	28.052305	3.143481E-5	20.841291
2327.610737	-3.008900	3.193100	-9.606900	28.077866	3.074176E-5	20.839995
2328.612912	-3.016900	3.192600	-9.630100	28.090485	3.305193E-5	20.847008
2329.616565	-2.990800	3.192500	-9.547100	27.987127	3.100578E-5	20.856289
2330.613186	-2.999600	3.191300	-9.571600	27.982044	2.872861E-5	20.841216
2331.615838	-3.013800	3.189900	-9.611800	28.006712	2.998270E-5	20.835700
2332.615580	-3.015400	3.190300	-9.618000	27.996026	2.932266E-5	20.850547
2333.612392	-2.996700	3.189000	-9.555600	28.089269	2.889362E-5	20.831560
2334.622022	-3.006400	3.190100	-9.589300	28.102948	2.862961E-5	20.848174
2335.617610	-2.988400	3.189000	-9.529600	28.088716	2.836559E-5	20.831952
2336.616521	-2.991600	3.187500	-9.534600	28.031125	2.839859E-5	20.852213
2337.614936	-2.987000	3.188600	-9.523900	28.018160	2.757353E-5	20.849594
2338.620216	-2.981400	3.188300	-9.504900	28.038314	2.912464E-5	20.829104
2339.616485	-2.996100	3.186800	-9.547200	28.032163	2.866261E-5	20.851361
2340.616324	-3.022700	3.187200	-9.632800	28.063870	2.806856E-5	20.835390
2341.618156	-2.978900	3.185400	-9.487400	28.096864	2.734251E-5	20.833041
2342.618617	-3.002600	3.184100	-9.559200	28.032161	2.763953E-5	20.837609
2343.618073	-3.003700	3.183800	-9.561800	27.948482	2.767254E-5	20.848211
2344.622994	-2.965800	3.184700	-9.444400	27.944661	2.770554E-5	20.841521
2345.620012	-2.998800	3.183300	-9.545400	27.979967	2.839859E-5	20.810677
2346.620713	-2.999000	3.183000	-9.545000	28.021371	2.651745E-5	20.833386
2347.622721	-2.999500	3.183500	-9.548100	27.968385	2.674847E-5	20.830313
2348.616659	-2.988500	3.181800	-9.507600	27.951301	2.605542E-5	20.820703
2349.616049	-2.982900	3.179800	-9.483700	27.967339	2.704549E-5	20.843010
2350.618863	-2.982900	3.181200	-9.488900	28.014519	2.684747E-5	20.827438
2351.620490	-2.977800	3.179100	-9.466000	28.010502	2.658346E-5	20.807747
2352.620112	-2.978900	3.179500	-9.470700	28.001327	2.763953E-5	20.826962
2353.620759	-3.007300	3.177100	-9.553200	28.002070	2.628643E-5	20.818700
2354.622580	-2.982900	3.177800	-9.477800	28.079737	2.688048E-5	20.823861
2355.621286	-2.983400	3.179700	-9.485100	28.087697	2.704549E-5	20.854158
2356.624816	-2.987000	3.177500	-9.489600	28.133602	2.470232E-5	20.846791
2357.620241	-3.003800	3.174100	-9.533000	28.115978	2.631944E-5	20.829997
2358.621348	-2.977700	3.175000	-9.451700	28.071229	2.559338E-5	20.808184
2359.622428	-2.989400	3.174600	-9.489300	28.136152	2.664946E-5	20.829444
2360.623395	-3.000000	3.173400	-9.519000	28.152834	2.493333E-5	20.818263
2361.624421	-2.988600	3.173500	-9.483400	28.134811	2.516435E-5	20.819559
2362.630800	-2.985200	3.173700	-9.472100	28.106499	2.443830E-5	20.824722
2363.623898	-2.997900	3.172700	-9.510900	28.077739	2.437229E-5	20.862626
2364.624402	-3.012900	3.171100	-9.553000	28.048684	2.351423E-5	20.826740
2365.630980	-2.993500	3.170700	-9.490500	28.111722	2.569239E-5	20.817178
2366.623011	-3.016500	3.168600	-9.556200	28.207011	2.516435E-5	20.823019
2367.623768	-2.999600	3.169300	-9.505300	28.216677	2.453730E-5	20.839388
2368.624809	-3.007500	3.168300	-9.527700	28.184424	2.364624E-5	20.825410
2369.627643	-3.010100	3.168000	-9.535200	28.152918	2.387726E-5	20.822141
2370.625789	-3.006100	3.167700	-9.521600	28.092948	2.160009E-5	20.828151
2371.627853	-3.011000	3.166000	-9.532000	28.115978	2.123706E-5	20.831420
2372.629701	-3.007500	3.165200	-9.518200	28.139799	2.235914E-5	20.811305
2373.626755	-2.997900	3.164900	-9.487200	28.129484	2.328321E-5	20.809930
2374.631150	-3.003700	3.166300	-9.510200	28.113966	2.450430E-5	20.815170
2375.634904	-2.986100	3.165500	-9.451800	28.080324	2.120406E-5	20.813072
2376.626284	-2.983300	3.164400	-9.439000	28.036318	2.285418E-5	20.829466
2377.628774	-3.014900	3.162600	-9.534800	28.041549	2.097304E-5	20.801541
2378.625819	-2.993900	3.161900	-9.465100	28.020002	2.285418E-5	20.816836
2379.630473	-3.025500	3.161100	-9.562600	28.106176	1.988396E-5	20.820130
2380.635729	-3.006900	3.160200	-9.501700	28.185968	2.179810E-5	20.811318
2381.631955	-3.007100	3.159700	-9.500900	28.179303	1.998297E-5	20.799392
2382.633130	-3.005100	3.158300	-9.489600	28.159963	2.107205E-5	20.821173
2383.633909	-3.035400	3.157900	-9.584600	28.186365	2.064302E-5	20.802234
2384.629250	-3.003400	3.158600	-9.485300	28.236435	1.740878E-5	20.824194
2385.633329	-3.011700	3.156600	-9.506200	28.263205	1.952094E-5	20.812266
2386.635450	-2.996900	3.157100	-9.460600	28.280381	1.783781E-5	20.791152
2387.631253	-2.996500	3.155100	-9.452700	28.276858	2.041200E-5	20.793295
2388.632065	-2.981800	3.154800	-9.406000	28.206242	1.915791E-5	20.791426
2389.636917	-3.013300	3.154700	-9.505400	28.257226	1.862987E-5	20.828057
2390.629550	-3.013100	3.152600	-9.498000	28.211694	1.625370E-5	20.806872
2391.634966	-3.010600	3.152500	-9.490400	28.229810	1.892689E-5	20.821791
2392.635156	-3.004800	3.151100	-9.467700	28.259978	1.803583E-5	20.801430
2393.633122	-3.019400	3.150800	-9.511400	28.317407	1.678173E-5	20.788129
2394.633977	-2.996700	3.150700	-9.440600	28.289373	1.721077E-5	20.815853
2395.638417	-3.011800	3.148200	-9.480500	28.283549	1.658372E-5	20.808567
2396.636357	-2.989100	3.148100	-9.409700	28.246616	1.598968E-5	20.811211
2397.633146	-2.988100	3.148000	-9.405500	28.235637	1.556064E-5	20.784509
2398.651462	-3.007000	3.145900	-9.458900	28.255121	1.526362E-5	20.809816
2399.634770	-2.995400	3.146700	-9.424500	28.214397	1.618769E-5	20.792049
2400.636331	-3.008100	3.145400	-9.460700	28.208301	1.602268E-5	20.798714
2401.637042	-3.024800	3.143500	-9.507500	28.204533	1.592367E-5	20.801085
2402.635186	-3.008300	3.143200	-9.454500	28.224736	1.354750E-5	20.795820
2403.634910	-2.996900	3.142500	-9.416900	28.202874	1.684774E-5	20.804630
2404.639298	-3.001200	3.142400	-9.430100	28.224489	1.575866E-5	20.805528
2405.631960	-3.001800	3.140500	-9.426500	28.151934	1.480159E-5	20.781322
2406.637969	-2.975800	3.141100	-9.345400	28.141326	1.516462E-5	20.797195
2407.638453	-2.997800	3.141100	-9.415300	28.145047	1.358050E-5	20.782923
2408.634298	-2.986900	3.139200	-9.375700	28.157638	1.509861E-5	20.783745
2409.639622	-3.007200	3.137600	-9.434500	28.127566	1.463658E-5	20.786187
2410.637188	-2.992800	3.136900	-9.387100	28.166192	1.328348E-5	20.793779
2411.634941	-2.994900	3.136200	-9.391000	28.191203	1.608868E-5	20.798096
2412.636637	-2.998200	3.134600	-9.397500	28.237804	1.206239E-5	20.779579
2413.643220	-2.987500	3.134000	-9.362300	28.247469	1.450457E-5	20.792155
2414.638563	-3.029000	3.132800	-9.488000	28.324877	1.351449E-5	20.788064
2415.636433	-3.000500	3.132600	-9.398600	28.313972	1.608868E-5	20.791783
2416.639571	-2.977600	3.132900	-9.327500	28.351048	1.325048E-5	20.801139
2417.635533	-2.999600	3.131900	-9.392800	28.378261	1.298646E-5	20.800092
2418.635676	-3.010600	3.129900	-9.422000	28.339549	1.242541E-5	20.806631
2419.641217	-3.015500	3.128700	-9.434300	28.352609	1.067629E-5	20.802711
2420.638469	-2.986800	3.129100	-9.345500	28.306982	1.143534E-5	20.790435
2421.639938	-2.987900	3.128800	-9.347100	28.323686	1.054428E-5	20.799193
2422.642282	-2.987000	3.128600	-9.344000	28.395958	1.100631E-5	20.805109
2423.639819	-3.012600	3.126500	-9.418100	28.360441	1.196338E-5	20.787838
2424.640688	-2.988000	3.124800	-9.336300	28.396153	1.136934E-5	20.785391
2425.642433	-2.978500	3.124500	-9.305400	28.345871	9.026164E-6	20.793081
2426.638274	-3.017900	3.123700	-9.426500	28.304751	9.752218E-6	20.778705
2427.644936	-3.016500	3.122100	-9.416900	28.329113	1.008224E-5	20.797071
2428.641162	-2.996500	3.123400	-9.358400	28.409438	1.113832E-5	20.788811
2429.639874	-2.988300	3.121000	-9.325000	28.426239	1.136934E-5	20.807152
2430.640301	-3.004200	3.120700	-9.375200	28.386067	1.183137E-5	20.779502
2431.641151	-2.992700	3.120000	-9.336300	28.416699	1.285445E-5	20.790432
2432.642201	-3.017800	3.118400	-9.410500	28.416970	1.275544E-5	20.803508
2433.641795	-2.988100	3.117100	-9.313100	28.363015	7.937084E-6	20.785214
2434.647298	-2.989100	3.115800	-9.312600	28.357835	8.663138E-6	20.800387
2435.641162	-3.006800	3.115900	-9.367400	28.341080	9.884227E-6	20.804379
2436.642132	-2.984000	3.113900	-9.290900	28.402691	9.290184E-6	20.800509
2437.640272	-2.973500	3.113700	-9.257200	28.454434	1.377851E-5	20.788603
2438.641790	-3.006800	3.112100	-9.356000	28.443804	9.884227E-6	20.795442
2439.646871	-2.981200	3.112300	-9.276500	28.497703	1.034626E-5	20.787131
2440.642768	-2.994500	3.111600	-9.316800	28.480304	1.193038E-5	20.790472
2441.641037	-2.986900	3.110000	-9.288600	28.463625	8.663138E-6	20.794539
2442.643885	-3.011100	3.108700	-9.359300	28.501070	9.554203E-6	20.788151
2443.644499	-2.981100	3.108800	-9.265500	28.575479	9.224179E-6	20.791016
2444.653725	-2.998900	3.107500	-9.318000	28.612103	1.047827E-5	20.786650
2445.644370	-3.002500	3.105800	-9.324200	28.634700	1.173236E-5	20.801348
2446.643086	-2.986100	3.105000	-9.270100	28.600454	1.084130E-5	20.798151
2447.644704	-2.972900	3.103600	-9.224700	28.568661	9.092169E-6	20.808806
2448.642251	-2.978100	3.102900	-9.238900	28.550396	8.564130E-6	20.802265
2449.644186	-2.987500	3.102600	-9.268000	28.587070	7.871079E-6	20.807431
2450.642447	-2.943800	3.102100	-9.130500	28.600474	8.960159E-6	20.797223
2451.645631	-2.990700	3.099300	-9.268600	28.602229	9.554203E-6	20.794723
2452.646833	-2.970300	3.100500	-9.208600	28.533316	9.917230E-6	20.790280
2453.646168	-2.973300	3.098000	-9.210600	28.507692	7.079021E-6	20.795768
2454.642937	-2.991200	3.096600	-9.261000	28.542410	9.224179E-6	20.804179
2455.643040	-2.978300	3.096200	-9.220500	28.549273	7.079021E-6	20.802555
2456.644230	-3.000300	3.094200	-9.283000	28.589116	1.008224E-5	20.814233
2457.644125	-3.008200	3.093700	-9.306100	28.569836	7.508053E-6	20.807143
2458.645363	-3.000500	3.092200	-9.275800	28.549615	9.851225E-6	20.810487
2459.646400	-3.029900	3.090700	-9.363200	28.606257	9.719215E-6	20.804944
2460.643916	-3.005900	3.089900	-9.287700	28.583435	1.054428E-5	20.806615
2461.643119	-3.008300	3.089400	-9.292900	28.523713	1.041227E-5	20.828498
2462.646495	-2.995800	3.089600	-9.255400	28.525597	9.620208E-6	20.805264
2463.655170	-2.994000	3.087600	-9.243200	28.496055	9.257181E-6	20.826723
2464.646198	-3.019300	3.086500	-9.318000	28.537833	8.597133E-6	20.812372
2465.648013	-2.999900	3.085100	-9.254100	28.603396	1.044527E-5	20.813916
2466.648966	-3.020100	3.083200	-9.310700	28.568308	9.884227E-6	20.812717
2467.649771	-2.973600	3.084600	-9.171400	28.518328	8.861152E-6	20.802686
2468.650954	-2.990900	3.081800	-9.216300	28.534208	8.564130E-6	20.808247
2469.651832	-2.991500	3.081900	-9.218300	28.556681	8.927157E-6	20.805275
2470.650722	-2.990200	3.079900	-9.208600	28.514007	7.178028E-6	20.816352
2471.649864	-2.987400	3.080500	-9.201000	28.542404	8.861152E-6	20.800380
2472.647310	-3.012800	3.076800	-9.269100	28.529517	8.399118E-6	20.804471
2473.655477	-2.977200	3.076900	-9.159300	28.481093	8.234106E-6	20.821613
2474.646936	-2.988000	3.075800	-9.189500	28.455073	9.950232E-6	20.817221
2475.649686	-2.996600	3.073700	-9.210000	28.483396	7.871079E-6	20.810656
2476.651368	-3.003100	3.072500	-9.226300	28.540909	8.300111E-6	20.810728
2477.648716	-3.001100	3.072000	-9.219000	28.650579	9.026164E-6	20.808332
2478.652180	-2.986800	3.070800	-9.171000	28.664081	9.224179E-6	20.834259
2479.655851	-2.977100	3.070500	-9.140000	28.642721	7.277036E-6	20.822229
2480.649498	-3.011900	3.068900	-9.241400	28.628473	7.211031E-6	20.822103
2481.650360	-3.017300	3.066000	-9.250200	28.651390	8.366116E-6	20.814839
2482.651640	-3.007400	3.066600	-9.221800	28.694301	6.881007E-6	20.813963
2483.648947	-3.021200	3.063800	-9.254900	28.693357	5.857931E-6	20.809219
2484.651803	-2.980700	3.065700	-9.137500	28.680001	8.267109E-6	20.824216
2485.651336	-3.026300	3.061800	-9.265400	28.704752	6.881007E-6	20.822593
2486.650406	-3.001600	3.062500	-9.191900	28.702225	6.121951E-6	20.835695
2487.652817	-3.015600	3.059700	-9.226400	28.763342	9.125172E-6	20.829452
2488.658586	-2.989100	3.058500	-9.141100	28.728681	6.848004E-6	20.834367
2489.659257	-3.037100	3.056200	-9.281100	28.688145	6.385970E-6	20.831470
2490.654313	-2.982400	3.056500	-9.115200	28.637525	7.178028E-6	20.841177
2491.652224	-3.008800	3.055800	-9.194000	28.619660	6.484977E-6	20.817020
2492.652314	-3.016200	3.053700	-9.209100	28.637821	4.504832E-6	20.831992
2493.656227	-2.989300	3.053700	-9.126900	28.611282	5.263888E-6	20.814747
2494.653166	-2.995300	3.050900	-9.136700	28.653773	5.758924E-6	20.815343
2495.654228	-3.005200	3.049400	-9.163700	28.684940	4.438827E-6	20.818759
2496.653905	-3.015500	3.050000	-9.195400	28.657882	5.098875E-6	20.822800
2497.653326	-3.006700	3.047500	-9.162100	28.718262	7.376043E-6	20.809174
2498.655574	-3.011400	3.045500	-9.169800	28.762956	7.211031E-6	20.819581
2499.654533	-2.986900	3.046600	-9.099100	28.758915	7.277036E-6	20.818355
2500.654857	-3.023200	3.044000	-9.201100	28.764833	7.046019E-6	20.837117
2501.657895	-2.980600	3.044100	-9.072600	28.752000	6.088948E-6	20.838890
2502.656572	-2.991600	3.041600	-9.098300	28.752244	3.976793E-6	20.836765
2503.657983	-3.005900	3.041800	-9.142400	28.738024	5.428900E-6	20.853735
2504.660094	-2.977200	3.040500	-9.051000	28.770528	4.174807E-6	20.832423
2505.657639	-3.003900	3.038800	-9.126600	28.739530	4.306817E-6	20.845295
2506.658876	-3.002300	3.037500	-9.118100	28.682817	4.999868E-6	20.831320
2507.661058	-3.016800	3.036100	-9.158100	28.701522	4.768851E-6	20.827874
2508.659232	-3.007000	3.033900	-9.122500	28.762791	3.877785E-6	20.852130
2509.663058	-2.990900	3.034300	-9.074400	28.788853	4.471829E-6	20.848985
2510.660444	-3.018300	3.031300	-9.148800	28.777157	8.795147E-6	20.840048
2511.662336	-2.969100	3.031700	-9.001000	28.837803	7.508053E-6	20.834284
2512.662229	-2.984300	3.030100	-9.042200	28.872705	3.052725E-6	20.834831
2513.663434	-3.005100	3.028200	-9.098400	28.903123	4.141805E-6	20.837974
2514.669926	-2.993900	3.027700	-9.063900	28.941543	5.692919E-6	20.827843
2515.663753	-2.986700	3.024600	-9.032900	28.854246	3.184734E-6	20.822873
2516.665071	-3.004500	3.024900	-9.086900	28.734709	3.547761E-6	20.826215
2517.664728	-3.020100	3.023200	-9.129300	28.629507	4.504832E-6	20.850645
2518.669961	-3.034300	3.021700	-9.166800	28.606910	4.108802E-6	20.853015
2519.670183	-2.996400	3.020500	-9.049700	28.602870	4.999868E-6	20.838990
2520.666990	-2.989700	3.020000	-9.026400	28.604181	3.712773E-6	20.843630
2521.671196	-2.990700	3.016900	-9.021300	28.603957	3.415751E-6	20.841507
2522.671419	-2.987000	3.017400	-9.011400	28.624448	2.821708E-6	20.833221
2523.665124	-3.016300	3.013800	-9.089600	28.726920	5.923936E-6	20.843025
2524.665491	-2.997100	3.013500	-9.031100	28.819084	3.547761E-6	20.847195
2525.668743	-3.024200	3.011000	-9.104000	28.783900	5.032870E-6	20.825979
2526.667282	-3.011000	3.011200	-9.066500	28.852995	3.514759E-6	20.839157
2527.673306	-2.996500	3.009600	-9.016600	28.885667	3.778778E-6	20.839828
2528.673730	-2.990600	3.008600	-8.996800	28.961044	4.570836E-6	20.857920
2529.667995	-2.981100	3.006900	-8.963000	28.967333	3.547761E-6	20.850979
2530.674225	-2.994500	3.005200	-8.998400	28.956681	2.062652E-6	20.844990
2531.678270	-2.994800	3.003900	-8.995400	28.904810	2.986720E-6	20.865750
2532.674316	-3.053500	3.001300	-9.163000	28.832400	1.963645E-6	20.860609
2533.676160	-2.990100	3.001200	-8.973200	28.822711	3.712773E-6	20.843737
2534.677225	-2.987600	3.000500	-8.963000	28.820160	4.009795E-6	20.864874
2535.669630	-3.005600	2.998500	-9.011200	28.782007	5.560909E-6	20.865321
2536.674553	-2.980500	2.997400	-8.932500	28.758670	4.537834E-6	20.856514
2537.673152	-3.021800	2.995400	-9.050400	28.698190	3.415751E-6	20.857234
2538.673452	-2.988000	2.995600	-8.950200	28.718605	3.778778E-6	20.853615
2539.677471	-3.003800	2.993900	-8.992300	28.818296	2.326671E-6	20.858255
2540.675787	-3.006300	2.990400	-8.988800	28.801127	4.438827E-6	20.844279
2541.680706	-3.001900	2.990400	-8.976600	28.772958	1.501611E-6	20.871853
2542.675810	-3.005200	2.989000	-8.982200	28.800457	3.514759E-6	20.866363
2543.674188	-3.000700	2.988000	-8.965200	28.882403	3.745776E-6	20.859772
2544.672164	-3.000500	2.986500	-8.959600	28.914336	4.768851E-6	20.844528
2545.678598	-3.030900	2.983300	-9.041200	28.934769	3.448754E-6	20.845198
2546.673548	-2.997900	2.983200	-8.942700	28.973506	4.207810E-6	20.876638
2547.675313	-3.004800	2.982000	-8.959200	28.968551	3.679771E-6	20.865483
2548.672228	-3.005400	2.979800	-8.954800	29.011626	3.382749E-6	20.885646
2549.674801	-3.006900	2.978200	-8.954600	29.025420	5.032870E-6	20.873466
2550.674322	-3.007300	2.978700	-8.956700	29.016527	1.963645E-6	20.873042
2551.673944	-3.022400	2.975100	-8.990900	29.031757	4.570836E-6	20.871791
2552.679177	-2.979400	2.975000	-8.863300	29.018233	3.415751E-6	20.852950
2553.674572	-3.004300	2.972800	-8.929400	28.970750	6.105450E-7	20.856319
2554.677881	-2.972100	2.971100	-8.828900	28.925269	1.402603E-6	20.858387
2555.673313	-2.968800	2.971400	-8.819400	28.857149	2.062652E-6	20.872263
2556.674346	-3.003900	2.968000	-8.915000	28.858288	3.283742E-6	20.862979
2557.673371	-3.037800	2.964900	-9.004600	28.891974	3.085727E-6	20.874630
2558.676866	-3.004500	2.964800	-8.907300	28.914541	3.151732E-6	20.867967
2559.673634	-2.985900	2.963400	-8.847300	28.940276	3.547761E-6	20.871135
2560.674646	-2.994800	2.962100	-8.869900	28.949911	3.778778E-6	20.877996
2561.673834	-3.016100	2.959500	-8.925200	28.933811	2.788705E-6	20.863673
2562.673286	-3.006300	2.959700	-8.897100	28.911863	3.151732E-6	20.882338
2563.673148	-3.018900	2.957800	-8.927800	28.965193	2.557688E-6	20.873004
2564.673857	-3.001600	2.956100	-8.872200	29.024415	5.775425E-7	20.877195
2565.677718	-3.020400	2.954600	-8.923000	29.090817	2.359674E-6	20.870607
2566.677076	-2.986600	2.953700	-8.820200	29.123705	1.435606E-6	20.880038
2567.675990	-2.985100	2.951800	-8.810900	29.119147	2.755703E-6	20.878290
2568.675540	-2.986400	2.949500	-8.807900	29.083508	-1.369601E-6	20.884578
2569.676767	-3.003500	2.947000	-8.850300	29.073280	2.260666E-6	20.864791
2570.674976	-3.035200	2.946000	-8.940700	29.022282	1.303596E-6	20.880735
2571.679396	-3.000800	2.945900	-8.839000	28.953323	4.950364E-8	20.873373
2572.676307	-2.999200	2.942400	-8.824100	28.907820	-8.250608E-8	20.880636
2573.679023	-3.000000	2.941100	-8.822700	28.961324	2.475182E-7	20.898501
2574.682205	-2.998000	2.940200	-8.813600	28.916290	-1.402603E-6	20.890116
2575.676505	-3.021600	2.938200	-8.877100	28.887009	2.145158E-7	20.884325
2576.677542	-2.997700	2.938100	-8.807100	29.000309	6.765498E-7	20.891787
2577.678332	-2.989900	2.934500	-8.772100	29.079889	2.475182E-7	20.900845
2578.677486	-2.999700	2.935100	-8.803600	29.126623	1.468608E-6	20.898149
2579.677182	-2.991000	2.932400	-8.769600	29.084422	1.270594E-6	20.906360
2580.680029	-3.026500	2.930200	-8.868000	29.058217	9.075668E-7	20.865261
2581.678300	-2.980800	2.928900	-8.729700	29.093833	9.735717E-7	20.886922
2582.677547	-3.009900	2.926500	-8.807300	29.071248	-2.095654E-6	20.873648
2583.681544	-2.978600	2.926600	-8.715700	29.025576	7.755571E-7	20.897803
2584.676798	-2.985900	2.924800	-8.731900	29.020325	1.072579E-6	20.905315
2585.676482	-3.029700	2.921500	-8.850400	29.015299	2.557688E-6	20.888872
2586.684388	-3.000200	2.920500	-8.760400	28.999495	-1.204589E-6	20.897605
2587.678843	-3.017600	2.918400	-8.805100	29.046407	6.105450E-7	20.905041
2588.678499	-2.990500	2.917000	-8.722500	29.078185	2.689698E-6	20.888224
2589.680574	-3.017400	2.915000	-8.794000	29.063201	-3.135231E-7	20.915323
2590.676108	-2.995600	2.913700	-8.727000	28.998209	-1.501611E-6	20.901998
2591.678077	-3.016000	2.913000	-8.785000	28.984292	-1.171586E-6	20.903623
2592.684067	-3.028600	2.910300	-8.812800	28.920855	-1.072579E-6	20.922213
2593.676994	-2.994600	2.907900	-8.707500	28.933762	1.155085E-7	20.899656
2594.676972	-2.999100	2.907500	-8.718700	28.919221	1.204589E-6	20.895439
2595.680429	-3.005600	2.903800	-8.726700	28.998634	1.485109E-7	20.890574
2596.680585	-3.004700	2.902400	-8.719700	28.949219	2.029649E-6	20.910486
2597.681833	-3.006300	2.901400	-8.720800	28.997296	-1.650122E-8	20.903923
2598.686950	-3.008100	2.899300	-8.719700	29.013050	7.425547E-7	20.913631
2599.683335	-3.016100	2.896500	-8.735300	29.056471	-8.415620E-7	20.915654
2600.679025	-2.992800	2.895900	-8.666100	29.122351	2.805207E-7	20.889104
2601.681633	-2.985800	2.895900	-8.645900	29.174433	2.689698E-6	20.899385
2602.679184	-2.987600	2.892700	-8.641800	29.241447	1.006574E-6	20.893422
2603.682694	-2.992500	2.890500	-8.649800	29.259646	2.260666E-6	20.903702
2604.683012	-2.983400	2.888100	-8.616000	29.224484	2.029649E-6	20.905725
2605.680992	-3.020400	2.886600	-8.718200	29.208636	1.303596E-6	20.911565
2606.682060	-2.973900	2.885500	-8.579900	29.213563	1.171586E-6	20.923641
2607.696058	-2.995500	2.882900	-8.635300	29.154747	1.155085E-7	20.899462
2608.681355	-3.005300	2.881000	-8.657500	29.195437	2.293669E-6	20.908695
2609.684559	-3.018600	2.879400	-8.690700	29.177976	1.963645E-6	20.911014
2610.685863	-3.025500	2.876900	-8.703300	29.161361	1.831635E-6	20.904704
2611.683109	-3.025300	2.875000	-8.697200	29.170797	1.402603E-6	20.923693
2612.684089	-2.993500	2.873500	-8.601200	29.142936	8.415620E-7	20.896095
2613.688379	-3.012500	2.872000	-8.651400	29.096844	1.435606E-6	20.926461
2614.687674	-2.972900	2.870300	-8.532400	29.132906	9.405693E-7	20.909695
2615.683402	-2.993900	2.868500	-8.586800	29.192838	-1.435606E-6	20.901335
2616.683409	-3.008100	2.864500	-8.615800	29.170180	-4.950365E-8	20.904108
2617.683078	-3.008700	2.865000	-8.618700	29.131127	-1.815134E-7	20.917859
2618.684956	-3.028800	2.863000	-8.671200	29.105986	-3.465255E-7	20.908174
2619.685655	-2.989900	2.860800	-8.552400	29.130802	-1.501611E-6	20.914687
2620.683707	-2.986000	2.858900	-8.535500	29.145167	1.138584E-6	20.920627
2621.685798	-3.019700	2.855700	-8.622600	29.182687	8.250607E-8	20.921451
2622.688667	-3.013700	2.855100	-8.603100	29.226002	4.950364E-8	20.909151
2623.685698	-2.999300	2.853300	-8.557500	29.272656	4.950364E-8	20.894054
2624.686879	-3.021000	2.850000	-8.609500	29.180807	-1.765630E-6	20.916238
2625.687309	-2.996100	2.848300	-8.532700	29.210526	1.501611E-6	20.922478
2626.688563	-2.998000	2.845000	-8.528800	29.255399	1.815134E-7	20.909853
2627.692173	-2.991000	2.843300	-8.503400	29.256589	2.805207E-7	20.903940
2628.689245	-3.009900	2.840800	-8.550000	29.281379	8.415620E-7	20.921809
2629.686768	-3.006600	2.838400	-8.532700	29.276401	3.250739E-6	20.918215
2630.691064	-2.974100	2.837300	-8.437800	29.293860	2.491683E-6	20.931542
2631.687593	-2.977600	2.836400	-8.444700	29.230023	2.656696E-6	20.923159
2632.687622	-2.975600	2.833600	-8.430700	29.176928	5.115377E-7	20.931293
2633.687356	-3.005600	2.829900	-8.504700	29.237726	1.402603E-6	20.929972
2634.687582	-3.023300	2.826700	-8.544900	29.267320	1.155085E-7	20.938458
2635.687958	-3.012100	2.826300	-8.512600	29.288763	2.590691E-6	20.932094
2636.688276	-2.979500	2.824500	-8.414500	29.277447	1.633620E-6	20.940129
2637.688203	-3.015200	2.821100	-8.505100	29.270515	1.072579E-6	20.944522
2638.688861	-3.007100	2.819600	-8.478000	29.311398	3.019722E-6	20.918397
2639.695099	-3.039700	2.815500	-8.557400	29.381050	8.745644E-7	20.932645
2640.691478	-3.032400	2.813500	-8.530700	29.344258	-5.775425E-7	20.926385
2641.692965	-3.019500	2.810800	-8.486000	29.385409	2.029649E-6	20.937512
2642.692459	-2.976300	2.810300	-8.363000	29.354335	2.557688E-6	20.929428
2643.691057	-2.992200	2.806100	-8.395400	29.460903	4.785352E-7	20.931577
2644.692536	-3.036700	2.802400	-8.509100	29.511753	-2.805207E-7	20.936365
2645.695937	-2.996300	2.801800	-8.394400	29.536313	2.029649E-6	20.941682
2646.690938	-3.017900	2.798900	-8.445700	29.446889	1.303596E-6	20.926461
2647.693937	-3.001700	2.794900	-8.388100	29.411955	6.765498E-7	20.925389
2648.689703	-3.003400	2.793600	-8.389500	29.352507	3.976793E-6	20.944179
2649.695390	-3.011100	2.790200	-8.400600	29.320020	-1.815134E-7	20.935620
2650.694142	-2.990500	2.787700	-8.336600	29.376007	5.775425E-7	20.944156
2651.693592	-2.997400	2.785600	-8.348400	29.375588	2.161659E-6	20.933778
2652.694017	-3.012900	2.782000	-8.380200	29.327848	2.293669E-6	20.946827
2653.696703	-2.993600	2.779500	-8.320200	29.324431	-6.105450E-7	20.932954
2654.695523	-3.012300	2.775400	-8.359800	29.344316	1.897640E-6	20.949199
2655.694316	-3.003400	2.774300	-8.331100	29.383168	7.755571E-7	20.944736
2656.694848	-3.006300	2.770600	-8.328600	29.481311	2.062652E-6	20.964472
2657.693384	-2.990400	2.769300	-8.280000	29.457198	9.405693E-7	20.938272
2658.698664	-2.976700	2.766600	-8.234700	29.482675	2.392676E-6	20.918911
2659.696776	-3.017400	2.761000	-8.330600	29.461012	1.600618E-6	20.938798
2660.696760	-2.993600	2.759200	-8.258600	29.506766	2.557688E-6	20.945088
2661.697463	-3.015400	2.755000	-8.305500	29.594427	1.633620E-6	20.943840
2662.697260	-3.007500	2.752300	-8.276400	29.650869	3.085727E-6	20.925826
2663.694572	-2.997900	2.749900	-8.242700	29.669312	4.075800E-6	20.933513
2664.700158	-3.007900	2.745600	-8.256400	29.657158	1.534613E-6	20.933588
2665.697684	-2.992100	2.742000	-8.203800	29.572522	-8.250608E-8	20.929820
2666.698412	-3.018200	2.738300	-8.263800	29.500010	2.260666E-6	20.935908
2667.703506	-3.002700	2.737000	-8.216800	29.577055	3.415751E-6	20.922536
2668.704109	-3.002900	2.732900	-8.205600	29.668819	3.349747E-6	20.940128
2669.698124	-2.958300	2.731600	-8.079600	29.657604	1.864637E-6	20.921710
2670.701261	-3.032200	2.725600	-8.263400	29.655725	2.590691E-6	20.925979
2671.702803	-3.018000	2.721200	-8.211500	29.669785	1.501611E-6	20.933515
2672.700733	-2.990700	2.719200	-8.131200	29.627702	2.326671E-6	20.913377
2673.700176	-2.996600	2.714900	-8.134500	29.683325	5.593912E-6	20.934838
2674.704677	-2.994700	2.711300	-8.118300	29.632455	2.854710E-6	20.934762
2675.699474	-3.001300	2.708400	-8.127600	29.614412	2.161659E-6	20.898558
2676.700759	-2.984600	2.703300	-8.067400	29.572647	2.524686E-6	20.928998
2677.703833	-2.978500	2.700900	-8.043700	29.520660	2.491683E-6	20.930172
2678.702428	-3.008700	2.695300	-8.108400	29.453268	4.405824E-6	20.909659
2679.704158	-3.001300	2.692400	-8.078700	29.526107	3.184734E-6	20.906742
2680.706484	-2.985400	2.687600	-8.022100	29.548661	3.910788E-6	20.914303
2681.704782	-3.007300	2.683200	-8.068000	29.542770	2.326671E-6	20.907417
2682.704573	-2.995700	2.678800	-8.024100	29.630007	2.887713E-6	20.912856
2683.706011	-3.000800	2.675800	-8.028000	29.699833	2.491683E-6	20.910706
2684.704285	-2.994700	2.671600	-8.000000	29.672557	3.118730E-6	20.892218
2685.705194	-2.974400	2.668000	-7.935000	29.601117	2.458681E-6	20.918818
2686.705705	-3.043400	2.660200	-8.094200	29.558362	3.778778E-6	20.891367
2687.704281	-3.011000	2.656700	-7.998900	29.567498	2.161659E-6	20.913377
2688.706987	-3.016800	2.651100	-7.997200	29.612676	3.019722E-6	20.901075
2689.709633	-2.977000	2.647300	-7.880200	29.661960	4.867858E-6	20.909508
2690.707338	-2.994900	2.642300	-7.912700	29.707580	1.534613E-6	20.920886
2691.705962	-2.999900	2.639300	-7.916000	29.774828	4.900861E-6	20.922781
2692.712064	-2.986000	2.633300	-7.862200	29.826260	2.491683E-6	20.894510
2693.706225	-3.009400	2.627800	-7.906900	29.895630	3.811781E-6	20.890966
2694.708014	-3.024000	2.623000	-7.930400	29.840289	2.359674E-6	20.912447
2695.709247	-2.993100	2.618200	-7.835400	29.801756	4.603839E-6	20.910578
2696.707244	-2.987400	2.614000	-7.808100	29.789874	2.128657E-6	20.909029
2697.705804	-2.986100	2.608800	-7.788900	29.772994	3.514759E-6	20.906708
2698.707492	-3.013600	2.601900	-7.839500	29.729354	3.646768E-6	20.906806
2699.709015	-2.997700	2.597900	-7.787100	29.727919	1.798632E-6	20.912470
2700.706784	-3.012200	2.591700	-7.805900	29.784921	3.151732E-6	20.888864
2701.709945	-2.983300	2.586800	-7.715900	29.799226	2.326671E-6	20.895226
2702.709029	-2.992800	2.579900	-7.719200	29.802941	1.930642E-6	20.901342
2703.708032	-3.020600	2.573200	-7.772000	29.772248	3.580764E-6	20.897897
2704.709472	-2.977400	2.569400	-7.649400	29.789821	1.501611E-6	20.895700
2705.708867	-2.987600	2.560700	-7.649700	29.819494	3.019722E-6	20.896696
2706.708101	-3.009200	2.555500	-7.688700	29.836843	2.458681E-6	20.895224
2707.711174	-3.000200	2.551000	-7.652300	29.894334	-8.250608E-8	20.893452
2708.711925	-2.990300	2.544200	-7.606400	29.943334	3.184734E-6	20.878854
2709.709368	-3.009600	2.538100	-7.637400	29.960261	6.765498E-7	20.901611
2710.716279	-3.012600	2.531200	-7.624800	29.944794	2.161659E-6	20.881274
2711.711684	-2.976600	2.525800	-7.517500	30.015741	9.075668E-7	20.896396
2712.711697	-2.993400	2.520200	-7.543100	30.069660	3.019722E-6	20.909996
2713.717181	-2.982300	2.514100	-7.497000	30.071147	2.425679E-6	20.892056
2714.712051	-3.003500	2.507000	-7.529000	30.030786	1.501611E-6	20.876483
2715.711040	-2.991800	2.502300	-7.485400	29.975456	-1.815134E-7	20.890384
2716.716540	-3.032700	2.493900	-7.562600	30.034001	1.204589E-6	20.865976
