LabVIEW Measurement	
Writer_Version	2
Reader_Version	2
Separator	Tab
Decimal_Separator	.
Multi_Headings	No
X_Columns	One
Time_Pref	Absolute
Operator	admin
Description	Clolumns are: time, Current, Voltage, Power, Battery Temp, and Chamber Temp
Date	2024/08/16
Time	13:07:17.8513970375061035156
***End_of_Header***	
	
Channels	6						
Samples	1	1	1	1	1	1	
Date	2024/09/08	2024/09/08	2024/09/08	2024/09/08	2024/09/08	2024/09/08	
Time	03:17:51.5528168678283691406	03:17:51.5601601600646972656	03:17:51.5681166648864746094	03:17:51.5367879867553710938	03:17:51.5367879867553710938	03:17:51.5367879867553710938	
X_Dimension	Time	Time	Time	Time	Time	Time	
X0	0.0000000000000000E+0	0.0000000000000000E+0	0.0000000000000000E+0	0.0000000000000000E+0	0.0000000000000000E+0	0.0000000000000000E+0	
Delta_X	1.000000	1.000000	1.000000	1.000000	1.000000	1.000000	
***End_of_Header***							
X_Value	Untitled	Untitled 1	Untitled 2	Untitled 3	Untitled 4	Untitled 5	Comment
0.000000	3.400000E+38	4.088700	0.253690	20.775374	0.000471	20.748347
1.000979	-3.006700	3.920000	-11.786000	20.777945	0.000470	20.786480
2.004470	-2.998200	3.915500	-11.739000	20.788826	0.000470	20.755635
3.006278	-2.988800	3.912100	-11.691000	20.796164	0.000468	20.776249
4.002780	-2.998800	3.907400	-11.717000	20.781787	0.000468	20.770407
5.003017	-3.001100	3.905200	-11.719000	20.803523	0.000465	20.760375
6.006200	-2.992200	3.900800	-11.671000	20.815851	0.000464	20.763694
7.001719	-2.993000	3.899100	-11.669000	20.817223	0.000465	20.759376
8.005651	-3.007400	3.896700	-11.718000	20.822838	0.000466	20.764991
9.004590	-2.994200	3.896400	-11.665000	20.821441	0.000464	20.733247
10.001834	-2.984600	3.895300	-11.625000	20.819344	0.000462	20.766713
11.003050	-2.984500	3.891800	-11.614000	20.833443	0.000463	20.761846
12.003386	-2.993500	3.892000	-11.649000	20.826281	0.000461	20.747096
13.004575	-2.999600	3.888600	-11.663000	20.860592	0.000462	20.753908
14.005006	-2.995900	3.889700	-11.652000	20.856874	0.000461	20.757777
15.005476	-3.004900	3.887800	-11.681000	20.871497	0.000463	20.742054
16.005244	-2.986800	3.887300	-11.610000	20.861714	0.000459	20.764040
17.005473	-2.992100	3.887300	-11.630000	20.881901	0.000458	20.742027
18.003496	-2.990100	3.886000	-11.619000	20.891832	0.000459	20.755753
19.007111	-2.992800	3.882700	-11.618000	20.910596	0.000458	20.756975
20.005754	-3.027000	3.882500	-11.752000	20.892954	0.000460	20.745495
21.004821	-2.979300	3.882500	-11.566000	20.913663	0.000459	20.741550
22.010149	-2.976800	3.882700	-11.555000	20.930232	0.000456	20.746267
23.008618	-2.988200	3.880600	-11.595000	20.924442	0.000456	20.749960
24.013031	-2.992000	3.881100	-11.611000	20.953461	0.000455	20.753852
25.009369	-2.985600	3.880800	-11.585000	20.951092	0.000456	20.726825
26.010981	-3.008300	3.879200	-11.669000	20.947246	0.000457	20.746213
27.013490	-2.994700	3.878900	-11.615000	20.971226	0.000456	20.743644
28.011227	-3.005900	3.877300	-11.654000	20.969428	0.000456	20.739949
29.012241	-2.988300	3.878200	-11.588000	20.962841	0.000455	20.718187
30.009453	-2.987400	3.877000	-11.581000	20.981854	0.000455	20.738626
31.009440	-2.989700	3.876100	-11.588000	20.992133	0.000454	20.731838
32.008655	-2.988600	3.875300	-11.581000	20.989736	0.000455	20.742717
33.008131	-3.016100	3.874000	-11.684000	21.007379	0.000455	20.730490
34.007766	-2.993700	3.876200	-11.604000	21.016685	0.000455	20.748334
35.010429	-2.974100	3.875500	-11.525000	21.021499	0.000456	20.735130
36.009126	-3.001100	3.873200	-11.623000	21.035622	0.000453	20.735032
37.010705	-3.003600	3.873600	-11.634000	21.027014	0.000453	20.743492
38.009613	-3.010900	3.873200	-11.660000	21.045003	0.000452	20.731612
39.011243	-2.996800	3.873000	-11.606000	21.066609	0.000452	20.731412
40.012882	-2.993100	3.873500	-11.593000	21.071076	0.000452	20.735880
41.014438	-3.018300	3.872100	-11.686000	21.074294	0.000451	20.741944
42.010627	-3.038300	3.871000	-11.761000	21.077190	0.000453	20.739625
43.013389	-2.995300	3.872900	-11.599000	21.099768	0.000451	20.745614
44.012241	-3.022500	3.870600	-11.698000	21.104709	0.000451	20.745814
45.014503	-3.000500	3.870900	-11.614000	21.109349	0.000450	20.740972
46.011492	-3.007700	3.870800	-11.641000	21.118654	0.000449	20.738900
47.011913	-3.014500	3.869400	-11.664000	21.138838	0.000451	20.721631
48.012639	-3.007000	3.869400	-11.634000	21.137017	0.000451	20.716964
49.012154	-3.001600	3.870200	-11.614000	21.155278	0.000451	20.734284
50.016757	-3.003800	3.869200	-11.621000	21.152535	0.000452	20.726323
51.017324	-2.996200	3.869000	-11.590000	21.161566	0.000451	20.729667
52.013471	-3.000700	3.869700	-11.611000	21.176160	0.000450	20.734309
53.012866	-2.995000	3.868100	-11.584000	21.187212	0.000451	20.728769
54.013845	-3.007100	3.868500	-11.632000	21.192200	0.000450	20.742295
55.012824	-2.984100	3.869700	-11.546000	21.206745	0.000450	20.727921
56.016047	-3.013100	3.869200	-11.657000	21.214728	0.000452	20.740174
57.016295	-3.000400	3.868500	-11.606000	21.223285	0.000452	20.743518
58.012706	-3.013200	3.867100	-11.650000	21.217572	0.000450	20.732113
59.013426	-3.005000	3.866900	-11.619000	21.240722	0.000449	20.732038
60.014482	-2.999400	3.866200	-11.596000	21.225106	0.000449	20.748659
61.016300	-3.005600	3.867600	-11.624000	21.238776	0.000450	20.745739
62.014945	-2.979100	3.867600	-11.521000	21.252771	0.000451	20.729867
63.014087	-2.999700	3.866200	-11.596000	21.270306	0.000449	20.739349
64.015715	-2.994100	3.865900	-11.574000	21.277442	0.000450	20.716615
65.025385	-2.989800	3.866400	-11.559000	21.295079	0.000450	20.717190
66.015066	-3.009200	3.864900	-11.628000	21.297050	0.000449	20.734810
67.016854	-3.012000	3.865500	-11.641000	21.305904	0.000449	20.727072
68.015072	-2.980800	3.865600	-11.521000	21.329328	0.000448	20.720160
69.016109	-2.978800	3.865400	-11.513000	21.323242	0.000450	20.721184
70.019798	-3.016200	3.863200	-11.652000	21.341475	0.000450	20.724727
71.017984	-3.024000	3.863100	-11.680000	21.343471	0.000450	20.727672
72.018993	-2.990000	3.866300	-11.559000	21.360532	0.000449	20.739052
73.015304	-3.013100	3.864000	-11.641000	21.358037	0.000450	20.728021
74.016605	-2.993400	3.864200	-11.566000	21.373850	0.000449	20.716814
75.015390	-2.999500	3.865000	-11.592000	21.390788	0.000450	20.736606
76.020412	-3.005100	3.864200	-11.610000	21.378441	0.000448	20.751755
77.021044	-3.006200	3.863200	-11.613000	21.379737	0.000449	20.739775
78.018852	-3.014300	3.862700	-11.643000	21.405654	0.000449	20.714969
79.017188	-3.013000	3.863300	-11.639000	21.410767	0.000449	20.718662
80.018273	-3.007600	3.862800	-11.617000	21.407424	0.000452	20.724328
81.021130	-3.018800	3.863000	-11.661000	21.407424	0.000448	20.727647
82.017819	-3.012200	3.862000	-11.632000	21.449876	0.000451	20.735509
83.023316	-2.996900	3.863800	-11.578000	21.440173	0.000449	20.741448
84.019578	-3.020500	3.862100	-11.664000	21.449202	0.000451	20.727722
85.018410	-3.005600	3.863100	-11.609000	21.454166	0.000451	20.758295
86.020176	-3.003000	3.861400	-11.596000	21.483795	0.000450	20.734835
87.021432	-2.994000	3.861200	-11.560000	21.494371	0.000449	20.744943
88.019382	-2.986300	3.863000	-11.536000	21.489630	0.000451	20.736880
89.017947	-2.993800	3.862500	-11.562000	21.504322	0.000451	20.737830
90.018957	-2.992000	3.861400	-11.553000	21.531305	0.000451	20.750132
91.018693	-2.978400	3.862700	-11.503000	21.513450	0.000452	20.737007
92.020651	-2.999100	3.861700	-11.581000	21.524997	0.000451	20.712997
93.020060	-2.995500	3.860300	-11.563000	21.526767	0.000453	20.729468
94.029637	-2.982800	3.861400	-11.517000	21.557070	0.000452	20.740351
95.020613	-2.997500	3.859400	-11.568000	21.560610	0.000455	20.734885
96.022269	-2.985600	3.860300	-11.524000	21.551956	0.000450	20.728121
97.025763	-2.994000	3.859600	-11.555000	21.562033	0.000451	20.740102
98.030631	-3.005200	3.859200	-11.596000	21.569139	0.000452	20.728246
99.022682	-3.008600	3.860100	-11.612000	21.586373	0.000453	20.742647
100.022206	-2.999900	3.859900	-11.579000	21.581060	0.000453	20.723105
101.023539	-3.001100	3.858500	-11.579000	21.605424	0.000451	20.738952
102.025180	-2.990900	3.859200	-11.540000	21.589589	0.000451	20.739702
103.023304	-3.009000	3.859100	-11.611000	21.608093	0.000452	20.752529
104.024530	-3.024400	3.858400	-11.668000	21.636447	0.000450	20.726849
105.025280	-3.014000	3.857800	-11.625000	21.631759	0.000453	20.762462
106.027317	-3.004900	3.859900	-11.597000	21.628743	0.000452	20.757072
107.023431	-3.009500	3.857400	-11.608000	21.655475	0.000452	20.733088
108.022791	-2.989300	3.858900	-11.534000	21.656424	0.000453	20.739728
109.024057	-2.984300	3.859900	-11.517000	21.659340	0.000452	20.741699
110.026748	-3.010500	3.858700	-11.616000	21.679865	0.000454	20.731418
111.023222	-3.000500	3.857000	-11.571000	21.682209	0.000456	20.730445
112.023975	-2.984700	3.857200	-11.511000	21.664355	0.000454	20.762365
113.025619	-2.998400	3.858200	-11.568000	21.711408	0.000453	20.737382
114.024044	-3.008100	3.855400	-11.597000	21.717144	0.000456	20.748813
115.030274	-2.999800	3.857500	-11.571000	21.712406	0.000453	20.755451
116.023379	-2.980800	3.857700	-11.498000	21.725423	0.000454	20.735761
117.023953	-2.986100	3.857900	-11.519000	21.726197	0.000456	20.754555
118.027805	-2.979200	3.856000	-11.487000	21.723928	0.000452	20.750861
119.024428	-3.002200	3.857300	-11.579000	21.755496	0.000458	20.743573
120.023360	-3.034100	3.855400	-11.696000	21.746469	0.000457	20.741652
121.023737	-2.995700	3.857400	-11.554000	21.786913	0.000455	20.757949
122.024538	-3.023900	3.855100	-11.656000	21.765419	0.000456	20.743548
123.022434	-2.992300	3.855100	-11.535000	21.778536	0.000456	20.758573
124.024386	-3.020400	3.854200	-11.640000	21.815737	0.000457	20.750761
125.026661	-3.013700	3.855500	-11.618000	21.813743	0.000456	20.740231
126.027118	-2.971100	3.855400	-11.454000	21.815388	0.000456	20.750886
127.024726	-2.999200	3.856000	-11.564000	21.825113	0.000459	20.773423
128.023473	-2.989200	3.855600	-11.523000	21.818405	0.000456	20.761493
129.028512	-3.005500	3.854000	-11.583000	21.843987	0.000458	20.759597
130.025137	-2.986500	3.855600	-11.514000	21.837231	0.000461	20.745248
131.026366	-3.011500	3.854100	-11.606000	21.853538	0.000458	20.758251
132.024730	-2.990000	3.854800	-11.525000	21.869394	0.000458	20.780286
133.025704	-2.993800	3.854900	-11.540000	21.873906	0.000459	20.756353
134.025858	-2.991200	3.854100	-11.527000	21.886971	0.000460	20.763741
135.026721	-2.989500	3.854900	-11.523000	21.865829	0.000458	20.775770
136.029541	-2.967300	3.854100	-11.435000	21.904275	0.000461	20.767784
137.026906	-3.004200	3.853500	-11.575000	21.920554	0.000458	20.742353
138.027768	-2.994400	3.852700	-11.535000	21.890361	0.000458	20.759547
139.025862	-3.001500	3.853100	-11.564000	21.935935	0.000459	20.738309
140.030256	-3.004700	3.853400	-11.577000	21.927334	0.000458	20.763839
141.027726	-2.988000	3.854200	-11.516000	21.931048	0.000460	20.772299
142.028975	-3.016900	3.851900	-11.619000	21.938204	0.000460	20.757176
143.029020	-3.005700	3.853200	-11.581000	21.955830	0.000460	20.796157
144.026920	-3.011700	3.853300	-11.604000	21.962833	0.000460	20.778037
145.027112	-3.013200	3.853200	-11.609000	21.964129	0.000461	20.760368
146.028318	-3.013300	3.850500	-11.602000	21.964852	0.000461	20.756824
147.031387	-3.015500	3.851800	-11.613000	21.981630	0.000461	20.745644
148.029561	-3.002400	3.851800	-11.564000	22.000650	0.000460	20.762313
149.027888	-3.010100	3.850600	-11.590000	22.010098	0.000463	20.770823
150.031425	-3.001900	3.850500	-11.558000	22.028821	0.000464	20.754004
151.027605	-3.017300	3.849700	-11.614000	22.010772	0.000464	20.782403
152.030066	-3.034000	3.848900	-11.676000	22.032161	0.000462	20.782004
153.029428	-3.014200	3.849800	-11.603000	22.021863	0.000464	20.758892
154.030612	-3.014500	3.850500	-11.606000	22.040885	0.000463	20.780781
155.029981	-3.012200	3.849400	-11.594000	22.069527	0.000466	20.768202
156.028011	-3.024400	3.849700	-11.642000	22.065488	0.000465	20.760839
157.032658	-3.013200	3.849800	-11.599000	22.056837	0.000465	20.766878
158.033043	-2.993600	3.851100	-11.527000	22.071968	0.000465	20.763060
159.032307	-3.018000	3.850700	-11.619000	22.091212	0.000464	20.768100
160.033751	-3.001400	3.849400	-11.553000	22.098391	0.000466	20.789513
161.032172	-3.029800	3.848300	-11.659000	22.096445	0.000465	20.779978
162.031290	-3.014800	3.850000	-11.606000	22.125235	0.000467	20.788887
163.032787	-3.006900	3.849600	-11.574000	22.098213	0.000468	20.777480
164.039212	-3.006400	3.847700	-11.567000	22.113719	0.000466	20.767873
165.038140	-2.975300	3.849700	-11.453000	22.116360	0.000466	20.788536
166.036814	-2.979800	3.849000	-11.468000	22.139865	0.000466	20.785042
167.034012	-3.012700	3.848000	-11.591000	22.148190	0.000469	20.784841
168.038092	-2.997500	3.848600	-11.535000	22.147592	0.000467	20.791354
169.033836	-3.027600	3.848200	-11.650000	22.167956	0.000469	20.794199
170.035056	-3.000700	3.849200	-11.550000	22.191784	0.000467	20.794348
171.034043	-2.988400	3.847800	-11.498000	22.171643	0.000469	20.795046
172.035980	-3.004200	3.846100	-11.553000	22.203548	0.000468	20.783367
173.035293	-2.992200	3.847000	-11.511000	22.193054	0.000470	20.781395
174.038868	-2.997900	3.846700	-11.532000	22.200930	0.000469	20.802557
175.038468	-3.024900	3.846600	-11.634000	22.208581	0.000470	20.797889
176.036577	-3.008700	3.845100	-11.568000	22.223710	0.000470	20.789329
177.041559	-3.006700	3.847000	-11.566000	22.221244	0.000470	20.798240
178.036583	-2.988900	3.846500	-11.495000	22.232284	0.000470	20.790328
179.038238	-3.010200	3.845800	-11.576000	22.241432	0.000472	20.772934
180.037102	-3.007400	3.846400	-11.567000	22.276723	0.000472	20.789778
181.040589	-3.009500	3.845800	-11.573000	22.245143	0.000473	20.782341
182.038011	-3.016100	3.845800	-11.599000	22.288858	0.000472	20.799559
183.038499	-3.009900	3.845000	-11.573000	22.282579	0.000473	20.782840
184.040135	-2.991200	3.846200	-11.503000	22.293545	0.000476	20.792872
185.040426	-3.022200	3.844500	-11.618000	22.294766	0.000471	20.777499
186.040075	-3.023300	3.846000	-11.627000	22.294866	0.000476	20.784237
187.041961	-3.015400	3.844900	-11.594000	22.330405	0.000473	20.781891
188.043186	-3.018500	3.844900	-11.606000	22.322704	0.000475	20.795991
189.039239	-3.027100	3.844700	-11.637000	22.340248	0.000475	20.802178
190.042610	-2.963300	3.845500	-11.395000	22.348524	0.000475	20.798612
191.042627	-2.996500	3.843500	-11.515000	22.312633	0.000473	20.786381
192.042992	-2.991100	3.844000	-11.496000	22.324596	0.000475	20.789825
193.042725	-2.982300	3.844000	-11.464000	22.340820	0.000476	20.799432
194.045183	-2.998300	3.844500	-11.526000	22.347474	0.000475	20.815104
195.047465	-2.988800	3.843500	-11.487000	22.323424	0.000477	20.812359
196.043033	-2.990400	3.842900	-11.491000	22.355223	0.000477	20.806269
197.044437	-3.000000	3.843000	-11.528000	22.379721	0.000478	20.819420
198.044039	-2.990000	3.844500	-11.494000	22.378675	0.000477	20.786131
199.044998	-2.982800	3.842700	-11.461000	22.395321	0.000478	20.795213
200.047639	-2.986500	3.843700	-11.479000	22.393701	0.000478	20.789797
201.049610	-2.983900	3.843800	-11.467000	22.388542	0.000480	20.794589
202.044767	-2.997600	3.840700	-11.512000	22.393052	0.000478	20.822812
203.044747	-2.994200	3.841400	-11.501000	22.392677	0.000479	20.803945
204.049074	-3.010900	3.840900	-11.564000	22.408102	0.000479	20.809909
205.045434	-2.998800	3.842100	-11.521000	22.415729	0.000480	20.821340
206.047721	-2.999000	3.840600	-11.517000	22.424201	0.000479	20.786675
207.045586	-3.004900	3.840600	-11.540000	22.466190	0.000480	20.813077
208.047163	-3.003500	3.841300	-11.536000	22.457444	0.000480	20.821862
209.047385	-2.980700	3.842500	-11.452000	22.447749	0.000481	20.827801
210.048886	-3.020000	3.840100	-11.597000	22.478823	0.000481	20.817195
211.048627	-2.971500	3.841100	-11.413000	22.482336	0.000482	20.806962
212.045755	-3.018900	3.839300	-11.590000	22.489736	0.000482	20.795407
213.046832	-2.995900	3.840000	-11.503000	22.507976	0.000482	20.815096
214.050253	-3.004500	3.840500	-11.538000	22.510293	0.000482	20.819313
215.047803	-2.976400	3.841300	-11.433000	22.511688	0.000485	20.823556
216.053549	-3.010300	3.839000	-11.555000	22.524419	0.000483	20.823030
217.045612	-3.018500	3.838100	-11.585000	22.504710	0.000485	20.803291
218.048180	-3.018400	3.839900	-11.590000	22.554743	0.000486	20.833010
219.049818	-3.008500	3.838400	-11.548000	22.537926	0.000485	20.827073
220.049643	-3.009800	3.838700	-11.553000	22.533165	0.000484	20.824202
221.047962	-3.016200	3.838800	-11.578000	22.543330	0.000485	20.814469
222.050923	-2.991500	3.839000	-11.483000	22.556810	0.000486	20.814218
223.046326	-3.003800	3.838000	-11.528000	22.560896	0.000486	20.823526
224.047015	-3.028100	3.838000	-11.622000	22.584541	0.000488	20.813070
225.051867	-3.037800	3.836800	-11.654000	22.594855	0.000486	20.811071
226.046176	-3.011500	3.837900	-11.557000	22.607787	0.000488	20.831136
227.050403	-3.009100	3.836800	-11.545000	22.612719	0.000484	20.828964
228.047265	-2.995400	3.837800	-11.495000	22.592340	0.000486	20.829889
229.048333	-2.981400	3.836600	-11.437000	22.598317	0.000487	20.836350
230.047945	-2.993600	3.835900	-11.482000	22.605792	0.000488	20.829138
231.049311	-3.009100	3.836300	-11.543000	22.618124	0.000488	20.822997
232.051210	-2.991600	3.837000	-11.478000	22.599013	0.000487	20.828986
233.050060	-3.004400	3.835500	-11.523000	22.611173	0.000486	20.839742
234.051427	-2.987400	3.836300	-11.460000	22.609078	0.000490	20.819627
235.051800	-3.016600	3.833900	-11.565000	22.649540	0.000490	20.821273
236.051162	-2.997900	3.834800	-11.495000	22.655119	0.000489	20.825438
237.051346	-2.995800	3.835200	-11.489000	22.680856	0.000488	20.827510
238.052385	-2.983500	3.834600	-11.439000	22.694259	0.000489	20.822918
239.051746	-2.990500	3.834900	-11.467000	22.695281	0.000489	20.827260
240.053081	-2.998300	3.834600	-11.497000	22.703975	0.000490	20.822692
241.053859	-3.007300	3.834100	-11.529000	22.758459	0.000492	20.836491
242.052649	-2.997500	3.833300	-11.490000	22.748842	0.000492	20.832073
243.056989	-2.994800	3.833500	-11.479000	22.729585	0.000491	20.834594
244.053560	-2.982000	3.834500	-11.433000	22.721288	0.000490	20.836715
245.055589	-2.982200	3.833900	-11.433000	22.735887	0.000492	20.825260
246.055867	-3.016900	3.833500	-11.564000	22.735537	0.000493	20.857151
247.055776	-3.001700	3.832300	-11.503000	22.754396	0.000493	20.828154
248.055159	-2.990200	3.833900	-11.464000	22.760076	0.000493	20.837162
249.057538	-3.005900	3.831800	-11.516000	22.790667	0.000494	20.823711
250.055374	-2.997000	3.832700	-11.486000	22.782522	0.000495	20.828354
251.056024	-2.994500	3.832400	-11.475000	22.804867	0.000494	20.817547
252.057569	-2.988300	3.831600	-11.449000	22.769716	0.000496	20.859146
253.056769	-2.983200	3.833000	-11.434000	22.795949	0.000494	20.863139
254.063416	-3.016000	3.830900	-11.553000	22.812415	0.000495	20.828428
255.056693	-2.985100	3.831300	-11.436000	22.835333	0.000495	20.826730
256.063966	-2.982600	3.832200	-11.428000	22.861363	0.000495	20.849013
257.057224	-3.006800	3.831300	-11.519000	22.843504	0.000497	20.834441
258.056602	-3.013400	3.831200	-11.544000	22.848460	0.000498	20.858846
259.059249	-2.998700	3.830500	-11.486000	22.877431	0.000497	20.841877
260.061958	-2.994800	3.830000	-11.469000	22.873520	0.000496	20.846019
261.058869	-2.978700	3.831800	-11.413000	22.867017	0.000497	20.854203
262.059011	-2.997300	3.830300	-11.480000	22.855360	0.000497	20.849163
263.060534	-3.007900	3.830100	-11.520000	22.872648	0.000498	20.846568
264.065641	-2.996700	3.831100	-11.480000	22.883234	0.000497	20.865233
265.063208	-3.004600	3.829000	-11.503000	22.860291	0.000496	20.858370
266.059775	-3.001600	3.830500	-11.497000	22.873245	0.000499	20.832468
267.062260	-2.989000	3.829700	-11.446000	22.878998	0.000499	20.861464
268.066456	-3.000000	3.828400	-11.484000	22.910833	0.000501	20.856373
269.062037	-2.980900	3.830000	-11.416000	22.911630	0.000501	20.860965
270.062784	-2.992000	3.829000	-11.455000	22.920747	0.000501	20.872469
271.061442	-3.004500	3.829300	-11.504000	22.909388	0.000498	20.865831
272.062975	-3.004900	3.828200	-11.502000	22.938256	0.000503	20.871519
273.060749	-2.996900	3.827300	-11.469000	22.941146	0.000501	20.865880
274.062483	-3.008000	3.827900	-11.513000	22.941071	0.000502	20.853951
275.068578	-2.984700	3.827300	-11.423000	22.917182	0.000503	20.854200
276.069901	-3.011000	3.826300	-11.519000	22.925526	0.000503	20.862085
277.064865	-3.003700	3.827600	-11.496000	22.923508	0.000503	20.855796
278.063181	-2.986400	3.827400	-11.429000	22.942887	0.000503	20.867150
279.066557	-3.031000	3.826100	-11.596000	22.937631	0.000502	20.863307
280.072861	-2.999900	3.827200	-11.479000	22.974319	0.000503	20.880623
281.065506	-2.995300	3.827300	-11.462000	23.005205	0.000504	20.871740
282.065577	-3.002700	3.825700	-11.487000	22.990958	0.000506	20.866000
283.069620	-3.019200	3.825700	-11.550000	22.981741	0.000504	20.869094
284.070913	-2.991600	3.826500	-11.447000	23.012302	0.000503	20.861308
285.068138	-3.021400	3.824300	-11.554000	23.004905	0.000506	20.870017
286.065912	-2.975200	3.825300	-11.380000	23.001567	0.000506	20.871889
287.069007	-3.007300	3.825100	-11.503000	23.006921	0.000508	20.893373
288.065594	-2.990800	3.824800	-11.438000	23.049587	0.000507	20.888232
289.065939	-2.969300	3.826200	-11.359000	23.051653	0.000508	20.877027
290.066801	-2.999000	3.824700	-11.469000	23.060121	0.000508	20.876977
291.068337	-3.007700	3.822300	-11.496000	23.052351	0.000508	20.877727
292.067894	-2.999200	3.823800	-11.467000	23.106072	0.000509	20.874183
293.066619	-3.003700	3.823500	-11.484000	23.090581	0.000509	20.886635
294.069074	-2.982600	3.822500	-11.401000	23.117577	0.000509	20.869116
295.068312	-3.004100	3.823300	-11.485000	23.109233	0.000509	20.886358
296.069330	-3.010000	3.822700	-11.505000	23.113914	0.000508	20.849326
297.069846	-3.016400	3.823600	-11.532000	23.086869	0.000507	20.869166
298.075029	-2.993900	3.822800	-11.444000	23.079073	0.000510	20.860881
299.070584	-3.002600	3.822600	-11.477000	23.067293	0.000510	20.881792
300.069384	-3.014600	3.823500	-11.525000	23.104626	0.000510	20.874630
301.073832	-3.006100	3.822000	-11.489000	23.100915	0.000508	20.868068
302.073789	-3.011300	3.822100	-11.508000	23.128783	0.000511	20.871811
303.071925	-3.011600	3.820800	-11.506000	23.128908	0.000509	20.896590
304.071871	-3.004800	3.821700	-11.483000	23.152069	0.000510	20.861954
305.073641	-3.007500	3.821100	-11.491000	23.171544	0.000512	20.864400
306.073111	-2.977200	3.822000	-11.378000	23.189997	0.000511	20.870563
307.073542	-3.012600	3.821100	-11.511000	23.195327	0.000512	20.885386
308.071964	-3.010500	3.820300	-11.500000	23.192811	0.000511	20.876228
309.073766	-3.001200	3.820800	-11.466000	23.185465	0.000511	20.862704
310.074380	-3.017200	3.819900	-11.525000	23.180759	0.000513	20.879797
311.072054	-3.024300	3.819900	-11.552000	23.192313	0.000513	20.860557
312.077215	-3.000600	3.819000	-11.458000	23.164546	0.000513	20.852173
313.072238	-3.012500	3.819100	-11.504000	23.175181	0.000514	20.869466
314.071964	-3.004000	3.819200	-11.472000	23.194679	0.000513	20.855815
315.073257	-3.013700	3.819300	-11.510000	23.197567	0.000512	20.847331
316.073183	-3.009700	3.818600	-11.492000	23.200107	0.000513	20.834703
317.073465	-3.010000	3.818400	-11.492000	23.217538	0.000513	20.846956
318.075688	-3.011300	3.817100	-11.493000	23.223641	0.000516	20.857812
319.074577	-3.006300	3.817600	-11.476000	23.236116	0.000515	20.854667
320.072927	-3.006000	3.818600	-11.478000	23.241743	0.000514	20.856513
321.077933	-3.007800	3.818500	-11.485000	23.258553	0.000514	20.838747
322.077489	-3.003700	3.817100	-11.465000	23.241718	0.000514	20.855540
323.076319	-2.996000	3.817800	-11.438000	23.251828	0.000515	20.858559
324.072949	-3.002400	3.816600	-11.458000	23.254295	0.000516	20.859609
325.075566	-3.003900	3.817200	-11.466000	23.255712	0.000515	20.862926
326.074389	-2.999300	3.816400	-11.445000	23.268735	0.000516	20.838046
327.074450	-3.006200	3.816100	-11.471000	23.288356	0.000514	20.855813
328.075482	-3.011200	3.814600	-11.485000	23.291793	0.000516	20.855464
329.074062	-2.994700	3.815200	-11.425000	23.287659	0.000515	20.850372
330.076560	-3.008200	3.815400	-11.476000	23.306733	0.000518	20.856686
331.078037	-3.006800	3.815400	-11.471000	23.292590	0.000518	20.850572
332.076315	-3.001400	3.815800	-11.452000	23.327796	0.000517	20.845080
333.079096	-2.994800	3.814900	-11.423000	23.316092	0.000519	20.849945
334.078007	-3.014200	3.814300	-11.496000	23.357575	0.000517	20.848847
335.074588	-2.987200	3.814800	-11.394000	23.379486	0.000519	20.849471
336.077383	-2.998400	3.814000	-11.435000	23.369027	0.000518	20.838040
337.077280	-2.979800	3.815300	-11.368000	23.380481	0.000518	20.859002
338.076958	-2.978100	3.813200	-11.354000	23.364718	0.000519	20.848894
339.077769	-2.986100	3.813800	-11.388000	23.388795	0.000520	20.845051
340.076082	-3.006600	3.812900	-11.463000	23.402862	0.000520	20.827857
341.078229	-2.989100	3.812400	-11.395000	23.399276	0.000518	20.834693
342.078267	-2.979600	3.813200	-11.361000	23.363969	0.000521	20.825858
343.083197	-3.007700	3.812900	-11.467000	23.390859	0.000520	20.830999
344.078514	-2.995400	3.812400	-11.419000	23.383439	0.000522	20.829251
345.079911	-2.993900	3.811200	-11.409000	23.344719	0.000523	20.821739
346.078197	-3.013800	3.812100	-11.488000	23.361477	0.000522	20.828577
347.083382	-2.990000	3.812300	-11.397000	23.389935	0.000524	20.822487
348.080542	-3.018800	3.811100	-11.503000	23.420436	0.000523	20.838833
349.091959	-3.016600	3.811200	-11.497000	23.442469	0.000522	20.833890
350.081641	-2.964200	3.811700	-11.297000	23.439529	0.000524	20.834736
351.079587	-2.995000	3.810300	-11.410000	23.420780	0.000523	20.833014
352.082806	-2.996500	3.809100	-11.413000	23.410648	0.000523	20.840875
353.080910	-2.993100	3.810000	-11.402000	23.398497	0.000525	20.818265
354.084646	-3.000500	3.810600	-11.433000	23.395783	0.000522	20.834511
355.083700	-3.009000	3.808400	-11.458000	23.444059	0.000525	20.813672
356.082681	-3.001000	3.808400	-11.429000	23.471072	0.000523	20.807559
357.083519	-3.008500	3.807700	-11.455000	23.475603	0.000524	20.821583
358.087439	-2.995800	3.810400	-11.414000	23.482424	0.000524	20.810876
359.083037	-2.988700	3.809400	-11.384000	23.509136	0.000524	20.827221
360.087893	-3.018900	3.808400	-11.496000	23.523948	0.000527	20.833534
361.084249	-3.000000	3.807800	-11.422000	23.543417	0.000525	20.807057
362.085423	-3.008200	3.806800	-11.451000	23.566144	0.000526	20.815615
363.094301	-3.010500	3.806700	-11.459000	23.562186	0.000526	20.825871
364.083559	-3.018700	3.807200	-11.491000	23.585139	0.000526	20.818535
365.089850	-2.994600	3.807100	-11.400000	23.552751	0.000525	20.814042
366.085701	-3.019100	3.805700	-11.489000	23.547546	0.000524	20.834429
367.083716	-2.980200	3.807700	-11.347000	23.513738	0.000526	20.811445
368.087832	-2.993400	3.805500	-11.390000	23.536044	0.000525	20.817684
369.084319	-2.988700	3.806900	-11.377000	23.522102	0.000526	20.830735
370.088002	-2.968800	3.807300	-11.302000	23.533130	0.000527	20.811444
371.086974	-2.996100	3.805500	-11.400000	23.491852	0.000526	20.820802
372.085582	-2.993100	3.805900	-11.390000	23.509777	0.000528	20.806053
373.085790	-2.985200	3.803900	-11.354000	23.498748	0.000527	20.824869
374.086387	-3.001600	3.804700	-11.418000	23.537784	0.000527	20.826540
375.085330	-3.003000	3.804600	-11.425000	23.547666	0.000526	20.827911
376.090260	-2.995300	3.805100	-11.396000	23.511842	0.000529	20.824243
377.086142	-2.999800	3.805100	-11.413000	23.520479	0.000527	20.816306
378.085110	-2.990600	3.803800	-11.375000	23.533127	0.000528	20.814760
379.088691	-3.000200	3.804300	-11.413000	23.558568	0.000529	20.808021
380.088537	-2.994900	3.805500	-11.396000	23.572958	0.000529	20.809643
381.091649	-3.021300	3.803800	-11.492000	23.565016	0.000530	20.798362
382.088580	-3.002600	3.802300	-11.416000	23.559091	0.000528	20.807596
383.088146	-2.989500	3.802500	-11.367000	23.547938	0.000528	20.794993
384.096088	-3.000600	3.802500	-11.409000	23.544876	0.000530	20.799037
385.089321	-3.010400	3.802100	-11.445000	23.542808	0.000528	20.798860
386.091287	-2.998400	3.802500	-11.401000	23.538128	0.000531	20.814557
387.092393	-2.962300	3.802700	-11.263000	23.579925	0.000530	20.823740
388.089495	-2.985200	3.802100	-11.350000	23.604073	0.000530	20.823291
389.089313	-2.991600	3.802000	-11.373000	23.597849	0.000530	20.802353
390.093849	-3.004800	3.800400	-11.419000	23.609199	0.000529	20.799981
391.090028	-3.012100	3.801400	-11.450000	23.597473	0.000531	20.802451
392.093872	-2.997300	3.800200	-11.389000	23.627396	0.000533	20.809688
393.092847	-2.979000	3.801900	-11.325000	23.650769	0.000530	20.798981
394.093786	-2.995400	3.798600	-11.376000	23.647012	0.000531	20.795214
395.095060	-3.018700	3.799700	-11.469000	23.675363	0.000533	20.803723
396.094148	-3.012800	3.798700	-11.443000	23.656843	0.000534	20.791794
397.098957	-2.991600	3.799300	-11.364000	23.667298	0.000531	20.791370
398.094786	-3.007300	3.799900	-11.426000	23.660725	0.000534	20.803272
399.094826	-3.009400	3.799400	-11.433000	23.670607	0.000530	20.794214
400.092845	-3.005900	3.798400	-11.417000	23.669162	0.000531	20.805093
401.098534	-2.997600	3.797400	-11.381000	23.664358	0.000535	20.788896
402.093999	-3.013800	3.797900	-11.444000	23.678523	0.000534	20.819692
403.097214	-2.992700	3.797000	-11.363000	23.694452	0.000536	20.786825
404.094570	-2.990400	3.797400	-11.354000	23.706225	0.000535	20.785826
405.094921	-2.990400	3.797500	-11.355000	23.724894	0.000535	20.783206
406.100741	-2.987900	3.797200	-11.344000	23.759914	0.000535	20.802671
407.098566	-2.989800	3.797200	-11.352000	23.765514	0.000535	20.795009
408.101597	-2.992900	3.795300	-11.358000	23.769845	0.000535	20.794610
409.104348	-2.988800	3.798100	-11.350000	23.747892	0.000535	20.786349
410.098065	-3.004100	3.795600	-11.402000	23.730044	0.000535	20.795482
411.100297	-2.988300	3.796100	-11.343000	23.729398	0.000534	20.776342
412.099749	-2.993100	3.794800	-11.357000	23.747667	0.000534	20.772847
413.099251	-2.976400	3.796400	-11.299000	23.749359	0.000535	20.803942
414.098863	-2.976900	3.794500	-11.295000	23.772557	0.000538	20.806812
415.096784	-2.998100	3.795100	-11.377000	23.802498	0.000534	20.798900
416.099806	-3.019900	3.793900	-11.456000	23.783084	0.000537	20.783702
417.097356	-3.008800	3.794500	-11.416000	23.790426	0.000538	20.781106
418.101210	-3.008400	3.793400	-11.411000	23.781166	0.000537	20.780356
419.101925	-2.999600	3.793300	-11.377000	23.776139	0.000534	20.788118
420.100225	-3.004500	3.793400	-11.397000	23.751223	0.000538	20.785896
421.102571	-3.007400	3.793500	-11.407000	23.754284	0.000536	20.777111
422.099733	-2.998100	3.793600	-11.373000	23.766903	0.000538	20.794505
423.103996	-3.001400	3.792100	-11.380000	23.796944	0.000538	20.788590
424.102010	-3.000500	3.792000	-11.377000	23.794032	0.000539	20.792782
425.101151	-2.996800	3.792800	-11.366000	23.775912	0.000538	20.781726
426.102205	-3.002600	3.791700	-11.385000	23.796172	0.000538	20.776435
427.103639	-3.009200	3.792300	-11.411000	23.786789	0.000541	20.771769
428.106431	-3.004700	3.791400	-11.391000	23.802692	0.000538	20.783922
429.106166	-3.009000	3.791400	-11.408000	23.832758	0.000538	20.768549
430.105801	-2.989800	3.792400	-11.337000	23.828701	0.000539	20.792457
431.107248	-3.012300	3.790900	-11.418000	23.857098	0.000538	20.780627
432.107191	-2.978200	3.790200	-11.287000	23.834997	0.000539	20.793554
433.107493	-2.960500	3.792000	-11.224000	23.851698	0.000540	20.779953
434.109304	-2.998000	3.790000	-11.362000	23.875591	0.000538	20.768350
435.108878	-2.979500	3.790300	-11.291000	23.892663	0.000538	20.776459
436.106967	-2.990100	3.788600	-11.327000	23.878901	0.000539	20.786842
437.109932	-2.995000	3.788500	-11.346000	23.881364	0.000542	20.761810
438.108142	-2.998300	3.787900	-11.357000	23.870663	0.000538	20.775262
439.109932	-2.990900	3.790000	-11.336000	23.885568	0.000537	20.788786
440.108170	-2.980500	3.790400	-11.296000	23.881862	0.000540	20.767051
441.107867	-3.011300	3.787900	-11.405000	23.929993	0.000540	20.771218
442.107489	-3.006300	3.787900	-11.387000	23.905902	0.000539	20.754173
443.108736	-3.036800	3.786400	-11.498000	23.885420	0.000539	20.760662
444.107342	-3.007800	3.786800	-11.389000	23.880393	0.000541	20.781226
445.114017	-3.004300	3.786500	-11.374000	23.859935	0.000545	20.773040
446.108520	-2.996800	3.787900	-11.350000	23.892538	0.000540	20.770644
447.108972	-3.035600	3.785600	-11.490000	23.907121	0.000541	20.771992
448.110542	-3.014400	3.786600	-11.414000	23.937309	0.000540	20.769546
449.108020	-2.997500	3.787400	-11.351000	23.914512	0.000541	20.782722
450.109742	-3.002600	3.785100	-11.364000	23.908340	0.000542	20.767050
451.108073	-3.016300	3.784600	-11.413000	23.902641	0.000540	20.764180
452.109324	-3.000700	3.785000	-11.357000	23.935491	0.000541	20.766774
453.110353	-3.004200	3.784400	-11.367000	23.879994	0.000540	20.779403
454.109501	-2.986600	3.785800	-11.306000	23.901446	0.000541	20.759188
455.110330	-2.984500	3.785900	-11.298000	23.891218	0.000540	20.768372
456.109280	-2.990800	3.787000	-11.325000	23.931483	0.000541	20.764178
457.112087	-2.995400	3.785600	-11.338000	23.949055	0.000544	20.748607
458.109732	-2.987800	3.784700	-11.306000	23.972122	0.000540	20.750402
459.109258	-2.982300	3.783800	-11.284000	23.996137	0.000542	20.752200
460.120781	-2.999900	3.783700	-11.350000	24.037320	0.000542	20.763155
461.110237	-3.004600	3.783900	-11.369000	24.006090	0.000540	20.761233
462.110640	-2.995700	3.782700	-11.330000	24.018904	0.000542	20.770291
463.115241	-2.991100	3.783800	-11.317000	24.011041	0.000544	20.740119
464.112795	-3.005500	3.783000	-11.369000	23.978715	0.000541	20.744686
465.111067	-2.993200	3.782300	-11.319000	23.960249	0.000541	20.758411
466.114256	-3.020200	3.781400	-11.419000	23.934070	0.000541	20.750650
467.112783	-3.009400	3.781400	-11.378000	23.959305	0.000542	20.771689
468.113478	-3.007700	3.780700	-11.371000	23.983817	0.000543	20.747431
469.112406	-3.003400	3.781100	-11.355000	24.025697	0.000543	20.763827
470.115086	-3.023800	3.780700	-11.431000	24.045180	0.000541	20.744959
471.113948	-2.987000	3.780100	-11.290000	24.055159	0.000543	20.748802
472.117039	-2.996800	3.779400	-11.325000	24.075613	0.000543	20.741341
473.115554	-3.014800	3.780400	-11.396000	24.077180	0.000543	20.759982
474.116279	-2.976900	3.780700	-11.254000	24.073050	0.000542	20.742089
475.120769	-2.992500	3.779000	-11.308000	24.052545	0.000542	20.748078
476.117061	-3.006300	3.777300	-11.355000	24.047992	0.000543	20.741140
477.120921	-2.998300	3.779700	-11.331000	24.054585	0.000542	20.764349
478.117486	-2.975900	3.779100	-11.245000	24.022286	0.000543	20.738120
479.118777	-2.994600	3.779000	-11.315000	24.020643	0.000542	20.739792
480.121749	-3.005100	3.777300	-11.350000	24.005888	0.000543	20.750125
481.120222	-3.014900	3.777800	-11.389000	23.998596	0.000542	20.752295
482.120995	-2.993100	3.777000	-11.303000	24.024575	0.000545	20.751322
483.119805	-2.990600	3.776500	-11.293000	24.063344	0.000543	20.738519
484.122392	-3.008600	3.776400	-11.361000	24.095793	0.000544	20.736449
485.121252	-2.980700	3.777500	-11.259000	24.100794	0.000544	20.740516
486.122976	-2.987500	3.776000	-11.279000	24.111966	0.000543	20.732755
487.120513	-3.012000	3.774900	-11.368000	24.117440	0.000543	20.752471
488.121770	-2.991500	3.776300	-11.296000	24.092259	0.000544	20.736223
489.120646	-2.989000	3.776400	-11.286000	24.073349	0.000545	20.739070
490.122442	-2.979700	3.774500	-11.246000	24.056254	0.000544	20.744685
491.122955	-3.002000	3.775100	-11.332000	24.063319	0.000544	20.734701
492.121611	-2.981700	3.774900	-11.254000	24.055656	0.000546	20.734128
493.123094	-2.998000	3.774900	-11.317000	24.110398	0.000544	20.730708
494.122001	-3.006300	3.774200	-11.345000	24.089274	0.000543	20.730384
495.122602	-2.997400	3.774100	-11.311000	24.128015	0.000543	20.729885
496.121904	-3.012700	3.773900	-11.368000	24.141028	0.000544	20.730608
497.122109	-3.006900	3.773700	-11.346000	24.163099	0.000546	20.732830
498.124527	-3.007800	3.772500	-11.346000	24.169194	0.000545	20.752222
499.127661	-3.017700	3.772700	-11.383000	24.179046	0.000544	20.739817
500.123946	-3.021800	3.772600	-11.399000	24.177256	0.000545	20.721425
501.124221	-2.994200	3.772500	-11.295000	24.203827	0.000545	20.737172
502.122859	-3.013400	3.772600	-11.367000	24.193998	0.000546	20.740590
503.125140	-3.015500	3.770800	-11.370000	24.141975	0.000544	20.728713
504.126950	-3.007700	3.773000	-11.347000	24.142446	0.000544	20.735824
505.124810	-2.999500	3.772200	-11.314000	24.141426	0.000545	20.731956
506.123530	-3.007400	3.770200	-11.337000	24.147846	0.000544	20.749301
507.125258	-2.984700	3.771000	-11.254000	24.155086	0.000544	20.736173
508.123596	-2.999300	3.770900	-11.309000	24.181061	0.000545	20.713862
509.124697	-2.998400	3.770400	-11.304000	24.186386	0.000544	20.728687
510.127719	-2.995800	3.770300	-11.294000	24.183774	0.000546	20.719428
511.123149	-3.015900	3.770000	-11.369000	24.198925	0.000545	20.722297
512.124045	-3.008100	3.769000	-11.337000	24.217263	0.000546	20.735475
513.124139	-3.010800	3.769200	-11.347000	24.232464	0.000547	20.728438
514.124303	-2.989500	3.768800	-11.266000	24.218755	0.000546	20.737446
515.124157	-2.999500	3.769800	-11.306000	24.212286	0.000546	20.726690
516.124492	-3.009500	3.768000	-11.339000	24.172551	0.000545	20.729034
517.126802	-3.004400	3.769200	-11.323000	24.198253	0.000545	20.709294
518.125857	-3.002000	3.768800	-11.313000	24.217834	0.000545	20.728461
519.124801	-3.012700	3.767500	-11.349000	24.197133	0.000546	20.730457
520.127481	-2.979400	3.770000	-11.231000	24.172725	0.000545	20.751022
521.124299	-3.009100	3.766200	-11.331000	24.187628	0.000546	20.730407
522.123939	-2.995900	3.766700	-11.284000	24.171033	0.000547	20.723244
523.126750	-2.979300	3.767200	-11.223000	24.211638	0.000547	20.720823
524.125389	-2.996700	3.765900	-11.283000	24.209474	0.000544	20.739042
525.128178	-2.985600	3.766300	-11.244000	24.234950	0.000544	20.740415
526.129313	-3.006500	3.765600	-11.318000	24.243434	0.000545	20.723793
527.126039	-3.018800	3.766300	-11.369000	24.239255	0.000546	20.730507
528.125342	-3.017700	3.764900	-11.360000	24.227760	0.000545	20.729883
529.145665	-2.978600	3.767100	-11.220000	24.264556	0.000546	20.727437
530.127886	-3.012800	3.764900	-11.342000	24.245749	0.000545	20.722322
531.129912	-3.017400	3.764900	-11.360000	24.234054	0.000545	20.712487
532.129305	-3.005100	3.765500	-11.314000	24.258087	0.000544	20.720947
533.126374	-2.995100	3.763900	-11.272000	24.265600	0.000547	20.725165
534.127970	-2.993100	3.765100	-11.268000	24.263909	0.000544	20.716355
535.124295	-3.002800	3.762700	-11.297000	24.253584	0.000547	20.740614
536.132458	-2.997100	3.764500	-11.281000	24.244628	0.000547	20.731629
537.127358	-2.997800	3.763500	-11.281000	24.268013	0.000546	20.734698
538.127167	-2.962600	3.763800	-11.149000	24.286299	0.000546	20.730755
539.126387	-2.993100	3.762700	-11.261000	24.277690	0.000547	20.721645
540.127302	-2.995500	3.762700	-11.270000	24.295255	0.000546	20.731678
541.127365	-2.988700	3.761100	-11.240000	24.286920	0.000545	20.725688
542.133917	-3.011800	3.761500	-11.328000	24.314833	0.000544	20.720497
543.126834	-3.009300	3.761300	-11.317000	24.342894	0.000547	20.726361
544.127433	-3.004200	3.761900	-11.301000	24.362323	0.000546	20.738740
545.134428	-3.017700	3.760400	-11.346000	24.394736	0.000545	20.730953
546.128316	-2.993100	3.759700	-11.252000	24.399562	0.000545	20.718250
547.134846	-2.983700	3.760400	-11.219000	24.356378	0.000545	20.720921
548.133298	-2.981100	3.761900	-11.214000	24.381777	0.000546	20.726013
549.128614	-2.998600	3.760800	-11.277000	24.398244	0.000544	20.725463
550.128973	-2.988600	3.759700	-11.236000	24.363741	0.000546	20.748223
551.129817	-2.998500	3.759600	-11.272000	24.352096	0.000546	20.721842
552.132289	-3.004000	3.759000	-11.291000	24.329235	0.000547	20.748696
553.131351	-3.018900	3.759600	-11.349000	24.321101	0.000545	20.735320
554.127918	-3.009300	3.757800	-11.307000	24.330031	0.000547	20.724837
555.129232	-3.005700	3.758800	-11.297000	24.342969	0.000548	20.728807
556.130469	-3.001400	3.758200	-11.279000	24.354386	0.000546	20.696162
557.129746	-2.982500	3.757900	-11.207000	24.402968	0.000547	20.720718
558.134660	-2.997900	3.758200	-11.265000	24.354186	0.000547	20.733896
559.131122	-2.973500	3.758200	-11.174000	24.389960	0.000547	20.718100
560.130914	-3.024800	3.757500	-11.364000	24.394435	0.000547	20.735867
561.134248	-2.996700	3.757500	-11.259000	24.410481	0.000547	20.715928
562.129455	-2.988300	3.756700	-11.225000	24.443142	0.000545	20.702226
563.133178	-2.985700	3.757300	-11.218000	24.413441	0.000545	20.726484
564.131614	-2.999000	3.757000	-11.266000	24.389038	0.000545	20.741358
565.131414	-3.005200	3.755400	-11.284000	24.376376	0.000546	20.748097
566.131265	-3.002300	3.755300	-11.274000	24.378813	0.000547	20.723039
567.131405	-2.994400	3.755600	-11.245000	24.413714	0.000546	20.744302
568.131080	-2.978800	3.755700	-11.187000	24.431848	0.000547	20.734045
569.136501	-3.000900	3.755500	-11.269000	24.436548	0.000547	20.740658
570.132480	-2.993000	3.754700	-11.236000	24.426922	0.000546	20.724362
571.132646	-3.001600	3.753300	-11.265000	24.413165	0.000544	20.725733
572.133034	-3.007000	3.752100	-11.282000	24.421051	0.000547	20.725110
573.137182	-2.970300	3.755000	-11.153000	24.457169	0.000545	20.733844
574.134009	-3.004600	3.753000	-11.275000	24.477018	0.000545	20.734792
575.133580	-2.981300	3.753500	-11.189000	24.452940	0.000545	20.743353
576.134487	-2.998800	3.752100	-11.251000	24.419011	0.000546	20.721640
577.136620	-2.992200	3.752500	-11.228000	24.457716	0.000545	20.723487
578.136436	-2.985100	3.752200	-11.200000	24.465402	0.000544	20.747794
579.135151	-2.984200	3.752200	-11.197000	24.473163	0.000547	20.727130
580.136681	-2.996400	3.751100	-11.239000	24.486370	0.000544	20.739907
581.136452	-2.978900	3.752000	-11.176000	24.507215	0.000545	20.716249
582.136358	-2.976000	3.751500	-11.163000	24.498807	0.000546	20.721564
583.136357	-2.970400	3.753200	-11.147000	24.547408	0.000546	20.742353
584.138326	-3.017100	3.751200	-11.316000	24.531713	0.000547	20.731347
585.136213	-3.016400	3.751600	-11.315000	24.507587	0.000544	20.712829
586.141439	-3.004500	3.750500	-11.268000	24.502288	0.000544	20.737860
587.136534	-3.007700	3.749900	-11.277000	24.490697	0.000543	20.744723
588.137101	-2.999100	3.750100	-11.246000	24.468732	0.000544	20.753507
589.139675	-3.007100	3.749800	-11.275000	24.488036	0.000549	20.723086
590.137797	-3.013000	3.750200	-11.298000	24.481046	0.000545	20.732195
591.141533	-3.012400	3.749400	-11.294000	24.479404	0.000543	20.757101
592.139366	-3.017200	3.747500	-11.306000	24.499999	0.000545	20.734141
593.139271	-3.024400	3.748000	-11.335000	24.510097	0.000546	20.745221
594.141038	-3.008800	3.747800	-11.275000	24.538826	0.000546	20.738483
595.141983	-3.009000	3.747400	-11.275000	24.496069	0.000543	20.730197
596.137936	-3.021300	3.747800	-11.322000	24.471244	0.000544	20.718566
597.141018	-3.021100	3.747500	-11.320000	24.456891	0.000545	20.734514
598.139642	-3.020100	3.746000	-11.313000	24.495147	0.000547	20.739704
599.138489	-3.016900	3.746500	-11.301000	24.505270	0.000546	20.732791
600.141474	-3.009800	3.746300	-11.275000	24.520766	0.000545	20.736010
601.141809	-3.011200	3.745900	-11.278000	24.521787	0.000542	20.723283
602.141597	-3.004200	3.747100	-11.256000	24.533452	0.000543	20.731194
603.142810	-2.987400	3.746100	-11.190000	24.532357	0.000545	20.724406
604.146566	-2.988700	3.745100	-11.192000	24.537780	0.000545	20.765410
605.146663	-2.999000	3.744500	-11.228000	24.577476	0.000546	20.755926
606.144647	-2.998900	3.745400	-11.231000	24.562229	0.000545	20.744895
607.143808	-2.991300	3.745600	-11.203000	24.607097	0.000543	20.733016
608.144599	-3.008800	3.743900	-11.264000	24.536958	0.000545	20.748938
609.143903	-3.000600	3.744600	-11.235000	24.536461	0.000545	20.744645
610.146174	-3.000000	3.745500	-11.235000	24.540988	0.000546	20.720737
611.143567	-2.996000	3.743900	-11.216000	24.603565	0.000545	20.748439
612.144367	-3.007500	3.744600	-11.261000	24.586429	0.000545	20.756850
613.146609	-3.015100	3.742900	-11.285000	24.575834	0.000543	20.754753
614.146658	-3.002900	3.743000	-11.239000	24.554743	0.000544	20.752557
615.148660	-3.019600	3.741400	-11.297000	24.516439	0.000544	20.733091
616.148640	-3.012500	3.741800	-11.270000	24.548699	0.000545	20.740803
617.148710	-3.007200	3.742100	-11.252000	24.566905	0.000542	20.749587
618.146197	-2.991300	3.742500	-11.193000	24.610902	0.000545	20.749637
619.149140	-3.005800	3.742900	-11.250000	24.617891	0.000545	20.748115
620.146386	-3.020100	3.741400	-11.298000	24.644105	0.000545	20.780109
621.149863	-3.006800	3.741100	-11.248000	24.642588	0.000542	20.772896
622.147444	-2.987100	3.742800	-11.179000	24.643311	0.000543	20.736637
623.150258	-3.013400	3.740400	-11.270000	24.638037	0.000543	20.783503
624.149310	-3.008900	3.740800	-11.254000	24.610207	0.000543	20.756526
625.151767	-3.020400	3.741400	-11.300000	24.585759	0.000545	20.778462
626.148113	-3.008100	3.740100	-11.249000	24.536090	0.000542	20.750912
627.148596	-3.009100	3.740900	-11.256000	24.545168	0.000542	20.760968
628.149166	-3.021200	3.740100	-11.299000	24.543078	0.000542	20.774519
629.151095	-2.979300	3.739600	-11.140000	24.566582	0.000541	20.756850
630.150003	-3.005700	3.739700	-11.239000	24.605631	0.000541	20.757624
631.153782	-3.009100	3.739200	-11.250000	24.625602	0.000542	20.754904
632.150918	-3.003700	3.737900	-11.227000	24.602445	0.000543	20.765808
633.149631	-3.008700	3.737300	-11.243000	24.612694	0.000542	20.767082
634.149161	-3.009900	3.739500	-11.255000	24.647338	0.000543	20.771499
635.150755	-3.004100	3.737400	-11.226000	24.641046	0.000542	20.736736
636.156803	-2.996200	3.737400	-11.197000	24.667109	0.000541	20.771898
637.151047	-2.996400	3.737800	-11.199000	24.602596	0.000541	20.773071
638.151749	-2.997000	3.738000	-11.202000	24.599438	0.000541	20.772747
639.150291	-2.989500	3.737200	-11.171000	24.610232	0.000540	20.749438
640.150195	-2.996200	3.736000	-11.193000	24.667532	0.000541	20.777538
641.152365	-2.999300	3.734900	-11.201000	24.653629	0.000541	20.772596
642.151469	-2.985800	3.736900	-11.158000	24.684766	0.000541	20.766856
643.149422	-2.998200	3.735200	-11.198000	24.671760	0.000541	20.779410
644.150032	-2.986700	3.736700	-11.159000	24.691954	0.000542	20.775492
645.150337	-3.001200	3.736600	-11.212000	24.700731	0.000540	20.772446
646.152082	-2.976600	3.737200	-11.123000	24.655967	0.000541	20.764510
647.154184	-2.979600	3.734900	-11.127000	24.692376	0.000541	20.782554
648.153893	-2.974900	3.736400	-11.115000	24.677106	0.000540	20.780033
649.154193	-2.977000	3.734200	-11.115000	24.681358	0.000538	20.770549
650.156026	-2.982500	3.734500	-11.137000	24.658851	0.000539	20.765982
651.153611	-2.975100	3.734800	-11.111000	24.635597	0.000540	20.776787
652.155550	-2.980700	3.734600	-11.131000	24.631542	0.000540	20.767029
653.156003	-3.002100	3.732700	-11.205000	24.632637	0.000538	20.766231
654.154705	-2.984800	3.734200	-11.145000	24.660590	0.000537	20.770572
655.156958	-2.976100	3.732600	-11.108000	24.698193	0.000540	20.787443
656.158266	-2.995800	3.734000	-11.186000	24.668026	0.000538	20.769973
657.157509	-3.003800	3.732600	-11.211000	24.669019	0.000540	20.768125
658.161047	-2.971100	3.732500	-11.088000	24.690109	0.000542	20.779805
659.158338	-2.985900	3.731700	-11.141000	24.710825	0.000539	20.763608
660.159189	-2.981800	3.731600	-11.126000	24.723260	0.000539	20.764707
661.160224	-3.004800	3.732000	-11.212000	24.720922	0.000540	20.768999
662.156977	-2.996000	3.730900	-11.177000	24.721021	0.000539	20.777159
663.162057	-2.991200	3.731200	-11.160000	24.722388	0.000540	20.769048
664.161294	-3.017700	3.729800	-11.255000	24.702966	0.000540	20.782749
665.160127	-2.999400	3.731100	-11.190000	24.686850	0.000539	20.765155
666.160453	-3.012800	3.728700	-11.232000	24.717365	0.000541	20.782974
667.161766	-3.007700	3.730000	-11.217000	24.671530	0.000541	20.790085
668.164360	-2.993500	3.730400	-11.167000	24.694783	0.000540	20.788289
669.163798	-2.988700	3.731600	-11.152000	24.725622	0.000541	20.786518
670.168879	-3.013600	3.729800	-11.239000	24.730371	0.000538	20.794129
671.162999	-2.995100	3.728900	-11.168000	24.740120	0.000537	20.778782
672.164402	-3.008300	3.729800	-11.219000	24.733430	0.000537	20.782974
673.162374	-2.991000	3.728900	-11.152000	24.783813	0.000538	20.792757
674.164132	-2.974200	3.729200	-11.090000	24.753723	0.000538	20.780105
675.175886	-2.973600	3.729500	-11.089000	24.789283	0.000538	20.788764
676.162983	-3.010000	3.726700	-11.216000	24.831407	0.000538	20.786942
677.165820	-2.993900	3.728200	-11.161000	24.824072	0.000537	20.774839
678.165467	-2.997900	3.727400	-11.174000	24.812435	0.000537	20.789239
679.165826	-2.997400	3.725800	-11.167000	24.799529	0.000538	20.792408
680.163937	-2.973000	3.728100	-11.083000	24.817683	0.000536	20.806834
681.165380	-2.991900	3.726900	-11.150000	24.836903	0.000538	20.810476
682.166456	-3.019200	3.726200	-11.250000	24.844264	0.000537	20.791311
683.166140	-3.017500	3.726400	-11.244000	24.846925	0.000537	20.791611
684.167794	-3.010600	3.725700	-11.215000	24.824595	0.000537	20.806659
685.173435	-3.017900	3.725000	-11.241000	24.792343	0.000538	20.802267
686.164764	-3.023200	3.724400	-11.259000	24.763300	0.000537	20.800621
687.166996	-3.003400	3.725300	-11.188000	24.751835	0.000536	20.784374
688.165658	-3.017900	3.724000	-11.238000	24.713588	0.000537	20.835133
689.167271	-2.990300	3.724900	-11.138000	24.737959	0.000537	20.797950
690.165670	-3.009900	3.725100	-11.211000	24.779960	0.000535	20.803116
691.165606	-3.009300	3.723700	-11.205000	24.817932	0.000535	20.799498
692.168204	-3.010800	3.723700	-11.210000	24.828774	0.000534	20.800895
693.166306	-2.993900	3.723200	-11.146000	24.799481	0.000534	20.818913
694.171123	-2.999300	3.723500	-11.167000	24.821213	0.000536	20.813222
695.165286	-3.004100	3.722700	-11.182000	24.838968	0.000534	20.795006
696.165356	-3.008300	3.722100	-11.196000	24.812585	0.000535	20.832538
697.164923	-2.987000	3.723300	-11.120000	24.832106	0.000533	20.813723
698.166935	-3.001000	3.722900	-11.172000	24.799332	0.000535	20.813073
699.171827	-2.991700	3.722900	-11.137000	24.819448	0.000534	20.813821
700.169807	-2.996900	3.723000	-11.157000	24.866643	0.000535	20.810452
701.169349	-2.982100	3.721700	-11.097000	24.878976	0.000533	20.844166
702.168134	-2.986100	3.722200	-11.114000	24.910281	0.000533	20.801144
703.171387	-2.974300	3.721900	-11.068000	24.883825	0.000529	20.789291
704.166674	-2.957200	3.721400	-11.003000	24.891880	0.000533	20.821083
705.173235	-2.999000	3.720700	-11.158000	24.870645	0.000534	20.806883
706.167444	-3.008600	3.719300	-11.189000	24.830711	0.000532	20.799995
707.167518	-2.984200	3.719700	-11.099000	24.817781	0.000533	20.840597
708.177234	-3.011100	3.720300	-11.201000	24.871143	0.000533	20.814020
709.171202	-3.000400	3.720500	-11.162000	24.878303	0.000532	20.824525
710.168974	-2.990100	3.719400	-11.120000	24.909583	0.000533	20.823677
711.170212	-3.015400	3.719300	-11.215000	24.907966	0.000533	20.815891
712.170768	-3.004300	3.719600	-11.174000	24.923406	0.000534	20.805784
713.171821	-2.999400	3.717500	-11.149000	24.898369	0.000532	20.821906
714.172836	-3.007400	3.717700	-11.179000	24.897473	0.000531	20.806782
715.173695	-3.000500	3.719100	-11.158000	24.849011	0.000533	20.799394
716.175495	-2.999500	3.718700	-11.153000	24.882605	0.000532	20.831688
717.172987	-3.012600	3.716500	-11.196000	24.864774	0.000531	20.817586
718.172887	-2.999900	3.718900	-11.155000	24.840382	0.000533	20.803063
719.181881	-3.017400	3.716500	-11.214000	24.849333	0.000531	20.826745
720.175568	-3.010000	3.717800	-11.190000	24.891256	0.000533	20.820456
721.176938	-2.998400	3.717400	-11.146000	24.909953	0.000532	20.833058
722.172952	-3.009000	3.716400	-11.182000	24.930117	0.000530	20.839071
723.175284	-2.994200	3.716100	-11.125000	24.894388	0.000531	20.812220
724.178198	-3.002400	3.716800	-11.159000	24.829538	0.000531	20.838646
725.176110	-3.009000	3.715700	-11.179000	24.826927	0.000531	20.819904
726.179053	-3.008800	3.715400	-11.178000	24.829986	0.000530	20.836250
727.175648	-2.994600	3.715100	-11.125000	24.882351	0.000530	20.841390
728.174515	-2.994900	3.714700	-11.125000	24.879416	0.000530	20.839393
729.177413	-2.989800	3.715500	-11.108000	24.899186	0.000530	20.830786
730.177577	-2.999700	3.715400	-11.144000	24.871262	0.000527	20.834054
731.177923	-2.994700	3.714800	-11.124000	24.880313	0.000531	20.834129
732.175201	-2.983200	3.714300	-11.079000	24.842319	0.000529	20.830137
733.176194	-3.010300	3.714000	-11.179000	24.841821	0.000529	20.844334
734.175830	-3.000500	3.713200	-11.141000	24.852265	0.000531	20.836800
735.178261	-3.021400	3.714000	-11.221000	24.884266	0.000530	20.838097
736.176630	-3.007900	3.713400	-11.168000	24.879592	0.000528	20.859009
737.178634	-3.017700	3.712400	-11.201000	24.889339	0.000530	20.855515
738.177481	-3.003500	3.713500	-11.153000	24.890084	0.000525	20.851047
739.179491	-2.995700	3.712500	-11.120000	24.874818	0.000528	20.847105
740.178550	-2.998100	3.712900	-11.130000	24.914551	0.000529	20.841466
741.179074	-3.027700	3.711100	-11.235000	24.945159	0.000527	20.836151
742.185349	-3.006800	3.712100	-11.160000	24.937327	0.000529	20.853893
743.180734	-3.014400	3.710900	-11.186000	24.919624	0.000527	20.848454
744.180218	-3.031900	3.710500	-11.249000	24.901250	0.000526	20.861305
745.180476	-3.000900	3.712100	-11.139000	24.897172	0.000526	20.835402
746.182020	-2.996700	3.711000	-11.120000	24.919451	0.000527	20.849702
747.182026	-2.998200	3.711200	-11.125000	24.941456	0.000527	20.863727
748.182569	-3.020500	3.710200	-11.206000	24.929545	0.000526	20.848454
749.179929	-3.000000	3.709000	-11.126000	24.919029	0.000527	20.844063
750.180796	-3.010300	3.710100	-11.168000	24.885312	0.000525	20.849103
751.179287	-2.977000	3.711300	-11.048000	24.914329	0.000527	20.852622
752.179753	-3.009400	3.710200	-11.164000	24.958414	0.000527	20.854670
753.181928	-3.000300	3.709800	-11.130000	24.988025	0.000522	20.845986
754.182939	-2.988000	3.709900	-11.084000	25.022036	0.000525	20.870640
755.185809	-3.006400	3.709100	-11.150000	25.032727	0.000524	20.870466
756.183313	-3.002900	3.707600	-11.132000	25.037798	0.000525	20.848531
757.182789	-3.001200	3.708600	-11.129000	24.986732	0.000524	20.870291
758.186820	-2.995400	3.709300	-11.109000	24.938698	0.000524	20.849580
759.190040	-2.995000	3.708600	-11.105000	24.926242	0.000525	20.854147
760.182631	-3.010300	3.707800	-11.161000	24.958339	0.000524	20.862181
761.188433	-3.014500	3.708100	-11.178000	24.940165	0.000526	20.860061
762.190721	-2.980000	3.708400	-11.051000	24.934047	0.000520	20.861507
763.185112	-2.998400	3.709100	-11.121000	24.935640	0.000524	20.850778
764.189229	-3.024300	3.706600	-11.209000	24.937580	0.000522	20.865052
765.185972	-3.016300	3.706800	-11.181000	24.916644	0.000524	20.863005
766.188564	-2.987000	3.705800	-11.068000	24.904734	0.000523	20.864802
767.187930	-2.998000	3.706700	-11.112000	24.930941	0.000523	20.854596
768.186855	-3.019600	3.704700	-11.186000	24.938972	0.000520	20.861708
769.189219	-3.000400	3.705900	-11.119000	24.944318	0.000521	20.856169
770.185595	-2.974000	3.706900	-11.023000	24.953219	0.000521	20.880748
771.184805	-2.996000	3.706400	-11.103000	24.975321	0.000522	20.861209
772.186732	-3.001100	3.704100	-11.116000	24.961349	0.000521	20.886063
773.188916	-3.004400	3.704000	-11.127000	24.975222	0.000523	20.882918
774.188643	-2.994900	3.705500	-11.097000	25.018433	0.000519	20.859912
775.187745	-2.991500	3.704700	-11.082000	25.010055	0.000523	20.879002
776.187109	-3.004900	3.704600	-11.131000	24.994938	0.000521	20.879950
777.187291	-3.000600	3.704600	-11.115000	24.980941	0.000522	20.878229
778.188033	-2.997700	3.704100	-11.103000	24.983528	0.000520	20.870868
779.193494	-3.003500	3.703700	-11.124000	25.007245	0.000522	20.875234
780.190604	-2.997200	3.704400	-11.102000	25.049833	0.000520	20.881946
781.188715	-2.995600	3.703300	-11.092000	25.063657	0.000520	20.891555
782.187548	-2.995200	3.703300	-11.091000	25.049884	0.000519	20.906177
783.187298	-2.991700	3.702500	-11.076000	25.031287	0.000521	20.877555
784.186845	-3.020500	3.702200	-11.182000	25.039268	0.000522	20.870868
785.190629	-3.002400	3.702800	-11.116000	25.017116	0.000521	20.870918
786.188457	-2.993300	3.702500	-11.082000	25.044787	0.000518	20.881148
787.189237	-3.002200	3.701500	-11.112000	25.033749	0.000519	20.888560
788.190067	-3.007600	3.702200	-11.133000	25.040735	0.000520	20.862858
789.187860	-2.990300	3.702800	-11.071000	25.076509	0.000519	20.871741
790.191204	-3.003200	3.700800	-11.112000	25.064773	0.000520	20.853323
791.191775	-2.995800	3.701600	-11.088000	25.023728	0.000518	20.869020
792.191350	-3.004800	3.700700	-11.118000	25.047296	0.000519	20.878451
793.193021	-3.000500	3.701500	-11.105000	25.032430	0.000517	20.869694
794.194136	-3.039200	3.699700	-11.243000	25.052814	0.000518	20.872138
795.190673	-3.005000	3.700000	-11.117000	25.050950	0.000516	20.864577
796.191555	-2.974900	3.700700	-11.008000	25.066637	0.000519	20.869418
797.190388	-2.994700	3.699300	-11.078000	25.097339	0.000517	20.888383
798.190332	-2.995300	3.699800	-11.081000	25.115114	0.000518	20.862605
799.192453	-2.991900	3.698900	-11.067000	25.077948	0.000517	20.877453
800.191394	-3.010400	3.698500	-11.133000	25.024273	0.000516	20.868619
801.194126	-2.972400	3.698800	-10.994000	25.003762	0.000516	20.865574
802.191307	-2.993700	3.699300	-11.073000	25.018680	0.000515	20.856841
803.192091	-3.005800	3.698100	-11.116000	25.013831	0.000517	20.878999
804.193002	-3.011400	3.697400	-11.134000	25.005974	0.000516	20.871113
805.193660	-3.008300	3.697300	-11.122000	25.009853	0.000517	20.853671
806.198457	-3.004600	3.697900	-11.110000	25.021587	0.000516	20.868293
807.194283	-2.995400	3.697600	-11.075000	25.065666	0.000517	20.855168
808.194863	-3.007500	3.696500	-11.117000	25.091073	0.000514	20.859809
809.195101	-3.002400	3.696700	-11.098000	25.082422	0.000516	20.855866
810.194546	-3.016600	3.696100	-11.149000	25.129804	0.000515	20.847008
811.198709	-2.997300	3.697000	-11.080000	25.127193	0.000515	20.851499
812.200811	-3.017600	3.695600	-11.151000	25.151655	0.000514	20.843814
813.198629	-3.004000	3.696400	-11.102000	25.130674	0.000516	20.853096
814.193917	-2.988300	3.695000	-11.041000	25.126423	0.000514	20.849777
815.200446	-3.007300	3.694600	-11.110000	25.045729	0.000512	20.856966
816.207373	-3.011800	3.694100	-11.124000	25.065691	0.000513	20.851874
817.201530	-3.003500	3.695500	-11.099000	25.110242	0.000513	20.849655
818.197229	-2.997900	3.693500	-11.072000	25.121279	0.000512	20.855044
819.196613	-2.966100	3.695000	-10.958000	25.108923	0.000511	20.843590
820.196635	-2.995800	3.694000	-11.065000	25.103083	0.000512	20.849107
821.196571	-2.979900	3.694600	-11.009000	25.102661	0.000513	20.885190
822.199043	-2.986800	3.693400	-11.031000	25.092170	0.000513	20.840522
823.196758	-3.003000	3.693300	-11.090000	25.095651	0.000512	20.840697
824.195560	-3.008700	3.694500	-11.114000	25.053387	0.000512	20.857541
825.197235	-3.006500	3.692900	-11.102000	25.086974	0.000512	20.869444
826.196843	-2.999900	3.693400	-11.078000	25.105246	0.000510	20.831838
827.199868	-2.995000	3.692200	-11.056000	25.078596	0.000512	20.858190
828.203378	-2.989600	3.694100	-11.043000	25.086777	0.000511	20.843169
829.202001	-3.003500	3.693000	-11.091000	25.102139	0.000512	20.837253
830.202618	-2.986600	3.691700	-11.024000	25.148950	0.000512	20.827822
831.201355	-2.986400	3.692400	-11.026000	25.137613	0.000510	20.833510
832.201309	-2.979900	3.691500	-10.999000	25.129360	0.000510	20.834709
833.205457	-2.979700	3.692400	-11.001000	25.169532	0.000509	20.845639
834.205098	-2.983000	3.690800	-11.009000	25.179425	0.000510	20.832338
835.200873	-2.988700	3.691600	-11.032000	25.127123	0.000509	20.835782
836.202201	-2.982700	3.691100	-11.008000	25.092792	0.000508	20.826448
837.201782	-2.985300	3.690700	-11.017000	25.098684	0.000509	20.837579
838.206673	-3.015500	3.690400	-11.128000	25.121008	0.000507	20.824428
839.205868	-2.997000	3.690700	-11.060000	25.131697	0.000507	20.827097
840.203108	-2.999100	3.689700	-11.065000	25.113276	0.000507	20.821408
841.200660	-3.008700	3.688900	-11.098000	25.098534	0.000507	20.819411
842.202840	-2.982700	3.690000	-11.005000	25.122698	0.000506	20.814271
843.200825	-2.983700	3.689700	-11.009000	25.142138	0.000506	20.828096
844.201776	-3.000300	3.688500	-11.065000	25.103878	0.000506	20.833784
845.202074	-3.002800	3.688900	-11.076000	25.128117	0.000506	20.813072
846.202950	-3.026300	3.688300	-11.160000	25.123841	0.000506	20.811625
847.206296	-2.998600	3.688400	-11.059000	25.123541	0.000504	20.826022
848.202507	-3.013400	3.687100	-11.110000	25.151855	0.000503	20.824574
849.209646	-3.006500	3.687300	-11.086000	25.160232	0.000504	20.814966
850.204825	-3.003000	3.687700	-11.073000	25.170051	0.000505	20.813918
851.203468	-3.006700	3.685500	-11.080000	25.208928	0.000503	20.833034
852.205213	-3.003700	3.685800	-11.070000	25.201869	0.000502	20.815516
853.205014	-3.004400	3.687300	-11.077000	25.188022	0.000505	20.820106
854.204485	-2.975800	3.687100	-10.970000	25.161573	0.000504	20.815364
855.208768	-2.989400	3.686500	-11.019000	25.146557	0.000503	20.826368
856.204912	-2.997800	3.686400	-11.050000	25.093905	0.000505	20.795798
857.209135	-2.992000	3.685600	-11.027000	25.107852	0.000502	20.812169
858.208978	-3.010900	3.685300	-11.096000	25.154934	0.000504	20.812019
859.207722	-3.006500	3.685600	-11.080000	25.160875	0.000502	20.800439
860.207784	-3.006800	3.685100	-11.080000	25.133827	0.000502	20.811219
861.206604	-2.988100	3.684400	-11.009000	25.138625	0.000503	20.823147
862.206378	-3.010600	3.683000	-11.087000	25.168506	0.000501	20.791504
863.206670	-3.010900	3.683900	-11.091000	25.143721	0.000503	20.802185
864.205643	-3.000200	3.683600	-11.051000	25.115705	0.000502	20.848026
865.210865	-2.991300	3.683200	-11.017000	25.132459	0.000503	20.809371
866.210138	-2.998800	3.684100	-11.047000	25.098352	0.000500	20.802159
867.208179	-3.008600	3.683400	-11.080000	25.139568	0.000501	20.806550
868.213335	-3.009200	3.683200	-11.083000	25.111726	0.000500	20.820325
869.210021	-3.004900	3.682500	-11.065000	25.088828	0.000498	20.820573
870.208908	-2.998400	3.682800	-11.042000	25.122042	0.000499	20.789904
871.210268	-3.000100	3.683000	-11.049000	25.128181	0.000500	20.815033
872.208550	-2.995200	3.681100	-11.024000	25.128505	0.000500	20.785961
873.207536	-3.007300	3.682000	-11.071000	25.142449	0.000501	20.790951
874.212374	-3.008700	3.681100	-11.074000	25.157887	0.000496	20.800285
875.209273	-3.000700	3.680200	-11.043000	25.143941	0.000499	20.828483
876.212723	-2.993700	3.680900	-11.019000	25.172800	0.000498	20.823317
877.207458	-2.984700	3.682200	-10.989000	25.213469	0.000497	20.820997
878.209845	-3.004100	3.679700	-11.053000	25.218588	0.000497	20.825188
879.209277	-2.980900	3.679900	-10.968000	25.249584	0.000500	20.813634
880.208389	-2.987900	3.679700	-10.994000	25.270563	0.000496	20.799135
881.209003	-2.972900	3.681000	-10.942000	25.276851	0.000496	20.778421
882.211341	-2.956400	3.681800	-10.884000	25.254381	0.000496	20.782415
883.208625	-2.987700	3.679200	-10.991000	25.224925	0.000498	20.798360
884.208431	-2.988200	3.679400	-10.994000	25.202206	0.000497	20.794043
885.213610	-3.002500	3.678000	-11.042000	25.188485	0.000498	20.796389
886.209229	-2.997900	3.678100	-11.026000	25.172179	0.000495	20.807520
887.209352	-3.005100	3.677600	-11.051000	25.127183	0.000494	20.789376
888.208405	-3.004200	3.677400	-11.047000	25.126712	0.000493	20.813084
889.208488	-3.000500	3.677900	-11.035000	25.173917	0.000496	20.804524
890.208694	-3.011800	3.677300	-11.075000	25.224577	0.000494	20.789002
891.212514	-2.993300	3.677100	-11.006000	25.191815	0.000497	20.807318
892.212497	-2.997600	3.677400	-11.021000	25.246799	0.000496	20.813208
893.209898	-2.976600	3.676600	-10.943000	25.230890	0.000493	20.804348
894.210865	-3.009100	3.674800	-11.057000	25.191218	0.000492	20.774477
895.210737	-3.006000	3.676700	-11.051000	25.211526	0.000494	20.800555
896.210884	-3.009500	3.674800	-11.058000	25.236333	0.000495	20.794640
897.210477	-2.995000	3.676200	-11.009000	25.245878	0.000495	20.782412
898.212294	-3.002700	3.674200	-11.032000	25.223929	0.000493	20.782187
899.209884	-3.003300	3.675800	-11.038000	25.235238	0.000492	20.790696
900.211871	-2.999400	3.675700	-11.024000	25.233077	0.000492	20.790897
901.214386	-2.985500	3.675200	-10.971000	25.233698	0.000494	20.795788
902.211803	-3.012500	3.674500	-11.069000	25.241278	0.000493	20.787277
903.218356	-2.998100	3.673300	-11.013000	25.240084	0.000492	20.791294
904.210736	-2.984400	3.673600	-10.962000	25.274137	0.000493	20.754359
905.213739	-3.004600	3.673400	-11.036000	25.262207	0.000492	20.782211
906.211775	-2.986300	3.675100	-10.974000	25.261958	0.000493	20.778168
907.211785	-2.972300	3.673500	-10.919000	25.229370	0.000490	20.783856
908.212496	-2.991400	3.673100	-10.987000	25.241277	0.000491	20.789646
909.215801	-2.982600	3.673900	-10.957000	25.253556	0.000489	20.793914
910.212016	-2.983500	3.671700	-10.954000	25.272122	0.000489	20.791218
911.214468	-2.999300	3.672600	-11.015000	25.304360	0.000489	20.795610
912.217722	-3.021900	3.672100	-11.096000	25.292230	0.000491	20.794337
913.211877	-3.018000	3.671400	-11.079000	25.260266	0.000488	20.767934
914.217175	-2.999200	3.672500	-11.013000	25.281691	0.000490	20.774746
915.214231	-3.004800	3.671500	-11.031000	25.271699	0.000490	20.777516
916.217445	-2.988300	3.671800	-10.971000	25.281716	0.000488	20.795160
917.215552	-3.017900	3.671600	-11.080000	25.277217	0.000488	20.778314
918.214743	-3.012700	3.669700	-11.055000	25.257879	0.000488	20.786874
919.218338	-3.017300	3.670300	-11.073000	25.255096	0.000489	20.774123
920.220970	-3.009100	3.669800	-11.042000	25.259295	0.000486	20.775969
921.215462	-3.020000	3.670000	-11.083000	25.279603	0.000488	20.773598
922.216529	-3.005200	3.669900	-11.027000	25.327747	0.000487	20.789220
923.215658	-2.996000	3.669900	-10.994000	25.308632	0.000488	20.784252
924.213731	-3.003500	3.668400	-11.017000	25.274109	0.000486	20.763814
925.218386	-3.005500	3.668700	-11.025000	25.237073	0.000486	20.793961
926.215062	-2.979500	3.668400	-10.929000	25.207942	0.000482	20.769455
927.216752	-2.995000	3.667600	-10.983000	25.201230	0.000485	20.768407
928.218438	-2.996900	3.668500	-10.993000	25.188378	0.000485	20.772099
929.217708	-3.009700	3.667100	-11.036000	25.193797	0.000487	20.778014
930.221743	-3.020100	3.666900	-11.074000	25.211172	0.000485	20.773173
931.218991	-2.988900	3.668300	-10.962000	25.229343	0.000483	20.773398
932.216873	-3.010800	3.667500	-11.041000	25.257605	0.000483	20.802246
933.216661	-3.018700	3.665500	-11.064000	25.290513	0.000483	20.753732
934.217329	-3.008400	3.665900	-11.027000	25.333487	0.000484	20.766060
935.217591	-3.010200	3.666700	-11.036000	25.320687	0.000483	20.780709
936.220558	-3.007800	3.666600	-11.028000	25.338707	0.000483	20.770827
937.217402	-2.999300	3.666600	-10.997000	25.310074	0.000483	20.789967
938.218009	-3.007800	3.665700	-11.025000	25.315218	0.000482	20.775692
939.221774	-3.001500	3.665100	-11.000000	25.308582	0.000481	20.771874
940.218053	-3.010200	3.665500	-11.032000	25.296901	0.000481	20.765361
941.218789	-2.989600	3.664600	-10.955000	25.285118	0.000479	20.782929
942.219024	-3.006000	3.664000	-11.013000	25.300578	0.000480	20.757673
943.220054	-2.990900	3.664900	-10.960000	25.333984	0.000479	20.752334
944.218973	-2.967400	3.664000	-10.871000	25.296603	0.000478	20.783080
945.219126	-2.982300	3.665200	-10.930000	25.266326	0.000478	20.768803
946.220711	-2.984400	3.664900	-10.936000	25.243933	0.000479	20.764337
947.219492	-2.999500	3.663300	-10.988000	25.266253	0.000479	20.773471
948.218985	-2.993500	3.662800	-10.964000	25.289717	0.000479	20.771899
949.219182	-2.989100	3.663800	-10.950000	25.316138	0.000476	20.769503
950.222761	-2.998700	3.663800	-10.985000	25.309502	0.000478	20.767582
951.218113	-3.018000	3.662600	-11.051000	25.318573	0.000478	20.755352
952.221914	-2.998500	3.663200	-10.982000	25.374595	0.000477	20.747591
953.222169	-2.989300	3.662800	-10.948000	25.382746	0.000478	20.762415
954.220456	-3.011200	3.662400	-11.027000	25.363435	0.000476	20.762465
955.223684	-3.018800	3.660400	-11.048000	25.355233	0.000477	20.766083
956.221685	-3.017100	3.661000	-11.045000	25.383168	0.000476	20.759045
957.225260	-2.999300	3.660900	-10.979000	25.360030	0.000475	20.733440
958.228435	-2.978100	3.660900	-10.901000	25.288498	0.000472	20.757872
959.224837	-2.996300	3.660700	-10.968000	25.236823	0.000474	20.767630
960.223372	-2.989100	3.660900	-10.942000	25.246541	0.000473	20.753680
961.221931	-2.993000	3.660800	-10.955000	25.208957	0.000473	20.782803
962.224405	-2.990600	3.660100	-10.946000	25.274006	0.000475	20.742373
963.226607	-3.008100	3.658500	-11.005000	25.294512	0.000474	20.756324
964.222655	-3.000100	3.659700	-10.979000	25.312060	0.000472	20.758770
965.222581	-3.006400	3.659000	-11.000000	25.327021	0.000471	20.747713
966.224883	-3.021900	3.657700	-11.052000	25.306442	0.000474	20.756448
967.224734	-2.975700	3.658900	-10.887000	25.281362	0.000472	20.745966
968.228541	-2.998800	3.656900	-10.966000	25.294013	0.000472	20.757246
969.224600	-2.985300	3.657700	-10.918000	25.342580	0.000471	20.731566
970.224522	-2.988600	3.657500	-10.929000	25.333954	0.000473	20.743769
971.227540	-2.996400	3.658100	-10.959000	25.308453	0.000474	20.746614
972.226172	-2.993400	3.657000	-10.947000	25.330922	0.000471	20.762535
973.229003	-2.968000	3.656800	-10.853000	25.307060	0.000472	20.752328
974.226677	-2.995000	3.657100	-10.952000	25.328112	0.000471	20.752128
975.228614	-2.992100	3.656300	-10.939000	25.336810	0.000469	20.743317
976.228138	-3.024100	3.655800	-11.055000	25.347199	0.000469	20.764655
977.228117	-2.997700	3.656000	-10.958000	25.365268	0.000469	20.753874
978.228453	-3.001000	3.656400	-10.972000	25.390966	0.000468	20.743641
979.231493	-2.991600	3.653800	-10.930000	25.390369	0.000470	20.743042
980.228556	-2.999600	3.655300	-10.964000	25.392233	0.000467	20.755346
981.228192	-2.997100	3.654700	-10.953000	25.431524	0.000468	20.736478
982.232599	-2.993200	3.654300	-10.937000	25.463707	0.000467	20.731810
983.229785	-2.999500	3.653800	-10.959000	25.467062	0.000468	20.749879
984.239110	-2.988600	3.653500	-10.918000	25.460824	0.000467	20.739821
985.229219	-2.986600	3.654400	-10.913000	25.451480	0.000466	20.750353
986.231131	-2.962700	3.654500	-10.826000	25.425807	0.000464	20.740694
987.231102	-3.012500	3.652800	-11.002000	25.399811	0.000466	20.731186
988.232986	-2.999000	3.653000	-10.954000	25.399984	0.000465	20.734204
989.231150	-2.992800	3.652400	-10.930000	25.364768	0.000466	20.751001
990.235279	-3.013900	3.652300	-11.006000	25.335688	0.000465	20.733181
991.233298	-3.020000	3.652000	-11.028000	25.383060	0.000464	20.740918
992.231223	-3.012100	3.650800	-10.995000	25.389322	0.000463	20.748629
993.233422	-2.971500	3.652000	-10.851000	25.371079	0.000465	20.730784
994.235567	-3.009700	3.650800	-10.986000	25.384002	0.000463	20.737597
995.237184	-3.008300	3.649600	-10.978000	25.337701	0.000463	20.739470
996.235071	-3.017000	3.650400	-11.012000	25.328107	0.000463	20.743113
997.233792	-3.016500	3.649400	-11.007000	25.370358	0.000462	20.749027
998.235687	-2.989000	3.650200	-10.909000	25.368098	0.000462	20.729213
999.235296	-3.032500	3.648100	-11.062000	25.363772	0.000462	20.744311
1000.235548	-2.996200	3.649700	-10.934000	25.359646	0.000463	20.750126
1001.237782	-3.005800	3.648500	-10.965000	25.354551	0.000461	20.734577
1002.237959	-3.014100	3.647600	-10.993000	25.365611	0.000462	20.749951
1003.235358	-3.014700	3.647000	-10.993000	25.340409	0.000460	20.732705
1004.236673	-2.998400	3.649000	-10.940000	25.329971	0.000459	20.728863
1005.238523	-2.990900	3.648400	-10.911000	25.291993	0.000460	20.738621
1006.240015	-2.984300	3.647300	-10.884000	25.288959	0.000460	20.728463
1007.237208	-2.996800	3.647700	-10.931000	25.310335	0.000459	20.747081
1008.239491	-3.009900	3.647300	-10.977000	25.366008	0.000460	20.763626
1009.238626	-3.013700	3.646700	-10.988000	25.412708	0.000459	20.723273
1010.238617	-3.006800	3.646200	-10.962000	25.379927	0.000459	20.741566
1011.242693	-3.008200	3.645800	-10.965000	25.403314	0.000457	20.751299
1012.242970	-2.999200	3.645200	-10.931000	25.401624	0.000459	20.721151
1013.240290	-3.011200	3.645700	-10.977000	25.404481	0.000458	20.724494
1014.238880	-3.009500	3.646200	-10.973000	25.400928	0.000460	20.736101
1015.241261	-2.999300	3.644800	-10.932000	25.363300	0.000456	20.767545
1016.243213	-3.004400	3.644800	-10.950000	25.381443	0.000457	20.736450
1017.244401	-2.999900	3.645000	-10.934000	25.327957	0.000457	20.752447
1018.240558	-2.998800	3.644600	-10.928000	25.348213	0.000455	20.722049
1019.244546	-3.004000	3.644800	-10.949000	25.369289	0.000452	20.735625
1020.243030	-3.006700	3.643100	-10.952000	25.345032	0.000456	20.741616
1021.240973	-3.000900	3.644900	-10.937000	25.387954	0.000456	20.737772
1022.244682	-2.984300	3.644600	-10.876000	25.452000	0.000456	20.730960
1023.242725	-3.010100	3.643000	-10.965000	25.443724	0.000453	20.746831
1024.242758	-3.001100	3.644100	-10.935000	25.427097	0.000453	20.750525
1025.244058	-3.004500	3.643400	-10.946000	25.400033	0.000453	20.746581
1026.241755	-3.018800	3.641500	-10.992000	25.370656	0.000453	20.741265
1027.246577	-3.010800	3.642400	-10.966000	25.372172	0.000452	20.753694
1028.241897	-3.000500	3.641200	-10.925000	25.385170	0.000453	20.736399
1029.242181	-2.980200	3.641800	-10.852000	25.398020	0.000453	20.726068
1030.243107	-3.007600	3.642400	-10.954000	25.396877	0.000453	20.750999
1031.246488	-2.997100	3.639800	-10.908000	25.391457	0.000453	20.752670
1032.243361	-2.985500	3.642300	-10.873000	25.387233	0.000451	20.740841
1033.246645	-3.006300	3.641000	-10.945000	25.424512	0.000452	20.748403
1034.244364	-2.986600	3.640100	-10.870000	25.478391	0.000451	20.747505
1035.244930	-3.007700	3.640300	-10.948000	25.479037	0.000453	20.756689
1036.245008	-2.993000	3.639400	-10.892000	25.432987	0.000450	20.759284
1037.244118	-2.982000	3.640500	-10.855000	25.429209	0.000450	20.745533
1038.248169	-3.015900	3.638900	-10.974000	25.394539	0.000452	20.728262
1039.244957	-2.961000	3.639600	-10.775000	25.388202	0.000449	20.759833
1040.243986	-3.002900	3.637200	-10.921000	25.425854	0.000449	20.733629
1041.245234	-2.998100	3.638600	-10.907000	25.464648	0.000449	20.752196
1042.245521	-2.989400	3.638400	-10.876000	25.439572	0.000449	20.762578
1043.246326	-2.984600	3.638900	-10.860000	25.414994	0.000447	20.752121
1044.249298	-2.993900	3.636700	-10.887000	25.387978	0.000446	20.764824
1045.245543	-3.019000	3.636300	-10.977000	25.433408	0.000446	20.758285
1046.244510	-3.019000	3.635700	-10.976000	25.471630	0.000447	20.745457
1047.246726	-3.022400	3.637000	-10.991000	25.443374	0.000447	20.753119
1048.244506	-2.984200	3.637300	-10.853000	25.423914	0.000447	20.754915
1049.248045	-2.996400	3.635800	-10.893000	25.423690	0.000446	20.762751
1050.244654	-3.004100	3.635000	-10.919000	25.409897	0.000447	20.753642
1051.244517	-3.005400	3.634200	-10.921000	25.388921	0.000447	20.745381
1052.248057	-3.018700	3.633800	-10.968000	25.411488	0.000447	20.765671
1053.246581	-3.025000	3.633900	-10.991000	25.424386	0.000444	20.746853
1054.250309	-3.005000	3.634400	-10.920000	25.387032	0.000441	20.768141
1055.246281	-2.987600	3.636200	-10.862000	25.422943	0.000444	20.734973
1056.245212	-3.008100	3.634400	-10.931000	25.454704	0.000444	20.754065
1057.250588	-3.001000	3.633100	-10.902000	25.426795	0.000443	20.754015
1058.246174	-2.995400	3.633800	-10.884000	25.448217	0.000444	20.752292
1059.248280	-2.992600	3.633700	-10.874000	25.418941	0.000443	20.766043
1060.247419	-2.989700	3.632600	-10.860000	25.391875	0.000443	20.739813
1061.247480	-2.993200	3.633300	-10.874000	25.392721	0.000439	20.766267
1062.247366	-2.967400	3.634300	-10.783000	25.392025	0.000442	20.774577
1063.249993	-2.975100	3.633300	-10.809000	25.421326	0.000442	20.753265
1064.248016	-2.994500	3.632000	-10.875000	25.459523	0.000440	20.780241
1065.251200	-2.992800	3.632200	-10.869000	25.440137	0.000444	20.765516
1066.248342	-3.013500	3.629500	-10.937000	25.460690	0.000440	20.762447
1067.249943	-2.983800	3.631800	-10.836000	25.429798	0.000440	20.776471
1068.249746	-2.987600	3.631100	-10.847000	25.491456	0.000440	20.785282
1069.248576	-3.009800	3.629100	-10.922000	25.499357	0.000440	20.749593
1070.251216	-2.992900	3.630300	-10.864000	25.480991	0.000438	20.755807
1071.253271	-3.002300	3.629100	-10.895000	25.467199	0.000436	20.748594
1072.251412	-3.012900	3.628400	-10.932000	25.516156	0.000440	20.752712
1073.251185	-2.991200	3.629700	-10.856000	25.527287	0.000439	20.765788
1074.249207	-2.996700	3.628800	-10.873000	25.515260	0.000437	20.766512
1075.251631	-3.011400	3.629400	-10.928000	25.483451	0.000436	20.781511
1076.252727	-3.013100	3.626900	-10.926000	25.453679	0.000438	20.775796
1077.249811	-2.990100	3.628800	-10.849000	25.472144	0.000438	20.762569
1078.248725	-3.015600	3.627300	-10.938000	25.471696	0.000436	20.769706
1079.252392	-3.013200	3.627800	-10.930000	25.443787	0.000438	20.779613
1080.252247	-3.001400	3.627100	-10.886000	25.443539	0.000436	20.767984
1081.254150	-3.006800	3.625200	-10.900000	25.433276	0.000436	20.774273
1082.251733	-3.003500	3.626100	-10.890000	25.488569	0.000435	20.762468
1083.254238	-2.979700	3.627400	-10.806000	25.520352	0.000435	20.757401
1084.256114	-2.986500	3.625800	-10.828000	25.554198	0.000435	20.761994
1085.254121	-2.983900	3.625700	-10.818000	25.550446	0.000434	20.770080
1086.258078	-2.995500	3.625500	-10.859000	25.587346	0.000436	20.750239
1087.255390	-2.988000	3.625800	-10.834000	25.561279	0.000434	20.777166
1088.259441	-2.992100	3.624700	-10.844000	25.541176	0.000434	20.767409
1089.254938	-2.999700	3.624200	-10.871000	25.540802	0.000434	20.778887
1090.255547	-2.988600	3.625200	-10.833000	25.534814	0.000433	20.781883
1091.258685	-2.983900	3.623900	-10.812000	25.516301	0.000434	20.775144
1092.259034	-2.996900	3.622900	-10.856000	25.493662	0.000432	20.768057
1093.257089	-2.987400	3.623600	-10.824000	25.443934	0.000432	20.774070
1094.258074	-2.997400	3.622600	-10.857000	25.419903	0.000429	20.780285
1095.256177	-2.991900	3.623600	-10.841000	25.487499	0.000434	20.779412
1096.259137	-3.000100	3.622000	-10.865000	25.519283	0.000431	20.781459
1097.258425	-2.984100	3.621500	-10.806000	25.522340	0.000432	20.784529
1098.257738	-2.991900	3.621200	-10.834000	25.520401	0.000430	20.788271
1099.259816	-3.015400	3.620100	-10.915000	25.485685	0.000429	20.781858
1100.259558	-3.003700	3.620200	-10.874000	25.456659	0.000431	20.770253
1101.259417	-2.997900	3.621400	-10.856000	25.475123	0.000427	20.795907
1102.264177	-2.994500	3.621100	-10.842000	25.464412	0.000425	20.797953
1103.259937	-2.992300	3.619600	-10.830000	25.483175	0.000426	20.785975
1104.263783	-2.974200	3.621000	-10.769000	25.504572	0.000427	20.780909
1105.259395	-3.006800	3.618900	-10.881000	25.463493	0.000427	20.768107
1106.261504	-3.011200	3.617700	-10.892000	25.469582	0.000427	20.796981
1107.264904	-3.020200	3.618500	-10.928000	25.499428	0.000426	20.776218
1108.264701	-2.991500	3.619200	-10.825000	25.496197	0.000428	20.798104
1109.261661	-2.991800	3.619000	-10.826000	25.538890	0.000427	20.775545
1110.263504	-3.014100	3.619000	-10.906000	25.530417	0.000425	20.801174
1111.267238	-2.993300	3.617000	-10.826000	25.554074	0.000425	20.784629
1112.262086	-3.020200	3.618000	-10.924000	25.569978	0.000422	20.793014
1113.265491	-3.011200	3.616800	-10.890000	25.563989	0.000424	20.804070
1114.260643	-2.977400	3.618300	-10.772000	25.544084	0.000422	20.777915
1115.264955	-3.000000	3.616300	-10.848000	25.491700	0.000422	20.785053
1116.265625	-3.007300	3.615700	-10.872000	25.528902	0.000423	20.782109
1117.265729	-3.010700	3.615900	-10.886000	25.527534	0.000422	20.798753
1118.267951	-3.006000	3.614800	-10.865000	25.550620	0.000422	20.786850
1119.267031	-3.000500	3.617000	-10.852000	25.573754	0.000423	20.787798
1120.266617	-3.004600	3.615500	-10.862000	25.608393	0.000421	20.792714
1121.266817	-3.019900	3.613300	-10.910000	25.592590	0.000421	20.813827
1122.266605	-3.021400	3.612800	-10.914000	25.555267	0.000421	20.790569
1123.271358	-2.976900	3.614100	-10.758000	25.607299	0.000421	20.803470
1124.272462	-2.991200	3.613800	-10.808000	25.598080	0.000421	20.808910
1125.281892	-2.993400	3.614000	-10.817000	25.615897	0.000420	20.798828
1126.271430	-3.001900	3.613700	-10.847000	25.609809	0.000420	20.806939
1127.271643	-2.991600	3.612500	-10.806000	25.606007	0.000419	20.823035
1128.271064	-2.995300	3.612700	-10.820000	25.601508	0.000419	20.795757
1129.279220	-3.011200	3.613000	-10.878000	25.644147	0.000419	20.815822
1130.272278	-2.994200	3.612300	-10.815000	25.642632	0.000417	20.793438
1131.270842	-3.004800	3.612000	-10.851000	25.672596	0.000417	20.814049
1132.270166	-3.014600	3.610400	-10.884000	25.634755	0.000420	20.806863
1133.278764	-2.995400	3.611500	-10.816000	25.568708	0.000419	20.815921
1134.276540	-2.997700	3.611200	-10.824000	25.560259	0.000418	20.802220
1135.275877	-2.968100	3.612100	-10.721000	25.557650	0.000417	20.801022
1136.273931	-3.025500	3.609500	-10.920000	25.558644	0.000417	20.785899
1137.274703	-3.009400	3.610400	-10.864000	25.496593	0.000417	20.819838
1138.277149	-3.023100	3.610200	-10.914000	25.533272	0.000416	20.795032
1139.274147	-3.026100	3.608700	-10.920000	25.539732	0.000415	20.806736
1140.274758	-2.995400	3.609600	-10.812000	25.546789	0.000415	20.820461
1141.273898	-3.002500	3.609200	-10.836000	25.539086	0.000414	20.810828
1142.274766	-3.019700	3.608300	-10.896000	25.518336	0.000413	20.795680
1143.275279	-2.999100	3.607600	-10.819000	25.517814	0.000414	20.820760
1144.274863	-3.018200	3.607400	-10.887000	25.525518	0.000413	20.809057
1145.283288	-3.003800	3.606200	-10.831000	25.545099	0.000414	20.809755
1146.274108	-3.012900	3.608000	-10.869000	25.608439	0.000412	20.803666
1147.273723	-3.005600	3.607200	-10.841000	25.572160	0.000412	20.808957
1148.274590	-3.014200	3.608100	-10.874000	25.564086	0.000415	20.821710
1149.274964	-2.991000	3.606000	-10.784000	25.578173	0.000412	20.805513
1150.279050	-3.018800	3.605600	-10.884000	25.573205	0.000409	20.819963
1151.275658	-3.026800	3.604500	-10.910000	25.591395	0.000411	20.821161
1152.274998	-3.015500	3.605400	-10.870000	25.570074	0.000411	20.808758
1153.276797	-3.009400	3.604800	-10.848000	25.613435	0.000412	20.817218
1154.275759	-2.997700	3.605500	-10.807000	25.649937	0.000411	20.825904
1155.277777	-2.985000	3.606100	-10.764000	25.626778	0.000413	20.830145
1156.275740	-2.982300	3.605200	-10.750000	25.624320	0.000409	20.844745
1157.276753	-3.016700	3.603600	-10.870000	25.603125	0.000407	20.801648
1158.280411	-3.013100	3.601700	-10.852000	25.566796	0.000409	20.834389
1159.278689	-3.000700	3.603300	-10.812000	25.542195	0.000411	20.811580
1160.280548	-3.002200	3.604000	-10.818000	25.558920	0.000407	20.844497
1161.279342	-2.997400	3.603000	-10.799000	25.554895	0.000408	20.831920
1162.279259	-2.998100	3.602600	-10.800000	25.588441	0.000407	20.827204
1163.280530	-3.017300	3.600500	-10.862000	25.559194	0.000408	20.832445
1164.282332	-3.014200	3.601100	-10.853000	25.569779	0.000408	20.835014
1165.281665	-3.009300	3.601400	-10.837000	25.590332	0.000408	20.841904
1166.284271	-3.005000	3.601700	-10.822000	25.629616	0.000407	20.843426
1167.281403	-3.025500	3.600300	-10.892000	25.618583	0.000407	20.824285
1168.285645	-2.998900	3.599200	-10.792000	25.663781	0.000406	20.832222
1169.285672	-3.005900	3.600900	-10.823000	25.668428	0.000404	20.822665
1170.286492	-2.986100	3.599800	-10.748000	25.609713	0.000404	20.832921
1171.290142	-3.005600	3.599300	-10.817000	25.605341	0.000405	20.837538
1172.288295	-3.017800	3.599400	-10.861000	25.632351	0.000404	20.837638
1173.288062	-3.018300	3.597900	-10.859000	25.592097	0.000404	20.837513
1174.285326	-3.018300	3.597500	-10.857000	25.598558	0.000404	20.853010
1175.290953	-2.977400	3.598000	-10.711000	25.612945	0.000403	20.833795
1176.287003	-3.017100	3.597100	-10.852000	25.634141	0.000400	20.842280
1177.286081	-2.990300	3.598800	-10.761000	25.622338	0.000403	20.852711
1178.287183	-2.973400	3.597900	-10.697000	25.605441	0.000402	20.869405
1179.291751	-2.975500	3.598100	-10.706000	25.624675	0.000403	20.846998
1180.288229	-2.998200	3.597500	-10.784000	25.645620	0.000402	20.856654
1181.290024	-2.991600	3.597700	-10.762000	25.644055	0.000403	20.842280
1182.287890	-2.998600	3.595000	-10.779000	25.641694	0.000401	20.845599
1183.287650	-2.977000	3.596700	-10.706000	25.661846	0.000399	20.845924
1184.292393	-2.991500	3.595900	-10.756000	25.687562	0.000401	20.862270
1185.295921	-3.004700	3.594200	-10.798000	25.668977	0.000399	20.851664
1186.291698	-3.013500	3.595200	-10.833000	25.646914	0.000399	20.837092
1187.291800	-3.016000	3.594700	-10.840000	25.675586	0.000397	20.844078
1188.292300	-3.008500	3.594400	-10.813000	25.646268	0.000398	20.853037
1189.292791	-2.999100	3.593400	-10.777000	25.599355	0.000399	20.850966
1190.293051	-2.993800	3.593500	-10.757000	25.554926	0.000398	20.858029
1191.293713	-3.003300	3.594000	-10.793000	25.618439	0.000397	20.864442
1192.296365	-2.987600	3.593600	-10.736000	25.643435	0.000396	20.856356
1193.292086	-3.007100	3.591400	-10.799000	25.663686	0.000397	20.862945
1194.292415	-2.997200	3.592800	-10.768000	25.650766	0.000397	20.844279
1195.299589	-2.995500	3.593000	-10.761000	25.671364	0.000396	20.855958
1196.294108	-2.991600	3.592200	-10.746000	25.685129	0.000396	20.852240
1197.298499	-2.994200	3.592400	-10.755000	25.730697	0.000394	20.864344
1198.293695	-3.015200	3.591100	-10.826000	25.701056	0.000395	20.858754
1199.295598	-3.003000	3.590200	-10.781000	25.624181	0.000394	20.875423
1200.294523	-3.001400	3.590200	-10.775000	25.631460	0.000393	20.873252
1201.294060	-3.005900	3.589900	-10.790000	25.676211	0.000392	20.857033
1202.293654	-2.975200	3.590900	-10.683000	25.713008	0.000392	20.864120
1203.294827	-2.983200	3.590200	-10.709000	25.661824	0.000393	20.876721
1204.294809	-3.005400	3.589600	-10.787000	25.650048	0.000392	20.879592
1205.293315	-2.988100	3.589900	-10.726000	25.610316	0.000390	20.870982
1206.294721	-2.987000	3.589000	-10.719000	25.594861	0.000392	20.841711
1207.294739	-3.012000	3.589200	-10.810000	25.610490	0.000392	20.874950
1208.297854	-3.027200	3.588500	-10.862000	25.609124	0.000392	20.867414
1209.297212	-2.998500	3.588800	-10.760000	25.605271	0.000391	20.862123
1210.296953	-3.007700	3.587300	-10.789000	25.622294	0.000390	20.881589
1211.295971	-3.005800	3.587100	-10.781000	25.640979	0.000392	20.875700
1212.294788	-2.999000	3.586800	-10.755000	25.661478	0.000390	20.873055
1213.297450	-3.009800	3.587000	-10.795000	25.648905	0.000390	20.894564
1214.296011	-3.011500	3.587600	-10.803000	25.623463	0.000389	20.884185
1215.300426	-2.994700	3.586100	-10.739000	25.623885	0.000389	20.879868
1216.296297	-2.987200	3.587100	-10.715000	25.696537	0.000387	20.871283
1217.295907	-3.004300	3.585900	-10.772000	25.715346	0.000387	20.887804
1218.300282	-2.999600	3.586100	-10.756000	25.694774	0.000389	20.887530
1219.303001	-3.017200	3.584200	-10.814000	25.715645	0.000388	20.886207
1220.297831	-2.983900	3.585700	-10.698000	25.689756	0.000387	20.872533
1221.296956	-2.990200	3.585000	-10.719000	25.628012	0.000386	20.892547
1222.301490	-2.984100	3.583600	-10.693000	25.614470	0.000385	20.886058
1223.299310	-3.017500	3.583200	-10.810000	25.627466	0.000386	20.888205
1224.301164	-2.985900	3.583200	-10.698000	25.669878	0.000385	20.895241
1225.300521	-3.007500	3.583800	-10.778000	25.695670	0.000384	20.866145
1226.301461	-2.998800	3.582100	-10.741000	25.676788	0.000386	20.883215
1227.303262	-2.990700	3.582500	-10.713000	25.702106	0.000385	20.869765
1228.302214	-3.000000	3.582800	-10.748000	25.680639	0.000383	20.873333
1229.305912	-3.011600	3.581400	-10.785000	25.666948	0.000385	20.888031
1230.302706	-3.009300	3.581600	-10.777000	25.661186	0.000383	20.888407
1231.302979	-3.010400	3.582800	-10.785000	25.681858	0.000382	20.897315
1232.304143	-3.022900	3.581300	-10.826000	25.733438	0.000381	20.870415
1233.304566	-2.990500	3.581300	-10.709000	25.756395	0.000382	20.877353
1234.304753	-2.996200	3.579900	-10.725000	25.794680	0.000383	20.866973
1235.307392	-3.007700	3.579800	-10.767000	25.741389	0.000382	20.880298
1236.304483	-2.984000	3.580600	-10.683000	25.795576	0.000380	20.872613
1237.306789	-3.014100	3.579200	-10.788000	25.743452	0.000381	20.882370
1238.305034	-3.021800	3.577700	-10.810000	25.728198	0.000380	20.877005
1239.307120	-2.990300	3.579600	-10.703000	25.715899	0.000379	20.874136
1240.308103	-3.010800	3.578400	-10.773000	25.671053	0.000381	20.869395
1241.305380	-2.994800	3.578200	-10.715000	25.692867	0.000381	20.858589
1242.306248	-2.977800	3.578200	-10.654000	25.749864	0.000379	20.843767
1243.309197	-2.989100	3.577800	-10.693000	25.745169	0.000378	20.860388
1244.307985	-2.988500	3.578100	-10.692000	25.730808	0.000380	20.876782
1245.308813	-2.997800	3.577400	-10.723000	25.711105	0.000378	20.874536
1246.309453	-2.992200	3.576400	-10.701000	25.721242	0.000378	20.842520
1247.306913	-3.002700	3.577200	-10.740000	25.688621	0.000378	20.860488
1248.311742	-3.013300	3.576200	-10.775000	25.689565	0.000377	20.872815
1249.311810	-3.003300	3.574600	-10.734000	25.689961	0.000377	20.872739
1250.311583	-3.006200	3.576200	-10.749000	25.675079	0.000375	20.866327
1251.312662	-3.008600	3.576100	-10.758000	25.712944	0.000376	20.868797
1252.311811	-3.001600	3.575400	-10.731000	25.705589	0.000376	20.835807
1253.309103	-3.008300	3.575200	-10.754000	25.709938	0.000372	20.885216
1254.310595	-3.010100	3.574500	-10.759000	25.757293	0.000376	20.865928
1255.316115	-3.002300	3.573700	-10.728000	25.773567	0.000376	20.851455
1256.315162	-2.985800	3.573100	-10.668000	25.806459	0.000374	20.838977
1257.318008	-2.987600	3.574400	-10.678000	25.750561	0.000373	20.855847
1258.313210	-3.012600	3.573200	-10.763000	25.753492	0.000375	20.843144
1259.312821	-3.003900	3.572500	-10.729000	25.725517	0.000373	20.851081
1260.311726	-3.008500	3.571500	-10.743000	25.710212	0.000374	20.852777
1261.318088	-3.011000	3.571700	-10.753000	25.737815	0.000371	20.859166
1262.314733	-3.006900	3.571700	-10.739000	25.738386	0.000373	20.862110
1263.313413	-3.001300	3.572700	-10.722000	25.763654	0.000375	20.855722
1264.313843	-3.000100	3.571900	-10.716000	25.752250	0.000373	20.845216
1265.313627	-2.982500	3.571300	-10.651000	25.781342	0.000371	20.863058
1266.315372	-2.980900	3.570000	-10.641000	25.756922	0.000373	20.845167
1267.313686	-2.962800	3.571700	-10.581000	25.772150	0.000371	20.837705
1268.317564	-3.022800	3.570200	-10.791000	25.760648	0.000369	20.850332
1269.313351	-2.982300	3.570100	-10.646000	25.787679	0.000371	20.848561
1270.315318	-3.023600	3.568000	-10.786000	25.770486	0.000371	20.829395
1271.315631	-3.024500	3.568400	-10.792000	25.830806	0.000370	20.835459
1272.314074	-3.007800	3.569400	-10.735000	25.835302	0.000370	20.837131
1273.313215	-2.994500	3.569500	-10.688000	25.757492	0.000366	20.838628
1274.315775	-3.003600	3.568100	-10.715000	25.709813	0.000369	20.835782
1275.318976	-2.993800	3.568600	-10.683000	25.694956	0.000366	20.828446
1276.315189	-3.014000	3.565900	-10.747000	25.721565	0.000367	20.855646
1277.316262	-2.998300	3.567200	-10.695000	25.753864	0.000367	20.818863
1278.318182	-3.006700	3.564800	-10.718000	25.778758	0.000365	20.848609
1279.316131	-3.003800	3.568200	-10.718000	25.755181	0.000366	20.815444
1280.315774	-2.993300	3.567500	-10.678000	25.773093	0.000367	20.819212
1281.315921	-3.014700	3.564600	-10.746000	25.775205	0.000364	20.837928
1282.314671	-3.008700	3.565500	-10.727000	25.779826	0.000365	20.840199
1283.318441	-3.016400	3.564900	-10.753000	25.806458	0.000366	20.816691
1284.315266	-2.950600	3.566600	-10.523000	25.785689	0.000363	20.827597
1285.316844	-2.988000	3.564600	-10.650000	25.767652	0.000363	20.827971
1286.322807	-3.001500	3.564000	-10.697000	25.809986	0.000364	20.850105
1287.317605	-3.000000	3.565900	-10.697000	25.785515	0.000364	20.815094
1288.320782	-3.010500	3.563300	-10.727000	25.823998	0.000362	20.832887
1289.317516	-3.009800	3.564500	-10.727000	25.781615	0.000361	20.839151
1290.321649	-3.003700	3.561900	-10.698000	25.744523	0.000364	20.835084
1291.318801	-2.994100	3.563400	-10.668000	25.705414	0.000361	20.851277
1292.318855	-2.996800	3.561600	-10.673000	25.721068	0.000363	20.815319
1293.320278	-3.010300	3.563200	-10.726000	25.744646	0.000359	20.824303
1294.321698	-2.975600	3.563200	-10.602000	25.752944	0.000361	20.842120
1295.322931	-3.011100	3.561600	-10.723000	25.731578	0.000362	20.834884
1296.324170	-2.996200	3.561300	-10.670000	25.723453	0.000361	20.824827
1297.323868	-2.986800	3.561500	-10.636000	25.717067	0.000358	20.809404
1298.321563	-2.993800	3.559300	-10.655000	25.738709	0.000357	20.840624
1299.325947	-3.004400	3.560200	-10.696000	25.765540	0.000359	20.809728
1300.324450	-3.002200	3.558800	-10.683000	25.770981	0.000358	20.828470
1301.325749	-2.992000	3.561200	-10.655000	25.791129	0.000357	20.829268
1302.328005	-2.984800	3.560400	-10.626000	25.770410	0.000357	20.826473
1303.326937	-2.988800	3.558100	-10.633000	25.751899	0.000355	20.819260
1304.329276	-3.005200	3.558500	-10.693000	25.706085	0.000359	20.821607
1305.325385	-2.990500	3.557100	-10.637000	25.705861	0.000357	20.817114
1306.326897	-3.010800	3.557700	-10.711000	25.691426	0.000356	20.836754
1307.332910	-2.993700	3.558000	-10.651000	25.692842	0.000354	20.822530
1308.326965	-3.002500	3.557400	-10.680000	25.730309	0.000356	20.825075
1309.328167	-3.015900	3.557600	-10.728000	25.708843	0.000352	20.805885
1310.326664	-3.017500	3.556000	-10.729000	25.719997	0.000355	20.823726
1311.326818	-3.006600	3.557700	-10.696000	25.774507	0.000354	20.817314
1312.325692	-3.006500	3.556700	-10.692000	25.755898	0.000357	20.808105
1313.327460	-3.012500	3.555900	-10.711000	25.786234	0.000353	20.793531
1314.325645	-3.011600	3.555700	-10.708000	25.841186	0.000355	20.816489
1315.327546	-2.990700	3.555400	-10.633000	25.880338	0.000356	20.817412
1316.327338	-2.988700	3.555700	-10.626000	25.831125	0.000353	20.801641
1317.328106	-2.985000	3.556600	-10.616000	25.814033	0.000352	20.817187
1318.326189	-2.980200	3.555000	-10.594000	25.764195	0.000352	20.812645
1319.329530	-3.007200	3.553500	-10.685000	25.783475	0.000353	20.803088
1320.326325	-2.967800	3.555200	-10.550000	25.809436	0.000353	20.822053
1321.326447	-2.991400	3.552100	-10.624000	25.808964	0.000354	20.807828
1322.327185	-2.998100	3.552000	-10.649000	25.804567	0.000352	20.795826
1323.328823	-3.004000	3.552600	-10.670000	25.769140	0.000351	20.800068
1324.334373	-3.013300	3.552400	-10.704000	25.777064	0.000350	20.813243
1325.333154	-2.998200	3.551100	-10.646000	25.770804	0.000352	20.808378
1326.331254	-2.998100	3.550400	-10.644000	25.793585	0.000350	20.809924
1327.330841	-3.005400	3.550800	-10.671000	25.796244	0.000350	20.807853
1328.333684	-3.012200	3.550600	-10.693000	25.794678	0.000350	20.798695
1329.332454	-3.018300	3.550200	-10.715000	25.814105	0.000351	20.798769
1330.336616	-3.001400	3.550500	-10.656000	25.853160	0.000350	20.802439
1331.332687	-2.995500	3.550900	-10.636000	25.879815	0.000350	20.802663
1332.335483	-3.006400	3.550600	-10.674000	25.896310	0.000348	20.794103
1333.331774	-2.999200	3.550900	-10.648000	25.891713	0.000350	20.798494
1334.332303	-3.013000	3.549200	-10.692000	25.842650	0.000348	20.791881
1335.338092	-2.996600	3.549000	-10.634000	25.833981	0.000350	20.810673
1336.332195	-3.006600	3.547600	-10.666000	25.833757	0.000347	20.813767
1337.333662	-3.009100	3.547400	-10.674000	25.870921	0.000346	20.788986
1338.333557	-3.020700	3.546000	-10.710000	25.881852	0.000346	20.787640
1339.333097	-3.010500	3.548200	-10.681000	25.885479	0.000346	20.786067
1340.333690	-2.994400	3.547200	-10.621000	25.876213	0.000347	20.802364
1341.337503	-2.992900	3.546800	-10.614000	25.871219	0.000347	20.802563
1342.334849	-3.001400	3.547000	-10.645000	25.873828	0.000346	20.783847
1343.338787	-2.971800	3.545900	-10.537000	25.833558	0.000345	20.786067
1344.336693	-3.004500	3.545200	-10.650000	25.846626	0.000344	20.788289
1345.336616	-3.010200	3.545000	-10.670000	25.827944	0.000344	20.782798
1346.342543	-2.991700	3.545000	-10.605000	25.815176	0.000345	20.783723
1347.337142	-2.991200	3.545800	-10.606000	25.837336	0.000343	20.793181
1348.340038	-3.012100	3.545300	-10.678000	25.789164	0.000343	20.779879
1349.337409	-3.000400	3.545000	-10.635000	25.756097	0.000343	20.795502
1350.340017	-3.015700	3.543700	-10.686000	25.779203	0.000342	20.784572
1351.340653	-2.988900	3.543800	-10.591000	25.793687	0.000342	20.784422
1352.340350	-3.014600	3.544400	-10.684000	25.789165	0.000340	20.783200
1353.339926	-3.021900	3.543100	-10.706000	25.834629	0.000341	20.795204
1354.336887	-3.006700	3.542900	-10.651000	25.875346	0.000338	20.783949
1355.342657	-3.003500	3.543100	-10.641000	25.863770	0.000338	20.796502
1356.340542	-3.011400	3.543000	-10.668000	25.859248	0.000339	20.786744
1357.340760	-3.017900	3.541600	-10.687000	25.834605	0.000340	20.791861
1358.340065	-3.008300	3.541600	-10.653000	25.833562	0.000338	20.799347
1359.340534	-3.012100	3.542200	-10.668000	25.819972	0.000339	20.792334
1360.340042	-2.992700	3.541200	-10.596000	25.815153	0.000338	20.803614
1361.341229	-3.034200	3.539600	-10.739000	25.818110	0.000338	20.767703
1362.342555	-3.040500	3.540100	-10.762000	25.811526	0.000339	20.779108
1363.342269	-3.006100	3.540600	-10.642000	25.824643	0.000337	20.767628
1364.342614	-3.031800	3.538200	-10.726000	25.798582	0.000337	20.797874
1365.341938	-3.016700	3.539200	-10.676000	25.776993	0.000335	20.774292
1366.342753	-2.996900	3.540100	-10.609000	25.749615	0.000335	20.779033
1367.342362	-3.010800	3.539000	-10.654000	25.776794	0.000335	20.780256
1368.343821	-3.006300	3.538100	-10.636000	25.789788	0.000335	20.780980
1369.343258	-3.017200	3.537100	-10.672000	25.791005	0.000334	20.784099
1370.341027	-2.995100	3.537300	-10.594000	25.813712	0.000334	20.781304
1371.346885	-3.009800	3.536800	-10.644000	25.758061	0.000333	20.779456
1372.344341	-3.023700	3.536000	-10.691000	25.807576	0.000333	20.765182
1373.347876	-3.007400	3.535800	-10.633000	25.838629	0.000332	20.782152
1374.347102	-3.034100	3.535700	-10.726000	25.838479	0.000333	20.782949
1375.345740	-2.978800	3.536000	-10.532000	25.854180	0.000332	20.765531
1376.345637	-2.996000	3.535800	-10.592000	25.821263	0.000331	20.766604
1377.347719	-3.022100	3.534600	-10.681000	25.803549	0.000331	20.773466
1378.348356	-3.001800	3.536200	-10.614000	25.810655	0.000332	20.778707
1379.346488	-2.992800	3.535400	-10.579000	25.843522	0.000333	20.754824
1380.346551	-2.986900	3.534600	-10.557000	25.861533	0.000331	20.771495
1381.346611	-2.992400	3.534100	-10.575000	25.821560	0.000331	20.767850
1382.348719	-3.002400	3.534200	-10.610000	25.760990	0.000330	20.764855
1383.347646	-2.971500	3.534600	-10.502000	25.751375	0.000330	20.770370
1384.348451	-3.002700	3.532800	-10.607000	25.751648	0.000331	20.757842
1385.348937	-2.982900	3.533100	-10.537000	25.778157	0.000328	20.758865
1386.353668	-2.995400	3.533100	-10.582000	25.849631	0.000328	20.781824
1387.351516	-2.969200	3.532000	-10.486000	25.851717	0.000328	20.762582
1388.351054	-2.995900	3.532300	-10.581000	25.827495	0.000328	20.772390
1389.352533	-2.988900	3.532300	-10.556000	25.822650	0.000328	20.763255
1390.350703	-2.995100	3.531900	-10.577000	25.848685	0.000328	20.766174
1391.352474	-3.011700	3.529200	-10.629000	25.829954	0.000328	20.760635
1392.351146	-2.984900	3.530200	-10.537000	25.816935	0.000326	20.753247
1393.352330	-2.986600	3.530800	-10.544000	25.809905	0.000326	20.776057
1394.353213	-2.984800	3.530500	-10.537000	25.811916	0.000327	20.748679
1395.359231	-3.004700	3.529400	-10.603000	25.797632	0.000325	20.755194
1396.357359	-2.982200	3.529500	-10.525000	25.844683	0.000327	20.751249
1397.366051	-2.992100	3.529500	-10.560000	25.849851	0.000325	20.779200
1398.355212	-2.987300	3.529200	-10.542000	25.785755	0.000325	20.764601
1399.357801	-3.015000	3.528100	-10.636000	25.775096	0.000323	20.745832
1400.359704	-2.991200	3.528800	-10.554000	25.797133	0.000323	20.766072
1401.355257	-3.022500	3.527800	-10.662000	25.803144	0.000322	20.746979
1402.357414	-2.995800	3.527100	-10.565000	25.809852	0.000323	20.774581
1403.359228	-2.972200	3.527100	-10.483000	25.802424	0.000323	20.759059
1404.360291	-3.015500	3.526500	-10.633000	25.854767	0.000323	20.751895
1405.362441	-2.993300	3.526300	-10.554000	25.889993	0.000324	20.737022
1406.360338	-2.966200	3.526900	-10.461000	25.948394	0.000324	20.753967
1407.360447	-2.988500	3.525100	-10.532000	25.929365	0.000323	20.756187
1408.359248	-3.026500	3.524200	-10.666000	25.877572	0.000321	20.748252
1409.363215	-2.985100	3.524100	-10.518000	25.884055	0.000324	20.735323
1410.363180	-2.993200	3.524400	-10.548000	25.888848	0.000321	20.765744
1411.360652	-3.015300	3.524400	-10.626000	25.906809	0.000321	20.746802
1412.360536	-3.036400	3.522100	-10.694000	25.880351	0.000321	20.740138
1413.360440	-3.004300	3.522700	-10.583000	25.832853	0.000320	20.770186
1414.363723	-3.032700	3.522000	-10.680000	25.829474	0.000321	20.745454
1415.361616	-3.018000	3.523200	-10.632000	25.832033	0.000319	20.740911
1416.366809	-3.021700	3.522100	-10.641000	25.849944	0.000322	20.740886
1417.367084	-2.986600	3.523400	-10.522000	25.866290	0.000317	20.738340
1418.364568	-3.006200	3.522700	-10.589000	25.862241	0.000318	20.734747
1419.367748	-3.016800	3.520500	-10.620000	25.859135	0.000317	20.754387
1420.365944	-3.042900	3.520000	-10.711000	25.864997	0.000319	20.739887
1421.369249	-3.006000	3.518700	-10.575000	25.892025	0.000319	20.733847
1422.369315	-3.014700	3.519600	-10.610000	25.894880	0.000316	20.758053
1423.364986	-3.024900	3.519200	-10.645000	25.915897	0.000315	20.747398
1424.366667	-3.012700	3.518800	-10.600000	25.870039	0.000316	20.740210
1425.375947	-3.009600	3.519200	-10.591000	25.820627	0.000316	20.741782
1426.368078	-2.998000	3.519000	-10.550000	25.774715	0.000315	20.740708
1427.369722	-3.020900	3.518500	-10.627000	25.803560	0.000315	20.737914
1428.373233	-3.018700	3.517200	-10.616000	25.788901	0.000314	20.743104
1429.368617	-3.022500	3.518300	-10.633000	25.817918	0.000314	20.747596
1430.368503	-3.011500	3.517300	-10.591000	25.818663	0.000315	20.735067
1431.368036	-2.998800	3.518700	-10.551000	25.824923	0.000315	20.739934
1432.371533	-3.002400	3.516700	-10.558000	25.775732	0.000315	20.738884
1433.369163	-3.004200	3.515800	-10.561000	25.761050	0.000313	20.737413
1434.369262	-2.992400	3.517200	-10.524000	25.782639	0.000312	20.737762
1435.370194	-3.002000	3.516800	-10.557000	25.792427	0.000313	20.733369
1436.367554	-3.007900	3.515400	-10.573000	25.803954	0.000312	20.710333
1437.369694	-2.985100	3.515600	-10.494000	25.787831	0.000313	20.743925
1438.378980	-3.004900	3.514500	-10.560000	25.740676	0.000311	20.726905
1439.372117	-2.988300	3.513700	-10.499000	25.758391	0.000311	20.726207
1440.373025	-2.982600	3.514100	-10.480000	25.788750	0.000312	20.730623
1441.374469	-2.992300	3.515000	-10.517000	25.843255	0.000311	20.726106
1442.373098	-3.002200	3.514100	-10.548000	25.861142	0.000310	20.732694
1443.376954	-3.006200	3.514200	-10.564000	25.884096	0.000312	20.736788
1444.375939	-3.007000	3.513700	-10.565000	25.881860	0.000310	20.731222
1445.374378	-3.003100	3.512300	-10.546000	25.849838	0.000311	20.727028
1446.375372	-3.025700	3.511300	-10.623000	25.833169	0.000310	20.739208
1447.374793	-3.016700	3.512400	-10.595000	25.811903	0.000308	20.731122
1448.377120	-3.010900	3.511000	-10.571000	25.844198	0.000310	20.724682
1449.375674	-2.983800	3.513100	-10.481000	25.870059	0.000309	20.736911
1450.375155	-2.982000	3.512900	-10.475000	25.929032	0.000310	20.730247
1451.374924	-3.002700	3.511300	-10.543000	25.969596	0.000310	20.740180
1452.377495	-2.997100	3.511000	-10.522000	26.001366	0.000306	20.737485
1453.377893	-2.993500	3.510100	-10.507000	25.971409	0.000306	20.727776
1454.381083	-3.009500	3.509100	-10.560000	25.935068	0.000305	20.733466
1455.378410	-2.987400	3.509400	-10.483000	25.865960	0.000305	20.731845
1456.378598	-2.999900	3.509000	-10.525000	25.823256	0.000304	20.729249
1457.378159	-2.985500	3.508600	-10.474000	25.791281	0.000305	20.737908
1458.377863	-2.964900	3.508600	-10.402000	25.821417	0.000306	20.733092
1459.382763	-2.982700	3.509700	-10.466000	25.848048	0.000305	20.742301
1460.379223	-2.990700	3.508300	-10.491000	25.852198	0.000304	20.719441
1461.380356	-3.000000	3.508400	-10.525000	25.831579	0.000303	20.731446
1462.380818	-2.991000	3.506400	-10.486000	25.821020	0.000306	20.727477
1463.381099	-3.030600	3.507100	-10.627000	25.841988	0.000302	20.751386
1464.379121	-3.023000	3.506300	-10.598000	25.860222	0.000304	20.740305
1465.385022	-3.018600	3.506200	-10.583000	25.905433	0.000302	20.732618
1466.383800	-2.990700	3.505300	-10.482000	25.917382	0.000302	20.739881
1467.382753	-2.978300	3.506900	-10.444000	25.928039	0.000303	20.740629
1468.386445	-2.992500	3.505400	-10.489000	25.859650	0.000302	20.736412
1469.381886	-2.988900	3.503500	-10.471000	25.816300	0.000301	20.707087
1470.386705	-2.986900	3.503600	-10.464000	25.760376	0.000299	20.723933
1471.387610	-2.993600	3.503600	-10.488000	25.741120	0.000301	20.714074
1472.383080	-3.009500	3.501700	-10.537000	25.775979	0.000300	20.734391
1473.384269	-2.994800	3.502700	-10.488000	25.809145	0.000302	20.751111
1474.383751	-3.000000	3.502900	-10.508000	25.839279	0.000301	20.740604
1475.384483	-2.973000	3.503300	-10.415000	25.923493	0.000299	20.772099
1476.383629	-2.989100	3.502800	-10.470000	25.948482	0.000300	20.747417
1477.385699	-2.989200	3.500600	-10.463000	25.960604	0.000299	20.728775
1478.384655	-2.990900	3.501900	-10.473000	25.927741	0.000300	20.744123
1479.390341	-3.016400	3.500300	-10.558000	25.891573	0.000297	20.739557
1480.384838	-2.989000	3.501300	-10.464000	25.902949	0.000299	20.762366
1481.387598	-3.019500	3.499100	-10.564000	25.882356	0.000298	20.739307
1482.385644	-2.999500	3.500700	-10.499000	25.806635	0.000298	20.722036
1483.386727	-3.000100	3.500800	-10.502000	25.834112	0.000296	20.746793
1484.388994	-2.988200	3.499000	-10.454000	25.844421	0.000297	20.745770
1485.392870	-3.016500	3.500200	-10.557000	25.906178	0.000296	20.759446
1486.392020	-3.007600	3.497500	-10.518000	25.912762	0.000297	20.737610
1487.387321	-3.016600	3.497500	-10.549000	25.890428	0.000299	20.735562
1488.388765	-3.018400	3.497000	-10.555000	25.915518	0.000295	20.736111
1489.388175	-2.997100	3.498300	-10.484000	25.888069	0.000298	20.753581
1490.387079	-3.016100	3.497700	-10.549000	25.891199	0.000296	20.747243
1491.389409	-2.989000	3.496200	-10.449000	25.901434	0.000295	20.726703
1492.392934	-2.973600	3.497600	-10.399000	25.886305	0.000294	20.727152
1493.390569	-2.985800	3.496700	-10.440000	25.860197	0.000293	20.738857
1494.396570	-2.989100	3.497000	-10.452000	25.787084	0.000293	20.746968
1495.391572	-2.977300	3.496300	-10.409000	25.739283	0.000291	20.736886
1496.392663	-2.991500	3.495100	-10.454000	25.771382	0.000292	20.736886
1497.393993	-2.999700	3.496100	-10.486000	25.791656	0.000293	20.755354
1498.391938	-2.992200	3.494200	-10.454000	25.765470	0.000294	20.752759
1499.392769	-2.993100	3.494200	-10.458000	25.803755	0.000293	20.738110
1500.393471	-3.010200	3.493800	-10.516000	25.838560	0.000292	20.756004
1501.394033	-3.024300	3.493200	-10.563000	25.816425	0.000292	20.747519
1502.394605	-2.989800	3.493900	-10.445000	25.862707	0.000289	20.758924
1503.394391	-3.000000	3.492500	-10.477000	25.799905	0.000290	20.740407
1504.394698	-2.979600	3.492700	-10.406000	25.834537	0.000290	20.757652
1505.394601	-3.000200	3.492400	-10.477000	25.862484	0.000290	20.737362
1506.395900	-3.008700	3.492300	-10.506000	25.872894	0.000289	20.746871
1507.396871	-3.005200	3.492000	-10.494000	25.850238	0.000290	20.753036
1508.398422	-2.989900	3.490700	-10.435000	25.859430	0.000290	20.755632
1509.397678	-3.011100	3.490700	-10.511000	25.853492	0.000290	20.745399
1510.396788	-2.999100	3.490700	-10.467000	25.845021	0.000290	20.744001
1511.399841	-3.014200	3.490600	-10.521000	25.791634	0.000290	20.747746
1512.397409	-2.999400	3.490200	-10.468000	25.832575	0.000291	20.750940
1513.403136	-3.006300	3.489700	-10.491000	25.851779	0.000288	20.761223
1514.403797	-2.988700	3.490300	-10.430000	25.846785	0.000288	20.769957
1515.399123	-2.977000	3.490100	-10.390000	25.845544	0.000288	20.758752
1516.399788	-2.992000	3.488800	-10.438000	25.898258	0.000290	20.759550
1517.400632	-3.005300	3.488900	-10.484000	25.940488	0.000289	20.746024
1518.405233	-3.010400	3.487600	-10.498000	25.983734	0.000286	20.770032
1519.399697	-2.997900	3.487300	-10.454000	25.960559	0.000288	20.775673
1520.401612	-3.001000	3.487700	-10.466000	25.893862	0.000286	20.770781
1521.400321	-2.995900	3.486800	-10.445000	25.889912	0.000286	20.758277
1522.407583	-2.997800	3.487300	-10.453000	25.867231	0.000287	20.779116
1523.400435	-2.982200	3.487300	-10.398000	25.873541	0.000286	20.764592
1524.401169	-2.978200	3.486300	-10.382000	25.902904	0.000284	20.749993
1525.403183	-3.008600	3.485300	-10.485000	25.880571	0.000284	20.765016
1526.398545	-2.993700	3.484700	-10.431000	25.873591	0.000283	20.759900
1527.401363	-3.010500	3.483700	-10.487000	25.845742	0.000285	20.763218
1528.400916	-2.979900	3.485200	-10.384000	25.832774	0.000282	20.757304
1529.405166	-3.000400	3.483200	-10.450000	25.845766	0.000281	20.773200
1530.404967	-3.041600	3.482400	-10.590000	25.802961	0.000282	20.777617
1531.402798	-3.014500	3.484700	-10.503000	25.795260	0.000285	20.774148
1532.402833	-3.004400	3.484800	-10.468000	25.845492	0.000283	20.749216
1533.404570	-2.993800	3.483900	-10.429000	25.815136	0.000280	20.762819
1534.402314	-2.998600	3.483200	-10.444000	25.787012	0.000282	20.758751
1535.406916	-3.020100	3.480800	-10.511000	25.825594	0.000280	20.770954
1536.402738	-3.008100	3.482400	-10.474000	25.817222	0.000281	20.771079
1537.403425	-2.993400	3.482000	-10.422000	25.818663	0.000279	20.750715
1538.406028	-2.991400	3.481500	-10.414000	25.867329	0.000276	20.770679
1539.407030	-2.995300	3.482600	-10.429000	25.890606	0.000279	20.762768
1540.408301	-3.046700	3.480600	-10.604000	25.932860	0.000280	20.767759
1541.403518	-3.017000	3.480000	-10.497000	25.913509	0.000280	20.778190
1542.404472	-2.994500	3.479700	-10.419000	25.906106	0.000278	20.766960
1543.408393	-3.012600	3.480500	-10.485000	25.892443	0.000277	20.782632
1544.404822	-3.017100	3.478700	-10.495000	25.851553	0.000278	20.768108
1545.410286	-2.984900	3.480200	-10.388000	25.872122	0.000279	20.789719
1546.407611	-3.014900	3.479700	-10.490000	25.901410	0.000276	20.770777
1547.405674	-2.993900	3.478800	-10.414000	25.889287	0.000277	20.781359
1548.408201	-3.016000	3.478700	-10.490000	25.866408	0.000278	20.764538
1549.413449	-2.997800	3.477500	-10.423000	25.903770	0.000278	20.799701
1550.407718	-2.977800	3.478200	-10.356000	25.914848	0.000279	20.783803
1551.410397	-3.007400	3.478300	-10.460000	25.946520	0.000276	20.761568
1552.408958	-3.005300	3.477100	-10.448000	25.963113	0.000278	20.788670
1553.409629	-2.983600	3.476600	-10.371000	25.935020	0.000275	20.796482
1554.406927	-2.997500	3.477400	-10.422000	25.939515	0.000276	20.790092
1555.408710	-3.004800	3.476400	-10.445000	25.942694	0.000273	20.771948
1556.413534	-3.005500	3.474800	-10.443000	25.997442	0.000276	20.803245
1557.411987	-2.982700	3.477000	-10.370000	25.971633	0.000273	20.773522
1558.407502	-2.996600	3.474200	-10.409000	25.933256	0.000273	20.804667
1559.409729	-3.012800	3.474900	-10.468000	25.928237	0.000275	20.792038
1560.411477	-3.019900	3.473500	-10.489000	25.952159	0.000275	20.799001
1561.409673	-2.996700	3.474900	-10.412000	25.962914	0.000273	20.777564
1562.413876	-3.000000	3.473400	-10.419000	25.912016	0.000272	20.774794
1563.410729	-2.990400	3.474000	-10.388000	25.974514	0.000273	20.778313
1564.410864	-2.996700	3.472600	-10.405000	25.895771	0.000271	20.784553
1565.410854	-2.976500	3.473600	-10.338000	25.915394	0.000272	20.776291
1566.410490	-3.008100	3.471800	-10.443000	25.900489	0.000272	20.786921
1567.414208	-2.984400	3.472900	-10.363000	25.875399	0.000271	20.785899
1568.412365	-3.017500	3.471700	-10.475000	25.911493	0.000271	20.799873
1569.414967	-2.987400	3.471700	-10.370000	25.914325	0.000270	20.790865
1570.413084	-2.980000	3.471800	-10.345000	25.894874	0.000271	20.789815
1571.413117	-2.978800	3.471300	-10.339000	25.912014	0.000269	20.777637
1572.417516	-3.016300	3.470500	-10.467000	25.909133	0.000269	20.777113
1573.417873	-3.012000	3.470600	-10.453000	25.947387	0.000269	20.794208
1574.418847	-2.994800	3.470900	-10.394000	25.957746	0.000269	20.779010
1575.417331	-2.992400	3.469700	-10.382000	25.933054	0.000269	20.804938
1576.417925	-3.016600	3.468700	-10.463000	25.934345	0.000269	20.776837
1577.417071	-3.015400	3.468700	-10.459000	25.973493	0.000269	20.800994
1578.419067	-3.011900	3.469000	-10.447000	25.942666	0.000268	20.794206
1579.417028	-2.980300	3.467800	-10.335000	25.970561	0.000268	20.773867
1580.415225	-3.022000	3.467300	-10.477000	25.983602	0.000267	20.785072
1581.421007	-2.990500	3.467700	-10.370000	25.973716	0.000268	20.805486
1582.417933	-2.968700	3.468600	-10.296000	25.944975	0.000266	20.797000
1583.421184	-2.967900	3.468300	-10.293000	25.930469	0.000266	20.814195
1584.416557	-3.001000	3.467300	-10.404000	25.938193	0.000265	20.804885
1585.415883	-2.970900	3.467900	-10.302000	25.960524	0.000266	20.792232
1586.419000	-3.010500	3.464900	-10.429000	25.986456	0.000267	20.798846
1587.425385	-2.989600	3.464800	-10.358000	25.978284	0.000267	20.813868
1588.419948	-3.014500	3.466100	-10.448000	25.949371	0.000264	20.803313
1589.420738	-3.002200	3.465800	-10.404000	25.928404	0.000264	20.793629
1590.418556	-3.012100	3.465400	-10.437000	25.957616	0.000264	20.812545
1591.418288	-3.015200	3.464900	-10.447000	25.983648	0.000264	20.812145
1592.419924	-3.011800	3.463700	-10.432000	25.989908	0.000264	20.795201
1593.418254	-3.011100	3.463100	-10.426000	26.014498	0.000264	20.803311
1594.420678	-3.002400	3.463400	-10.398000	26.018074	0.000261	20.813068
1595.418157	-3.005900	3.463300	-10.410000	25.967054	0.000263	20.800215
1596.419229	-3.012400	3.461200	-10.426000	26.011418	0.000263	20.809699
1597.417787	-3.034600	3.462400	-10.506000	26.003245	0.000261	20.791057
1598.430517	-2.992800	3.463600	-10.365000	25.961789	0.000262	20.802038
1599.419247	-3.015300	3.461100	-10.435000	25.911958	0.000261	20.809823
1600.418154	-2.993600	3.460300	-10.358000	25.944697	0.000260	20.798144
1601.420700	-3.004300	3.461700	-10.399000	25.974282	0.000263	20.801788
1602.421141	-3.006300	3.460700	-10.403000	25.966780	0.000261	20.815587
1603.423043	-3.002600	3.461200	-10.392000	25.986279	0.000261	20.823323
1604.423324	-3.006600	3.460900	-10.405000	25.963054	0.000260	20.818008
1605.426192	-2.999000	3.461000	-10.379000	26.007244	0.000262	20.807403
1606.424005	-3.011300	3.459600	-10.417000	26.042762	0.000260	20.793776
1607.423304	-2.983200	3.460300	-10.323000	26.039583	0.000259	20.827566
1608.423774	-2.984200	3.459100	-10.322000	26.025947	0.000259	20.807227
1609.422732	-3.025200	3.458000	-10.461000	25.975995	0.000259	20.816310
1610.424579	-3.006700	3.458700	-10.398000	25.902741	0.000258	20.821901
1611.422405	-3.021700	3.458100	-10.448000	25.920900	0.000257	20.830186
1612.424618	-2.993400	3.458100	-10.350000	25.959998	0.000258	20.801662
1613.425201	-2.989000	3.457200	-10.333000	25.949218	0.000259	20.815961
1614.427093	-2.993000	3.458500	-10.351000	26.004337	0.000259	20.824396
1615.430459	-3.002900	3.457800	-10.382000	26.048400	0.000258	20.821252
1616.427647	-3.017300	3.456700	-10.429000	26.052721	0.000257	20.829386
1617.427134	-2.992700	3.456900	-10.343000	26.023437	0.000258	20.809447
1618.427558	-3.013600	3.456100	-10.414000	25.977460	0.000256	20.802609
1619.430410	-2.983600	3.455500	-10.309000	25.976865	0.000257	20.819555
1620.426041	-2.999500	3.454900	-10.362000	25.990626	0.000254	20.814888
1621.428746	-3.015900	3.455000	-10.418000	26.059031	0.000256	20.832406
1622.428023	-2.989200	3.454500	-10.325000	26.055925	0.000255	20.828812
1623.434752	-2.976700	3.454900	-10.283000	26.030492	0.000253	20.854466
1624.429614	-2.989900	3.455700	-10.331000	26.030393	0.000256	20.813116
1625.430969	-2.999700	3.452800	-10.356000	26.062409	0.000257	20.839119
1626.432937	-3.020600	3.452500	-10.428000	26.067774	0.000253	20.853992
1627.431086	-3.006200	3.452500	-10.378000	26.050412	0.000254	20.827067
1628.430912	-2.999100	3.452000	-10.352000	26.050288	0.000254	20.848278
1629.430324	-3.007300	3.452400	-10.381000	26.046786	0.000254	20.837174
1630.431873	-2.999600	3.451900	-10.353000	26.032951	0.000252	20.843187
1631.433385	-2.985900	3.451600	-10.305000	26.059502	0.000253	20.821975
1632.435314	-2.992400	3.452300	-10.330000	26.086725	0.000251	20.839843
1633.432836	-2.997400	3.451300	-10.343000	26.118218	0.000250	20.849202
1634.433146	-3.010600	3.451400	-10.389000	26.131779	0.000251	20.854292
1635.436073	-3.004100	3.450300	-10.364000	26.069166	0.000250	20.843063
1636.432960	-2.981400	3.450100	-10.285000	26.026867	0.000249	20.842764
1637.437528	-3.013900	3.448000	-10.391000	26.005356	0.000251	20.842963
1638.433801	-3.015100	3.449700	-10.400000	25.950734	0.000251	20.853045
1639.433994	-2.977200	3.449500	-10.269000	25.973314	0.000251	20.843487
1640.436627	-2.979600	3.450400	-10.279000	25.995844	0.000248	20.842415
1641.433874	-3.001200	3.448700	-10.349000	25.998973	0.000251	20.855042
1642.437617	-2.989600	3.448600	-10.310000	25.946586	0.000247	20.833231
1643.438857	-2.996400	3.447300	-10.329000	25.931161	0.000249	20.851873
1644.442582	-3.012100	3.448500	-10.386000	25.964621	0.000248	20.861306
1645.435249	-3.008000	3.445900	-10.364000	25.952648	0.000247	20.845011
1646.438446	-2.998400	3.447100	-10.335000	25.982034	0.000247	20.851774
1647.436058	-3.030800	3.444900	-10.440000	26.015666	0.000246	20.851424
1648.438603	-3.011300	3.445900	-10.375000	26.021925	0.000247	20.850600
1649.435717	-2.993200	3.445900	-10.313000	26.017454	0.000246	20.857014
1650.434641	-3.004200	3.444400	-10.347000	25.961020	0.000245	20.861007
1651.436381	-2.995000	3.445500	-10.318000	25.980544	0.000248	20.873509
1652.436344	-3.008100	3.444700	-10.361000	25.988219	0.000245	20.858935
1653.437938	-2.991300	3.444700	-10.303000	26.058015	0.000245	20.848455
1654.437922	-2.984000	3.445200	-10.279000	26.100014	0.000245	20.858411
1655.437754	-2.999700	3.443100	-10.328000	26.074979	0.000244	20.845111
1656.437113	-3.021700	3.442500	-10.402000	26.016857	0.000245	20.864474
1657.441974	-2.997000	3.443000	-10.318000	25.980170	0.000244	20.868866
1658.439852	-2.988900	3.443100	-10.290000	25.999992	0.000244	20.854642
1659.440117	-2.992200	3.443300	-10.301000	26.044304	0.000244	20.865024
1660.441007	-2.991800	3.442900	-10.299000	26.027364	0.000243	20.882142
1661.440047	-2.991600	3.441400	-10.295000	26.030492	0.000241	20.843087
1662.443190	-2.979500	3.442200	-10.255000	25.993558	0.000241	20.865247
1663.439286	-2.995600	3.441600	-10.309000	26.050661	0.000241	20.849127
1664.445889	-3.013300	3.441000	-10.369000	26.057616	0.000241	20.869864
1665.441687	-3.007000	3.439500	-10.342000	26.039484	0.000242	20.895266
1666.441814	-2.987000	3.440900	-10.278000	26.053989	0.000241	20.863849
1667.441629	-2.982500	3.440600	-10.261000	26.097678	0.000241	20.879770
1668.441256	-3.011300	3.440200	-10.359000	26.135826	0.000238	20.874953
1669.443684	-2.989300	3.438100	-10.275000	26.147300	0.000239	20.874155
1670.444947	-2.987600	3.440700	-10.278000	26.119185	0.000239	20.857285
1671.442513	-2.993200	3.439100	-10.294000	26.169925	0.000241	20.878397
1672.441041	-3.011200	3.437100	-10.349000	26.178666	0.000239	20.860155
1673.442341	-3.013800	3.436800	-10.357000	26.144146	0.000239	20.867667
1674.441745	-2.998900	3.438100	-10.310000	26.120055	0.000238	20.886607
1675.446253	-3.008200	3.437300	-10.339000	26.108133	0.000240	20.841913
1676.443089	-3.007600	3.436900	-10.336000	26.119607	0.000239	20.847753
1677.443375	-2.984900	3.437100	-10.258000	26.183062	0.000238	20.868365
1678.444574	-3.008200	3.435600	-10.333000	26.190611	0.000238	20.856037
1679.454439	-2.986300	3.436200	-10.260000	26.185844	0.000238	20.855988
1680.447999	-3.005200	3.434800	-10.321000	26.171017	0.000237	20.847728
1681.446349	-2.998200	3.436500	-10.302000	26.142778	0.000236	20.860603
1682.446705	-3.006700	3.435200	-10.327000	26.132992	0.000235	20.852193
1683.447234	-3.004400	3.435300	-10.321000	26.080215	0.000234	20.855587
1684.450758	-2.990500	3.434600	-10.270000	26.077806	0.000234	20.848426
1685.446569	-2.997900	3.433900	-10.293000	26.067573	0.000236	20.852842
1686.448745	-2.984500	3.435300	-10.252000	26.066232	0.000237	20.859555
1687.447647	-2.994800	3.434100	-10.284000	26.090274	0.000236	20.857633
1688.446409	-3.025800	3.432300	-10.384000	26.107437	0.000233	20.863972
1689.450269	-3.003900	3.432800	-10.311000	26.066506	0.000233	20.845606
1690.449063	-2.983600	3.434700	-10.246000	26.057365	0.000233	20.845905
1691.449159	-3.026200	3.432700	-10.387000	26.057265	0.000233	20.859081
1692.447760	-3.013200	3.432700	-10.342000	26.115931	0.000234	20.844533
1693.447909	-3.013300	3.431900	-10.340000	26.072243	0.000232	20.831457
1694.450797	-3.014000	3.430200	-10.337000	26.036501	0.000233	20.843909
1695.460024	-2.997500	3.430300	-10.281000	26.056993	0.000231	20.836997
1696.453526	-3.012400	3.431100	-10.335000	26.056421	0.000232	20.830259
1697.449725	-3.008900	3.429500	-10.318000	26.054458	0.000230	20.845829
1698.455326	-2.984800	3.430800	-10.239000	26.072342	0.000232	20.836772
1699.451480	-2.993500	3.430000	-10.267000	26.080860	0.000232	20.834425
1700.451785	-2.999700	3.430300	-10.288000	26.122064	0.000232	20.846903
1701.462705	-2.996600	3.429600	-10.276000	26.069436	0.000229	20.847128
1702.453810	-3.003100	3.428300	-10.294000	26.075471	0.000233	20.845605
1703.453686	-3.005000	3.428900	-10.303000	26.101376	0.000228	20.848400
1704.456308	-2.991900	3.430500	-10.263000	26.078849	0.000231	20.838568
1705.455044	-3.001500	3.427900	-10.288000	26.035730	0.000230	20.830333
1706.455933	-3.013800	3.427600	-10.329000	26.041269	0.000228	20.831156
1707.460103	-2.986200	3.428200	-10.237000	26.050757	0.000229	20.827887
1708.453115	-3.005300	3.428400	-10.302000	26.102693	0.000228	20.823172
1709.453479	-3.004500	3.426700	-10.293000	26.083269	0.000229	20.817880
1710.456577	-2.985200	3.426900	-10.229000	26.041195	0.000227	20.825866
1711.467685	-2.982000	3.426900	-10.218000	26.020580	0.000226	20.844982
1712.460627	-3.012600	3.425300	-10.318000	26.062506	0.000227	20.824045
1713.461356	-3.014300	3.424000	-10.320000	26.072739	0.000225	20.811093
1714.456400	-3.038600	3.425800	-10.409000	26.108628	0.000227	20.841463
1715.460618	-2.976400	3.426500	-10.198000	26.113570	0.000228	20.811342
1716.458450	-2.999700	3.423700	-10.269000	26.136594	0.000225	20.816933
1717.456647	-2.989500	3.423800	-10.234000	26.140394	0.000225	20.826915
1718.459756	-3.005100	3.424300	-10.289000	26.064593	0.000223	20.838469
1719.462391	-2.990400	3.423100	-10.236000	26.040822	0.000225	20.828810
1720.463473	-2.975000	3.423600	-10.184000	26.050087	0.000225	20.825317
1721.459281	-3.005700	3.421100	-10.282000	26.052571	0.000225	20.823546
1722.459659	-2.980000	3.423200	-10.200000	26.058259	0.000226	20.824045
1723.466745	-3.018400	3.423100	-10.331000	26.049665	0.000223	20.816359
1724.461674	-2.990400	3.422500	-10.234000	26.039730	0.000223	20.820127
1725.459919	-3.018200	3.419700	-10.321000	26.047430	0.000221	20.831656
1726.460927	-3.014400	3.420200	-10.309000	26.046883	0.000222	20.832529
1727.461478	-2.984100	3.421600	-10.210000	26.016853	0.000223	20.841238
1728.464396	-3.015500	3.419300	-10.309000	26.007962	0.000222	20.817607
1729.463349	-3.028900	3.419600	-10.357000	25.992113	0.000221	20.808796
1730.462518	-2.983700	3.420200	-10.204000	26.027336	0.000221	20.808623
1731.461917	-3.003500	3.419700	-10.270000	26.025547	0.000223	20.816783
1732.465477	-3.002400	3.419200	-10.265000	26.061438	0.000220	20.826765
1733.461967	-2.980900	3.419800	-10.193000	26.061041	0.000221	20.819728
1734.471164	-3.017900	3.417100	-10.311000	26.002920	0.000218	20.814438
1735.470277	-2.989900	3.418100	-10.218000	25.986725	0.000219	20.821400
1736.466405	-2.995000	3.417600	-10.234000	25.996114	0.000220	20.806651
1737.470228	-2.974700	3.418200	-10.167000	26.034962	0.000223	20.819129
1738.466756	-2.979300	3.418700	-10.185000	26.004757	0.000219	20.801585
1739.471049	-3.003500	3.416200	-10.260000	26.067225	0.000219	20.813140
1740.465155	-2.999000	3.416800	-10.246000	26.135626	0.000219	20.821649
1741.466321	-2.991200	3.416000	-10.216000	26.145858	0.000218	20.810121
1742.469385	-3.015100	3.415400	-10.297000	26.095987	0.000220	20.822597
1743.467256	-3.000700	3.415200	-10.247000	26.061017	0.000219	20.822548
1744.470371	-3.003100	3.415400	-10.256000	26.023337	0.000218	20.797493
1745.470086	-2.980700	3.415500	-10.179000	26.068070	0.000219	20.815410
1746.468099	-3.004400	3.415400	-10.261000	26.053068	0.000218	20.800338
1747.468411	-3.006200	3.413300	-10.260000	26.056471	0.000217	20.805179
1748.473258	-3.000800	3.413500	-10.242000	26.052497	0.000216	20.810196
1749.469570	-2.998200	3.415200	-10.237000	26.082350	0.000218	20.801784
1750.471115	-2.976900	3.415500	-10.167000	26.103511	0.000215	20.791752
1751.469943	-2.993000	3.413200	-10.215000	26.102369	0.000216	20.812415
1752.470958	-3.031400	3.412400	-10.343000	26.064866	0.000216	20.797018
1753.470512	-2.993800	3.412100	-10.214000	26.071894	0.000215	20.795071
1754.471706	-3.035200	3.410800	-10.352000	26.054458	0.000216	20.785139
1755.476459	-2.999300	3.411100	-10.230000	26.055998	0.000214	20.806126
1756.473001	-3.003000	3.411500	-10.244000	26.051502	0.000214	20.806825
1757.472109	-3.000200	3.412000	-10.235000	26.062306	0.000215	20.784489
1758.473555	-3.017200	3.411000	-10.290000	26.105200	0.000212	20.806251
1759.475015	-3.007600	3.411000	-10.258000	26.171412	0.000213	20.800237
1760.471420	-3.000100	3.411200	-10.233000	26.191305	0.000214	20.778500
1761.475458	-3.019000	3.410300	-10.295000	26.136568	0.000213	20.811216
1762.472700	-2.999400	3.410500	-10.229000	26.144789	0.000213	20.800985
1763.474190	-2.995000	3.410900	-10.215000	26.168357	0.000212	20.799537
1764.473803	-3.012300	3.408200	-10.266000	26.117244	0.000211	20.789903
1765.473478	-3.031500	3.409000	-10.333000	26.094593	0.000211	20.800335
1766.475701	-2.994400	3.409600	-10.208000	26.046583	0.000209	20.800460
1767.472377	-2.998800	3.409400	-10.223000	26.023533	0.000212	20.792474
1768.472523	-3.016100	3.408200	-10.279000	26.038610	0.000209	20.790078
1769.474619	-3.006600	3.406800	-10.242000	26.086421	0.000209	20.783114
1770.473770	-3.031800	3.406100	-10.326000	26.146600	0.000210	20.771984
1771.477367	-2.978100	3.407000	-10.146000	26.177246	0.000209	20.773382
1772.474273	-2.990700	3.406600	-10.187000	26.250208	0.000211	20.797389
1773.474824	-2.985700	3.407100	-10.171000	26.219737	0.000210	20.780044
1774.475228	-3.021200	3.405300	-10.287000	26.197138	0.000209	20.796216
1775.479682	-3.010500	3.405800	-10.252000	26.166913	0.000208	20.809466
1776.475258	-3.024800	3.405300	-10.299000	26.204513	0.000210	20.799833
1777.478174	-3.009100	3.404700	-10.243000	26.110288	0.000206	20.784336
1778.476194	-3.024600	3.404900	-10.298000	26.106065	0.000206	20.784361
1779.477587	-2.988000	3.405000	-10.174000	26.113491	0.000207	20.799883
1780.476662	-2.995300	3.404400	-10.195000	26.145057	0.000204	20.783237
1781.476521	-3.022300	3.403100	-10.285000	26.122382	0.000206	20.780367
1782.482510	-2.993300	3.403500	-10.187000	26.098042	0.000207	20.782937
1783.478854	-2.991100	3.402700	-10.177000	26.032967	0.000206	20.794841
1784.479096	-3.000000	3.403000	-10.208000	26.054900	0.000204	20.779893
1785.479545	-2.995000	3.403600	-10.193000	26.051174	0.000205	20.785158
1786.481637	-2.984300	3.402200	-10.152000	26.048689	0.000205	20.778868
1787.482097	-3.001200	3.401800	-10.208000	26.099035	0.000204	20.767339
1788.483543	-3.010500	3.401900	-10.241000	26.135717	0.000203	20.770058
1789.481688	-3.005900	3.401200	-10.222000	26.162093	0.000204	20.786605
1790.482838	-2.986200	3.401400	-10.156000	26.187896	0.000203	20.773178
1791.484025	-2.979100	3.401800	-10.133000	26.212284	0.000203	20.781564
1792.482978	-3.007200	3.399500	-10.222000	26.232101	0.000203	20.789150
1793.484924	-2.993400	3.398900	-10.173000	26.217921	0.000202	20.767313
1794.483152	-2.996700	3.399000	-10.185000	26.226613	0.000200	20.771307
1795.482501	-2.980400	3.400800	-10.135000	26.190354	0.000202	20.762372
1796.484478	-2.994200	3.398800	-10.176000	26.150495	0.000204	20.781114
1797.486286	-3.004100	3.398700	-10.209000	26.130254	0.000205	20.768362
1798.487763	-3.023300	3.397700	-10.272000	26.136711	0.000203	20.762522
1799.485339	-3.012500	3.397600	-10.235000	26.151364	0.000202	20.764443
1800.485445	-2.986800	3.398900	-10.151000	26.127297	0.000201	20.771555
1801.484121	-2.972400	3.398200	-10.100000	26.152158	0.000200	20.771880
1802.486569	-3.007900	3.396100	-10.214000	26.202995	0.000201	20.761323
1803.487535	-2.981000	3.398600	-10.130000	26.214095	0.000202	20.763943
1804.488177	-3.008800	3.395600	-10.216000	26.192838	0.000201	20.786205
1805.489615	-2.987100	3.396800	-10.146000	26.202746	0.000197	20.779566
1806.488590	-3.010800	3.396200	-10.225000	26.210545	0.000200	20.743305
1807.493046	-2.996700	3.395600	-10.175000	26.191224	0.000200	20.775099
1808.490087	-3.029700	3.393600	-10.280000	26.219956	0.000198	20.758452
1809.491777	-2.989500	3.395500	-10.150000	26.194029	0.000199	20.750417
1810.489667	-3.005700	3.394000	-10.201000	26.170957	0.000199	20.771330
1811.491199	-3.032000	3.391600	-10.282000	26.176272	0.000199	20.774300
1812.490983	-2.999500	3.393600	-10.179000	26.185336	0.000197	20.761597
1813.491613	-3.003200	3.392800	-10.188000	26.182778	0.000198	20.765664
1814.493418	-3.007200	3.393600	-10.205000	26.227679	0.000198	20.780913
1815.496013	-2.998900	3.392600	-10.173000	26.260881	0.000196	20.770182
1816.492318	-3.025100	3.391900	-10.260000	26.195543	0.000197	20.768534
1817.492789	-2.986100	3.392000	-10.127000	26.203663	0.000194	20.752986
1818.495792	-3.025700	3.391700	-10.262000	26.160998	0.000195	20.746622
1819.492999	-3.009500	3.391900	-10.206000	26.199591	0.000193	20.755057
1820.494826	-2.995600	3.390600	-10.156000	26.201403	0.000193	20.758301
1821.492943	-2.995400	3.392200	-10.160000	26.206817	0.000194	20.766112
1822.495386	-2.984200	3.391000	-10.118000	26.150119	0.000192	20.754657
1823.494125	-3.004100	3.390200	-10.183000	26.176717	0.000192	20.744874
1824.494931	-3.007700	3.390700	-10.196000	26.226610	0.000193	20.761346
1825.500225	-3.019500	3.390000	-10.235000	26.244066	0.000194	20.774621
1826.496626	-2.995200	3.390000	-10.153000	26.236046	0.000192	20.754232
1827.496698	-2.997400	3.388300	-10.155000	26.210442	0.000193	20.749840
1828.496410	-3.007800	3.388000	-10.190000	26.196459	0.000191	20.743849
1829.496712	-3.007500	3.388300	-10.189000	26.148726	0.000191	20.756103
1830.497305	-3.009100	3.387700	-10.193000	26.129552	0.000193	20.761967
1831.498832	-2.992100	3.387900	-10.136000	26.148030	0.000189	20.751610
1832.495356	-3.006100	3.387800	-10.183000	26.169438	0.000192	20.748940
1833.501117	-2.994400	3.387300	-10.142000	26.185679	0.000191	20.758147
1834.503002	-2.985900	3.387500	-10.113000	26.143411	0.000189	20.761193
1835.498861	-2.972300	3.388200	-10.069000	26.127465	0.000189	20.765560
1836.504146	-3.003500	3.387400	-10.173000	26.164246	0.000189	20.730445
1837.499502	-2.997400	3.385600	-10.147000	26.194073	0.000187	20.734813
1838.499894	-2.995300	3.386000	-10.141000	26.236365	0.000188	20.747441
1839.501625	-3.001300	3.386300	-10.162000	26.221266	0.000188	20.756924
1840.498457	-3.003100	3.384900	-10.164000	26.227523	0.000187	20.741401
1841.499115	-3.004400	3.385100	-10.169000	26.233880	0.000187	20.731667
1842.501887	-3.005800	3.384700	-10.173000	26.221190	0.000187	20.732665
1843.498989	-3.006700	3.383900	-10.173000	26.266437	0.000187	20.727874
1844.500429	-2.971200	3.384300	-10.054000	26.316027	0.000187	20.733140
1845.504137	-3.005700	3.382500	-10.166000	26.359332	0.000186	20.733514
1846.498942	-3.018100	3.382500	-10.208000	26.365788	0.000188	20.734312
1847.502158	-2.986300	3.385200	-10.108000	26.342447	0.000185	20.736458
1848.500387	-2.993300	3.383100	-10.125000	26.353795	0.000185	20.755450
1849.500065	-2.990600	3.383300	-10.117000	26.378005	0.000186	20.732840
1850.500484	-2.996000	3.381900	-10.132000	26.291864	0.000184	20.739677
1851.502396	-2.990400	3.381700	-10.111000	26.241405	0.000183	20.730694
1852.501921	-3.015300	3.380400	-10.192000	26.239865	0.000185	20.735785
1853.504555	-2.974000	3.381300	-10.056000	26.240237	0.000183	20.728572
1854.501105	-2.998900	3.381900	-10.141000	26.260006	0.000183	20.731369
1855.501186	-3.006300	3.380500	-10.162000	26.185230	0.000184	20.725927
1856.505853	-3.025600	3.378900	-10.222000	26.194370	0.000178	20.710928
1857.503729	-2.996700	3.380100	-10.129000	26.178426	0.000181	20.738056
1858.506916	-3.002700	3.379400	-10.147000	26.198442	0.000183	20.738255
1859.503017	-2.989100	3.378900	-10.099000	26.213517	0.000181	20.720687
1860.506546	-2.995800	3.378700	-10.121000	26.233633	0.000181	20.743747
1861.504753	-3.007500	3.379500	-10.163000	26.254766	0.000180	20.704289
1862.505951	-3.009400	3.377600	-10.163000	26.246621	0.000181	20.702742
1863.509596	-3.005100	3.376800	-10.147000	26.224196	0.000181	20.725253
1864.505736	-2.997700	3.377200	-10.123000	26.256281	0.000180	20.717193
1865.506794	-3.010800	3.375900	-10.163000	26.312527	0.000181	20.724880
1866.506947	-2.993200	3.377200	-10.107000	26.301129	0.000179	20.723857
1867.506719	-2.993400	3.377000	-10.107000	26.297007	0.000179	20.719714
1868.514667	-2.998900	3.378100	-10.130000	26.245379	0.000179	20.731369
1869.510285	-3.011000	3.375100	-10.162000	26.220795	0.000178	20.693859
1870.507390	-3.001600	3.375000	-10.130000	26.245033	0.000178	20.737659
1871.509322	-3.009100	3.374900	-10.155000	26.292389	0.000180	20.741627
1872.513254	-3.029600	3.375200	-10.224000	26.245977	0.000182	20.722485
1873.509597	-3.024100	3.373700	-10.201000	26.265695	0.000178	20.729024
1874.513938	-3.009300	3.374600	-10.154000	26.265720	0.000177	20.733791
1875.509705	-3.015000	3.374400	-10.173000	26.304111	0.000179	20.731595
1876.510883	-3.007100	3.375600	-10.150000	26.312305	0.000177	20.723234
1877.511020	-2.993200	3.374100	-10.098000	26.306892	0.000176	20.724433
1878.513461	-3.033000	3.372500	-10.228000	26.324051	0.000177	20.711805
1879.513146	-3.032600	3.372300	-10.226000	26.302796	0.000175	20.713203
1880.513108	-3.002000	3.372900	-10.125000	26.262542	0.000177	20.719692
1881.512327	-3.004900	3.372400	-10.133000	26.223131	0.000177	20.711855
1882.513655	-3.006800	3.372700	-10.139000	26.193506	0.000174	20.720492
1883.515123	-3.004700	3.372400	-10.132000	26.144382	0.000175	20.703371
1884.514168	-3.004100	3.372300	-10.130000	26.204333	0.000175	20.716199
1885.517677	-3.003900	3.371700	-10.128000	26.171105	0.000173	20.731174
1886.514239	-2.996300	3.371500	-10.102000	26.155310	0.000176	20.715301
1887.513332	-3.009300	3.371100	-10.144000	26.148828	0.000174	20.710684
1888.516042	-2.983900	3.370800	-10.056000	26.155807	0.000172	20.707265
1889.516361	-2.998900	3.371400	-10.110000	26.213945	0.000173	20.721591
1890.520406	-3.008100	3.370100	-10.137000	26.193929	0.000174	20.719969
1891.517129	-2.998400	3.370300	-10.104000	26.236223	0.000171	20.726434
1892.515636	-3.011700	3.369800	-10.148000	26.251148	0.000170	20.707292
1893.516528	-3.008500	3.367800	-10.131000	26.354475	0.000173	20.726260
1894.516051	-2.996000	3.368900	-10.093000	26.345213	0.000169	20.701778
1895.516541	-3.016200	3.368100	-10.158000	26.372700	0.000170	20.704273
1896.520441	-2.993300	3.368500	-10.082000	26.327484	0.000172	20.724264
1897.520398	-3.009000	3.367300	-10.132000	26.333741	0.000168	20.694515
1898.516273	-2.997600	3.368000	-10.095000	26.362272	0.000171	20.726036
1899.518883	-3.008500	3.367000	-10.129000	26.393907	0.000170	20.713259
1900.517675	-3.003700	3.367000	-10.113000	26.378239	0.000169	20.715056
1901.520608	-3.004200	3.366700	-10.114000	26.363538	0.000167	20.709290
1902.517622	-3.011500	3.365800	-10.135000	26.373372	0.000168	20.713009
1903.517730	-3.011700	3.364600	-10.132000	26.382286	0.000168	20.714856
1904.517734	-2.980500	3.364800	-10.029000	26.374391	0.000166	20.720672
1905.517211	-3.036500	3.364700	-10.216000	26.393931	0.000167	20.707594
1906.518137	-3.007800	3.364200	-10.118000	26.369202	0.000166	20.721147
1907.519124	-3.001100	3.364300	-10.096000	26.310898	0.000166	20.731304
1908.517442	-2.995700	3.364300	-10.078000	26.311171	0.000163	20.716878
1909.519620	-3.021900	3.363800	-10.165000	26.281844	0.000165	20.733400
1910.522270	-3.021000	3.363700	-10.162000	26.309681	0.000166	20.718700
1911.519429	-2.999700	3.362200	-10.085000	26.308390	0.000163	20.723568
1912.519202	-2.993000	3.362200	-10.063000	26.308886	0.000165	20.711737
1913.520762	-3.003100	3.361800	-10.095000	26.342980	0.000165	20.709491
1914.517436	-2.979300	3.361900	-10.015000	26.343477	0.000163	20.724690
1915.520165	-3.011900	3.362100	-10.125000	26.300816	0.000162	20.747251
1916.520365	-3.000900	3.361700	-10.087000	26.342706	0.000163	20.715855
1917.520975	-3.007700	3.362000	-10.111000	26.377942	0.000164	20.735622
1918.520855	-3.016900	3.360800	-10.138000	26.416155	0.000164	20.700532
1919.521203	-3.003700	3.360100	-10.092000	26.455955	0.000164	20.729157
1920.520881	-3.020800	3.359700	-10.148000	26.466260	0.000163	20.746628
1921.520763	-3.007600	3.359400	-10.103000	26.486817	0.000164	20.728883
1922.520638	-3.002600	3.359700	-10.087000	26.490590	0.000162	20.713708
1923.524453	-3.006400	3.359600	-10.100000	26.463752	0.000166	20.717078
1924.523365	-2.992500	3.358600	-10.050000	26.448059	0.000161	20.714107
1925.523146	-3.012200	3.357600	-10.113000	26.466507	0.000160	20.716054
1926.525164	-2.962600	3.359900	-9.952500	26.511048	0.000161	20.730480
1927.524438	-2.987200	3.359000	-10.033000	26.482123	0.000159	20.723217
1928.529173	-3.010000	3.357600	-10.105000	26.432690	0.000159	20.727110
1929.523740	-2.999100	3.357300	-10.068000	26.374961	0.000161	20.707020
1930.527237	-2.988300	3.357200	-10.031000	26.332873	0.000160	20.705971
1931.524606	-3.009300	3.356300	-10.098000	26.334313	0.000160	20.732076
1932.525617	-3.009100	3.355700	-10.097000	26.325821	0.000162	20.740137
1933.527175	-2.993600	3.356500	-10.047000	26.353781	0.000160	20.722244
1934.526493	-3.008400	3.355600	-10.094000	26.363117	0.000160	20.737792
1935.524075	-2.987700	3.355400	-10.024000	26.371161	0.000157	20.736867
1936.523572	-3.020500	3.353900	-10.130000	26.366146	0.000157	20.737516
1937.527074	-3.011500	3.354100	-10.100000	26.379107	0.000156	20.743906
1938.528405	-2.976400	3.355500	-9.985700	26.323462	0.000157	20.715006
1939.525241	-2.988100	3.353800	-10.021000	26.385240	0.000157	20.739637
1940.523806	-3.013000	3.354100	-10.105000	26.376872	0.000155	20.730279
1941.523784	-3.003000	3.353900	-10.071000	26.389014	0.000157	20.723989
1942.525483	-2.984900	3.353400	-10.008000	26.428791	0.000156	20.716552
1943.526702	-3.001300	3.352600	-10.061000	26.438549	0.000154	20.727784
1944.529615	-2.989300	3.352100	-10.020000	26.457295	0.000156	20.732401
1945.528143	-3.004500	3.352800	-10.073000	26.448704	0.000154	20.728507
1946.530236	-3.005500	3.351000	-10.071000	26.472564	0.000154	20.709814
1947.530035	-3.021000	3.351900	-10.125000	26.484630	0.000154	20.720520
1948.529547	-3.013200	3.351400	-10.098000	26.459802	0.000154	20.737766
1949.529531	-2.983200	3.351700	-9.998000	26.463476	0.000155	20.735769
1950.534139	-3.006900	3.351600	-10.077000	26.454439	0.000153	20.713881
1951.530327	-3.001600	3.351100	-10.058000	26.419281	0.000152	20.717426
1952.533942	-2.977300	3.350500	-9.974900	26.441678	0.000152	20.724764
1953.533954	-3.017600	3.348800	-10.103000	26.419877	0.000153	20.733198
1954.532061	-3.009000	3.349100	-10.077000	26.453520	0.000152	20.716277
1955.535001	-3.002600	3.349000	-10.055000	26.447784	0.000150	20.729954
1956.533591	-2.995000	3.348500	-10.028000	26.381589	0.000150	20.728855
1957.534335	-2.970800	3.348400	-9.946700	26.342556	0.000149	20.724714
1958.536230	-2.994200	3.347800	-10.023000	26.364556	0.000148	20.732600
1959.533509	-2.990000	3.347800	-10.009000	26.412875	0.000150	20.740860
1960.534145	-2.999500	3.346700	-10.037000	26.449846	0.000150	20.736767
1961.534518	-2.975100	3.347500	-9.958300	26.453197	0.000149	20.753887
1962.537863	-2.997900	3.347900	-10.036000	26.425066	0.000147	20.751217
1963.534431	-3.020800	3.346100	-10.107000	26.405972	0.000149	20.743879
1964.536623	-2.989500	3.346700	-10.004000	26.439367	0.000148	20.728131
1965.535031	-3.004300	3.346100	-10.052000	26.463054	0.000150	20.731077
1966.536769	-3.022900	3.345700	-10.113000	26.477554	0.000147	20.735220
1967.535258	-3.008300	3.346500	-10.066000	26.465412	0.000148	20.739611
1968.535745	-3.001500	3.344500	-10.038000	26.527456	0.000147	20.731800
1969.537298	-3.008500	3.345600	-10.064000	26.506527	0.000148	20.743006
1970.534023	-2.995600	3.345200	-10.020000	26.516929	0.000148	20.732598
1971.536213	-3.001000	3.343400	-10.033000	26.525793	0.000146	20.762372
1972.535667	-2.992900	3.343700	-10.006000	26.515539	0.000145	20.731201
1973.534987	-3.019600	3.342400	-10.092000	26.509754	0.000147	20.758578
1974.534329	-3.013000	3.342700	-10.071000	26.544586	0.000147	20.757555
1975.538056	-3.006900	3.342100	-10.048000	26.560326	0.000144	20.731176
1976.550961	-2.992600	3.341900	-10.000000	26.580211	0.000145	20.757804
1977.537160	-3.017800	3.341300	-10.083000	26.644037	0.000145	20.754636
1978.536416	-2.997900	3.341900	-10.018000	26.607395	0.000146	20.758578
1979.535678	-3.019200	3.341000	-10.086000	26.576065	0.000143	20.740360
1980.537166	-3.030000	3.341300	-10.123000	26.552605	0.000144	20.754236
1981.536533	-3.013500	3.341100	-10.068000	26.531752	0.000145	20.744179
1982.539224	-3.015300	3.340200	-10.071000	26.567278	0.000142	20.742432
1983.537849	-2.988200	3.340800	-9.982700	26.553672	0.000141	20.759102
1984.542810	-3.013900	3.338800	-10.061000	26.509356	0.000142	20.751540
1985.540641	-3.029800	3.340900	-10.121000	26.467050	0.000141	20.751690
1986.537662	-3.015600	3.338300	-10.066000	26.513950	0.000142	20.739561
1987.540139	-3.020100	3.339300	-10.084000	26.543766	0.000139	20.741557
1988.536838	-3.013100	3.336900	-10.053000	26.508836	0.000139	20.762871
1989.539758	-2.994000	3.339200	-9.996600	26.517053	0.000140	20.724188
1990.539482	-2.990600	3.339000	-9.984800	26.530634	0.000141	20.744004
1991.541595	-2.985900	3.337700	-9.965300	26.499501	0.000140	20.744952
1992.540981	-2.982100	3.338600	-9.954400	26.558911	0.000139	20.743979
1993.543567	-3.008900	3.336700	-10.039000	26.546597	0.000139	20.732074
1994.543326	-3.021200	3.336200	-10.078000	26.627627	0.000139	20.759002
1995.541927	-3.007300	3.336100	-10.032000	26.691498	0.000139	20.753037
1996.543879	-3.011900	3.336600	-10.048000	26.703264	0.000136	20.759651
1997.545594	-3.014500	3.335900	-10.055000	26.720268	0.000138	20.754934
1998.546722	-3.018200	3.334400	-10.063000	26.704357	0.000139	20.733721
1999.544850	-2.989200	3.335200	-9.968500	26.642918	0.000135	20.754459
2000.544791	-3.006000	3.334700	-10.023000	26.668438	0.000137	20.773951
2001.544665	-2.989400	3.335200	-9.969400	26.562609	0.000137	20.755757
2002.545227	-3.007900	3.333000	-10.024000	26.596471	0.000135	20.765141
2003.552363	-3.005100	3.333200	-10.016000	26.669033	0.000136	20.762221
2004.547297	-3.006300	3.333500	-10.020000	26.694899	0.000137	20.755034
2005.546033	-2.992400	3.334900	-9.978500	26.703388	0.000136	20.761198
2006.543698	-2.982400	3.332900	-9.938800	26.650887	0.000134	20.772428
2007.547377	-2.992800	3.331400	-9.969600	26.619857	0.000135	20.782012
2008.546640	-2.992300	3.331800	-9.968300	26.576214	0.000133	20.767063
2009.548241	-3.019500	3.332100	-10.060000	26.595951	0.000132	20.770308
2010.545339	-3.021000	3.330800	-10.061000	26.647809	0.000132	20.754635
2011.545125	-2.993400	3.332000	-9.973500	26.690431	0.000133	20.758603
2012.544782	-3.019100	3.329800	-10.052000	26.729055	0.000132	20.773252
2013.545226	-3.010600	3.330100	-10.025000	26.755788	0.000132	20.782586
2014.550305	-2.994200	3.329700	-9.969500	26.785077	0.000132	20.762721
2015.547002	-2.993100	3.330000	-9.966000	26.745015	0.000133	20.779341
2016.547519	-2.998900	3.329400	-9.983700	26.708179	0.000130	20.770282
2017.548792	-2.983000	3.328800	-9.928600	26.672955	0.000134	20.765690
2018.549619	-2.988900	3.328900	-9.948400	26.635546	0.000131	20.756058
2019.549769	-2.989400	3.329100	-9.950700	26.660792	0.000133	20.760100
2020.553332	-2.981300	3.330000	-9.927300	26.633809	0.000132	20.749095
2021.548442	-2.977400	3.329700	-9.913200	26.615538	0.000131	20.778144
2022.549184	-3.000300	3.328200	-9.985000	26.661438	0.000129	20.774026
2023.552481	-2.998500	3.327000	-9.975400	26.692219	0.000130	20.777944
2024.550864	-2.997500	3.327500	-9.973200	26.718209	0.000128	20.797910
2025.551618	-2.990900	3.327300	-9.950700	26.661861	0.000127	20.751692
2026.550482	-2.993900	3.326200	-9.958000	26.696365	0.000127	20.782587
2027.550426	-2.994200	3.326300	-9.958300	26.708752	0.000129	20.765642
2028.560898	-2.984300	3.326900	-9.927800	26.742635	0.000129	20.795914
2029.550708	-2.974800	3.325700	-9.891400	26.741518	0.000129	20.797162
2030.553666	-2.987000	3.324700	-9.930100	26.747128	0.000128	20.787155
2031.553154	-2.989400	3.325300	-9.939700	26.731318	0.000129	20.786907
2032.550791	-2.989800	3.324500	-9.939000	26.727519	0.000127	20.769337
2033.551081	-2.993700	3.324100	-9.950300	26.755518	0.000128	20.789427
2034.555940	-2.990100	3.323600	-9.937200	26.736928	0.000125	20.769788
2035.553280	-2.984700	3.323900	-9.919500	26.743109	0.000123	20.783114
2036.572510	-2.968500	3.324700	-9.868300	26.753236	0.000124	20.777174
2037.552980	-2.983300	3.323100	-9.913400	26.733106	0.000125	20.784912
2038.554537	-3.020200	3.320900	-10.029000	26.713968	0.000125	20.790801
2039.552626	-3.013500	3.321700	-10.009000	26.726505	0.000123	20.801508
2040.554676	-2.989700	3.320600	-9.925900	26.737179	0.000124	20.801808
2041.560087	-3.011800	3.319800	-9.997800	26.768652	0.000124	20.761380
2042.554355	-3.020100	3.319600	-10.024000	26.798884	0.000123	20.776603
2043.553825	-3.000200	3.321300	-9.964300	26.793920	0.000121	20.800062
2044.554498	-2.988100	3.320500	-9.921000	26.757557	0.000122	20.791003
2045.554823	-2.985200	3.321100	-9.913300	26.815415	0.000123	20.788957
2046.556590	-2.990100	3.320100	-9.926800	26.791067	0.000121	20.810943
2047.561670	-2.999000	3.318300	-9.950800	26.811544	0.000121	20.795970
2048.571643	-2.990000	3.320600	-9.927700	26.778408	0.000121	20.797268
2049.559709	-3.014800	3.318200	-10.003000	26.813207	0.000120	20.796693
2050.561378	-2.987400	3.319400	-9.915600	26.806778	0.000121	20.803507
2051.559369	-2.987500	3.317900	-9.911300	26.834999	0.000119	20.790629
2052.563605	-2.997200	3.317900	-9.943000	26.819610	0.000120	20.804080
2053.560916	-3.006600	3.317400	-9.972800	26.825318	0.000119	20.787060
2054.558985	-2.988700	3.316800	-9.912300	26.846489	0.000116	20.804554
2055.562160	-3.002500	3.316900	-9.958500	26.829191	0.000119	20.792850
2056.560307	-3.007100	3.316200	-9.971900	26.807994	0.000117	20.816109
2057.562591	-3.000900	3.315300	-9.947800	26.789800	0.000118	20.797342
2058.564016	-2.974000	3.317100	-9.864400	26.781064	0.000118	20.807998
2059.560044	-3.011500	3.316200	-9.985800	26.846440	0.000119	20.807823
2060.560193	-3.009900	3.314900	-9.976700	26.882650	0.000118	20.813887
2061.559978	-2.997300	3.315300	-9.936300	26.861505	0.000117	20.801160
2062.562221	-3.023900	3.314000	-10.020000	26.842197	0.000116	20.806401
2063.563890	-3.021800	3.314500	-10.015000	26.831970	0.000117	20.814611
2064.561675	-3.014000	3.314900	-9.990200	26.803626	0.000117	20.824044
2065.562799	-3.009400	3.312900	-9.968700	26.805190	0.000114	20.832729
2066.561954	-3.007300	3.312900	-9.961700	26.809384	0.000115	20.805178
2067.562613	-2.978800	3.313300	-9.868400	26.797247	0.000114	20.806726
2068.565738	-2.995800	3.312600	-9.922700	26.836289	0.000114	20.836497
2069.562792	-3.008200	3.312500	-9.963800	26.834898	0.000114	20.818503
2070.563611	-2.990200	3.312200	-9.902900	26.861580	0.000115	20.805028
2071.563292	-3.007800	3.311700	-9.959500	26.892032	0.000112	20.794871
2072.568599	-3.010600	3.310700	-9.966300	26.895135	0.000111	20.806051
2073.563833	-3.003500	3.311400	-9.944100	26.862349	0.000112	20.820974
2074.566629	-2.973500	3.309500	-9.840200	26.869373	0.000112	20.814761
2075.564071	-3.013300	3.308500	-9.969000	26.836115	0.000111	20.805976
2076.563639	-3.030100	3.309500	-10.027000	26.869596	0.000111	20.822572
2077.562975	-3.005300	3.308800	-9.942900	26.878853	0.000111	20.809595
2078.562225	-3.001700	3.309500	-9.933200	26.909578	0.000111	20.833851
2079.573224	-3.023300	3.308000	-10.000000	26.930351	0.000111	20.821548
2080.562223	-2.986700	3.308700	-9.881200	26.946432	0.000111	20.840090
2081.568245	-2.986300	3.308100	-9.878600	26.927943	0.000108	20.823869
2082.564227	-3.021500	3.306800	-9.990300	26.938120	0.000111	20.838843
2083.564964	-2.997500	3.308300	-9.915000	26.929235	0.000108	20.815684
2084.566834	-3.011300	3.306700	-9.956500	26.863889	0.000108	20.825841
2085.567766	-2.999400	3.306200	-9.916400	26.835595	0.000108	20.821100
2086.566206	-3.017900	3.306200	-9.977000	26.782106	0.000109	20.818529
2087.566698	-2.983600	3.306400	-9.864500	26.791663	0.000109	20.844258
2088.568234	-3.001400	3.306600	-9.923600	26.787518	0.000107	20.848625
2089.566154	-2.988800	3.305000	-9.877700	26.794815	0.000105	20.835573
2090.567225	-3.016500	3.303800	-9.964700	26.793550	0.000106	20.812017
2091.566665	-3.009100	3.303900	-9.940400	26.863566	0.000106	20.832155
2092.564804	-2.997800	3.304000	-9.904000	26.883197	0.000106	20.830084
2093.565406	-3.019400	3.302900	-9.972000	26.881113	0.000106	20.835574
2094.565907	-2.992100	3.303000	-9.882100	26.841278	0.000105	20.845306
2095.570209	-3.011700	3.302800	-9.946200	26.855376	0.000103	20.841464
2096.567362	-2.993700	3.303300	-9.888300	26.905137	0.000106	20.826066
2097.567834	-2.967400	3.303200	-9.801000	26.931469	0.000105	20.816509
2098.567983	-3.013800	3.300400	-9.945400	26.885556	0.000105	20.827240
2099.568813	-2.980100	3.303200	-9.842800	26.900149	0.000104	20.831482
2100.568478	-3.005400	3.302000	-9.923000	26.881660	0.000103	20.838495
2101.572803	-3.012300	3.300800	-9.942200	26.840808	0.000104	20.845781
2102.569291	-3.001100	3.301700	-9.907800	26.873893	0.000104	20.834004
2103.571889	-2.978700	3.300100	-9.829200	26.934325	0.000102	20.843561
2104.572809	-2.997800	3.300700	-9.894400	26.946634	0.000104	20.856413
2105.571779	-3.018500	3.299000	-9.957000	26.934648	0.000103	20.828714
2106.571159	-2.997900	3.300000	-9.891800	26.990237	9.988182E-5	20.854741
2107.572348	-2.991700	3.299500	-9.870200	27.010587	0.000103	20.831111
2108.582383	-2.985400	3.298700	-9.846800	26.997583	0.000101	20.851698
2109.573644	-2.985300	3.299900	-9.850300	26.951376	0.000101	20.837949
2110.576648	-3.021600	3.296200	-9.958900	26.973338	0.000101	20.867619
2111.574968	-3.013300	3.297500	-9.935400	26.996070	9.918877E-5	20.847805
2112.575265	-2.975500	3.297100	-9.809800	27.031904	9.839671E-5	20.837374
2113.575186	-2.993200	3.296300	-9.865500	27.031631	9.892475E-5	20.840893
2114.574493	-2.988100	3.298200	-9.854700	27.008727	9.925478E-5	20.861481
2115.575469	-3.007000	3.296100	-9.910900	27.036992	0.000101	20.854818
2116.574726	-2.994000	3.297200	-9.870900	27.046967	9.981582E-5	20.866272
2117.579624	-3.015700	3.294700	-9.934900	27.043642	9.856173E-5	20.849653
2118.574941	-3.018000	3.295500	-9.944900	27.034634	9.938679E-5	20.856715
2119.575181	-2.995700	3.295400	-9.870900	27.073965	9.859473E-5	20.863552
2120.573431	-3.010600	3.294500	-9.917600	27.062898	9.701061E-5	20.857638
2121.574170	-2.999700	3.294000	-9.880300	27.029274	9.654858E-5	20.861281
2122.575611	-2.995600	3.293900	-9.865600	27.024509	9.839671E-5	20.866446
2123.577391	-2.993300	3.293800	-9.858600	27.060664	9.628456E-5	20.853021
2124.579380	-3.004400	3.293000	-9.892900	27.079696	9.664759E-5	20.859359
2125.576678	-2.996500	3.294100	-9.870200	27.037710	9.786868E-5	20.856489
2126.577082	-2.993300	3.292800	-9.854700	27.048753	9.740664E-5	20.856215
2127.577231	-3.021200	3.291400	-9.943400	27.037139	9.493146E-5	20.875828
2128.579903	-3.000800	3.292400	-9.878200	26.986962	9.661458E-5	20.884163
2129.580634	-3.020100	3.290300	-9.935800	27.017932	9.786868E-5	20.873108
2130.584651	-2.979100	3.291900	-9.806200	27.047884	9.562451E-5	20.867668
2131.583588	-2.998100	3.291400	-9.866200	27.066569	9.486546E-5	20.853743
2132.579915	-2.985800	3.290900	-9.825500	27.100092	9.390839E-5	20.878922
2133.585819	-3.000500	3.290900	-9.872700	27.120389	9.493146E-5	20.872309
2134.583223	-2.992900	3.291200	-9.849000	27.116619	9.575652E-5	20.890801
2135.581192	-3.014500	3.288200	-9.911200	27.088629	9.265430E-5	20.867868
2136.591946	-3.016500	3.288700	-9.919600	27.099770	9.173023E-5	20.895666
2137.583710	-3.011000	3.289400	-9.903100	27.108951	9.275330E-5	20.878349
2138.586171	-3.003700	3.287500	-9.873200	27.077066	9.341335E-5	20.877575
2139.589026	-2.999000	3.287400	-9.858000	27.119398	9.202725E-5	20.886010
2140.582422	-3.024700	3.286600	-9.939000	27.171678	9.189524E-5	20.893546
2141.583188	-2.992400	3.287900	-9.837200	27.185225	9.136720E-5	20.881094
2142.588771	-3.004400	3.285900	-9.871400	27.116023	9.229127E-5	20.875504
2143.584014	-2.994900	3.286500	-9.841400	27.064188	9.295132E-5	20.882642
2144.585783	-2.983400	3.286900	-9.805600	27.078730	9.199425E-5	20.873559
2145.585701	-3.013500	3.284500	-9.897200	27.130788	8.915604E-5	20.871388
2146.587953	-3.047100	3.284300	-10.007000	27.159199	9.163122E-5	20.875307
2147.584908	-2.997300	3.286200	-9.849200	27.171952	8.935405E-5	20.856840
2148.586337	-3.011700	3.284300	-9.890300	27.230209	8.823197E-5	20.900734
2149.587980	-3.000400	3.284100	-9.852100	27.217184	8.876001E-5	20.889530
2150.587819	-3.009200	3.283600	-9.880100	27.199047	9.037713E-5	20.880772
2151.587487	-3.003000	3.283000	-9.858300	27.159421	8.737391E-5	20.886909
2152.586929	-3.021400	3.283600	-9.920500	27.159621	8.826497E-5	20.899437
2153.589567	-3.012100	3.282900	-9.887900	27.137761	8.773694E-5	20.879823
2154.590239	-2.991700	3.282200	-9.817800	27.125552	8.704389E-5	20.876553
2155.593366	-3.006100	3.282300	-9.866000	27.166668	8.681287E-5	20.889455
2156.588258	-3.011000	3.281800	-9.880300	27.220185	8.681287E-5	20.891601
2157.587485	-3.021800	3.279900	-9.910600	27.288065	8.691188E-5	20.903454
2158.589181	-3.002900	3.282100	-9.855400	27.286080	8.608682E-5	20.893871
2159.588818	-3.025900	3.279800	-9.923600	27.281019	8.892502E-5	20.889255
2160.589299	-3.004800	3.280000	-9.854400	27.234848	8.559178E-5	20.913934
2161.588354	-3.009000	3.280800	-9.871300	27.232292	8.456870E-5	20.904726
2162.587833	-3.032500	3.279400	-9.943800	27.229613	8.470071E-5	20.898238
2163.587675	-3.002500	3.279600	-9.845200	27.243035	8.559178E-5	20.893247
2164.589508	-3.002100	3.278200	-9.840300	27.219366	8.351263E-5	20.893147
2165.592533	-3.009500	3.278800	-9.866600	27.251842	8.321561E-5	20.905424
2166.590205	-3.005300	3.277400	-9.849000	27.197954	8.215953E-5	20.881569
2167.587176	-2.994600	3.276800	-9.812100	27.167337	8.245655E-5	20.903404
2168.603537	-2.998500	3.277700	-9.826500	27.191404	8.341362E-5	20.888731
2169.591979	-3.024400	3.276400	-9.908100	27.212767	8.281958E-5	20.895519
2170.588703	-2.998400	3.276500	-9.822600	27.261468	8.545977E-5	20.922217
2171.594225	-2.997000	3.276900	-9.820300	27.198848	8.328161E-5	20.891950
2172.589343	-2.986200	3.277800	-9.787600	27.199543	8.054241E-5	20.891701
2173.591083	-2.988200	3.276600	-9.789600	27.246310	8.308360E-5	20.898912
2174.594501	-3.011200	3.273900	-9.857800	27.278165	8.215953E-5	20.888281
2175.594675	-2.979700	3.274600	-9.757000	27.320415	8.443669E-5	20.889529
2176.593480	-2.995000	3.275400	-9.809700	27.342470	8.143348E-5	20.901756
2177.589880	-2.973600	3.275000	-9.737500	27.343065	8.212653E-5	20.902829
2178.592236	-3.020000	3.273800	-9.886400	27.392531	8.239055E-5	20.904701
2179.594334	-3.016200	3.272600	-9.870300	27.373083	8.143348E-5	20.884190
2180.590775	-3.016400	3.272100	-9.870100	27.325774	8.248955E-5	20.876429
2181.592021	-3.012000	3.272600	-9.855700	27.280548	8.126846E-5	20.894470
2182.592460	-2.988400	3.272300	-9.777900	27.284915	8.097144E-5	20.876105
2183.593485	-2.977100	3.273300	-9.743200	27.312800	8.021239E-5	20.886136
2184.594443	-2.997900	3.271100	-9.805100	27.227926	8.034440E-5	20.890853
2185.598131	-2.998600	3.270800	-9.806900	27.230481	7.744018E-5	20.866397
2186.596904	-2.980500	3.270500	-9.746400	27.243110	7.810023E-5	20.879099
2187.597696	-3.014800	3.269900	-9.856600	27.236535	7.786921E-5	20.907096
2188.595750	-2.990900	3.271000	-9.782600	27.301536	7.889229E-5	20.872910
2189.595044	-3.003600	3.269400	-9.819700	27.289232	7.694515E-5	20.876654
2190.595817	-2.999500	3.269000	-9.804800	27.252340	7.704415E-5	20.886960
2191.594578	-2.965000	3.269200	-9.691600	27.270202	7.555905E-5	20.880746
2192.597929	-2.979700	3.267800	-9.736000	27.278538	7.734118E-5	20.863528
2193.601461	-2.990000	3.267700	-9.769400	27.272336	7.612009E-5	20.872461
2194.597451	-3.000300	3.268000	-9.804100	27.340957	7.489900E-5	20.871314
2195.595588	-2.973600	3.267600	-9.715600	27.355096	7.585607E-5	20.886959
2196.598358	-2.985500	3.267400	-9.754000	27.403793	7.479999E-5	20.887583
2197.600337	-2.998300	3.265900	-9.791600	27.436164	7.463498E-5	20.888381
2198.602118	-2.990900	3.265600	-9.766600	27.376901	7.648311E-5	20.862428
2199.597668	-3.007900	3.264200	-9.817700	27.372734	7.493200E-5	20.883365
2200.597350	-3.028500	3.263800	-9.882100	27.299625	7.493200E-5	20.866246
2201.597362	-2.987700	3.264700	-9.753000	27.309349	7.546004E-5	20.854692
2202.597445	-2.991600	3.265300	-9.767100	27.287369	7.202779E-5	20.873358
2203.601950	-3.007400	3.263300	-9.813300	27.329419	7.364491E-5	20.874406
2204.598654	-3.019700	3.265100	-9.859000	27.252164	7.446997E-5	20.859758
2205.598693	-3.025200	3.262200	-9.868300	27.251197	7.338089E-5	20.895767
2206.599609	-2.999900	3.262300	-9.786000	27.322397	7.192878E-5	20.870188
2207.604142	-3.000500	3.263000	-9.788900	27.405130	7.341389E-5	20.880868
2208.600372	-3.011800	3.263000	-9.826600	27.392330	7.206079E-5	20.858035
2209.603184	-3.011900	3.261000	-9.821100	27.412573	7.140074E-5	20.846158
2210.599636	-3.015700	3.260600	-9.832000	27.448169	7.192878E-5	20.866321
2211.599366	-3.014800	3.260300	-9.827900	27.453303	7.179677E-5	20.864374
2212.601643	-2.990900	3.260400	-9.750700	27.451964	7.159876E-5	20.851173
2213.602350	-2.989600	3.259800	-9.744600	27.368788	7.202779E-5	20.844311
2214.605066	-3.005400	3.259000	-9.793500	27.400913	6.829851E-5	20.854342
2215.601450	-2.988500	3.259300	-9.739200	27.447970	7.262183E-5	20.853319
2216.602550	-2.983700	3.258000	-9.720500	27.476222	7.163176E-5	20.862776
2217.601878	-2.986000	3.259200	-9.731100	27.475255	7.361190E-5	20.859906
2218.604393	-3.014500	3.257900	-9.819600	27.515289	7.090571E-5	20.872208
2219.605309	-2.978400	3.258200	-9.703200	27.557926	6.905757E-5	20.868640
2220.605587	-2.994300	3.256800	-9.750500	27.601405	7.093871E-5	20.861179
2221.605097	-3.011500	3.255200	-9.801700	27.660529	6.777048E-5	20.842911
2222.604201	-2.989500	3.255600	-9.732400	27.659066	6.899157E-5	20.857559
2223.604790	-3.002900	3.255600	-9.775500	27.553833	6.948660E-5	20.866419
2224.603353	-2.985300	3.255800	-9.718700	27.507252	6.701142E-5	20.856063
2225.605636	-2.985400	3.255400	-9.718100	27.435615	6.895856E-5	20.834252
2226.603374	-2.995900	3.254600	-9.749900	27.409842	6.885956E-5	20.842936
2227.604077	-3.001100	3.254700	-9.766800	27.366256	6.763847E-5	20.853142
2228.605497	-3.002300	3.254800	-9.771000	27.400241	6.773747E-5	20.840391
2229.604169	-2.986400	3.253800	-9.716400	27.386126	6.763847E-5	20.846579
2230.608457	-3.004800	3.252400	-9.772000	27.419118	6.671440E-5	20.862225
2231.603016	-3.021100	3.252000	-9.822500	27.375359	6.516328E-5	20.837645
2232.603389	-3.018100	3.252200	-9.814200	27.422218	6.628537E-5	20.838792
2233.603280	-2.996700	3.252400	-9.746100	27.446082	6.480026E-5	20.837670
2234.604105	-3.013000	3.250900	-9.794400	27.478873	6.684641E-5	20.840788
2235.603200	-3.016000	3.250500	-9.803200	27.509556	6.730844E-5	20.847002
2236.608965	-2.982500	3.252100	-9.698500	27.486960	6.770447E-5	20.840864
2237.604675	-2.991600	3.250000	-9.721700	27.404730	6.760546E-5	20.859604
2238.606737	-3.018400	3.249700	-9.808000	27.389225	6.443723E-5	20.830731
2239.608183	-2.995600	3.249000	-9.731800	27.427551	6.463525E-5	20.842734
2240.606030	-3.001100	3.247400	-9.745100	27.487802	6.483326E-5	20.852141
2241.614513	-2.999600	3.247100	-9.739100	27.510300	6.503128E-5	20.838741
2242.606207	-2.977100	3.249500	-9.673300	27.502288	6.377718E-5	20.834948
2243.606612	-2.988900	3.248000	-9.706300	27.433355	6.664839E-5	20.841935
2244.606618	-3.013400	3.246800	-9.783200	27.468677	6.275411E-5	20.835272
2245.606532	-2.987600	3.248000	-9.702900	27.473912	6.328215E-5	20.853814
2246.607282	-3.023100	3.246800	-9.814400	27.510993	6.357917E-5	20.858878
2247.607492	-3.018200	3.246000	-9.796200	27.446675	6.341416E-5	20.845378
2248.608760	-2.994300	3.245600	-9.717300	27.388257	6.443723E-5	20.846826
2249.608496	-3.007500	3.244600	-9.757300	27.439852	6.126900E-5	20.817652
2250.611079	-2.988800	3.244200	-9.695900	27.407581	6.374418E-5	20.839240
2251.609022	-2.999300	3.243800	-9.728900	27.419859	6.324914E-5	20.839264
2252.609387	-3.002300	3.244100	-9.739500	27.444169	6.338115E-5	20.844280
2253.609613	-2.977400	3.243800	-9.656700	27.468924	6.275411E-5	20.837890
2254.609455	-2.981700	3.243000	-9.668700	27.569825	6.216006E-5	20.818027
2255.612169	-2.990800	3.243200	-9.698800	27.603629	5.981689E-5	20.838289
2256.610095	-2.989500	3.243100	-9.694500	27.678156	6.381019E-5	20.820346
2257.613761	-2.998800	3.240800	-9.717300	27.673197	6.136801E-5	20.834321
2258.611877	-3.003800	3.241600	-9.736100	27.696384	6.087297E-5	20.820670
2259.610335	-2.993300	3.242300	-9.704700	27.704691	6.060895E-5	20.820970
2260.611790	-2.994600	3.240700	-9.703700	27.686537	5.932186E-5	20.834944
2261.612992	-2.977800	3.241800	-9.651800	27.688646	6.123600E-5	20.836117
2262.616016	-2.987200	3.240300	-9.678400	27.626470	5.849680E-5	20.813857
2263.623969	-2.973100	3.240400	-9.633100	27.629769	5.757273E-5	20.817176
2264.616972	-3.010900	3.240100	-9.755100	27.669946	5.790275E-5	20.822516
2265.618262	-2.993400	3.238400	-9.693000	27.703748	5.793576E-5	20.820969
2266.623793	-3.018300	3.237200	-9.769300	27.696853	5.826578E-5	20.813082
2267.617285	-3.017400	3.236700	-9.765200	27.693207	5.925585E-5	20.816526
2268.619255	-2.999600	3.236900	-9.708400	27.629818	5.605462E-5	20.804897
2269.617585	-3.008100	3.238200	-9.739100	27.628700	5.790275E-5	20.807566
2270.617265	-2.981800	3.237500	-9.653100	27.645788	5.767174E-5	20.813381
2271.617664	-3.001800	3.235600	-9.712300	27.618854	5.549358E-5	20.809038
2272.617728	-3.028700	3.235300	-9.798000	27.595813	5.664866E-5	20.829950
2273.622449	-2.965600	3.235200	-9.593300	27.589910	5.803476E-5	20.829701
2274.616336	-2.997900	3.234000	-9.694500	27.625326	5.885982E-5	20.820292
2275.616847	-2.989000	3.233500	-9.664000	27.660222	5.862881E-5	20.827430
2276.617914	-2.996400	3.233300	-9.687900	27.615728	5.763873E-5	20.816324
2277.617044	-3.016400	3.233200	-9.751800	27.645762	5.390946E-5	20.829475
2278.617557	-3.010900	3.233200	-9.734100	27.643282	5.720970E-5	20.820815
2279.622253	-3.015800	3.232200	-9.746400	27.667934	5.456951E-5	20.827603
2280.619420	-3.003100	3.232000	-9.704900	27.742058	5.394246E-5	20.837235
2281.619998	-2.998500	3.232100	-9.690700	27.665304	5.404147E-5	20.807414
2282.621770	-3.021100	3.231500	-9.761500	27.633682	5.410747E-5	20.827277
2283.624557	-3.014300	3.229600	-9.734500	27.640578	5.364544E-5	20.817147
2284.623952	-3.002600	3.230300	-9.698900	27.697023	5.390946E-5	20.817995
2285.621065	-2.999300	3.229900	-9.687100	27.738908	5.450350E-5	20.811307
2286.620450	-3.005600	3.229500	-9.705800	27.782106	5.324941E-5	20.814950
2287.623705	-3.007600	3.228400	-9.708100	27.803952	5.262237E-5	20.827452
2288.625018	-3.002100	3.227800	-9.689200	27.787635	5.450350E-5	20.817669
2289.621071	-3.014300	3.228000	-9.729900	27.757382	5.288639E-5	20.836535
2290.625316	-3.005100	3.227300	-9.698000	27.749000	5.097225E-5	20.799651
2291.625046	-2.999200	3.226800	-9.677000	27.774740	5.275438E-5	20.811330
2292.624002	-3.007400	3.228200	-9.707000	27.731839	5.348043E-5	20.805141
2293.623847	-3.006200	3.227000	-9.700400	27.683852	5.110425E-5	20.790990
2294.624261	-2.984600	3.225500	-9.626200	27.638715	5.051021E-5	20.815272
2295.624990	-3.005500	3.226000	-9.695400	27.590848	4.836505E-5	20.817842
2296.626128	-3.005700	3.224900	-9.692500	27.566046	4.605488E-5	20.829871
2297.625108	-2.996000	3.225400	-9.662000	27.619444	5.031220E-5	20.810106
2298.624855	-2.995600	3.224700	-9.658300	27.592409	4.912411E-5	20.811352
2299.624371	-2.988600	3.224800	-9.636800	27.600099	4.915711E-5	20.814822
2300.629930	-2.974100	3.223000	-9.585000	27.685586	4.810103E-5	20.789416
2301.627019	-3.003800	3.222000	-9.677500	27.704310	4.988317E-5	20.825802
2302.626102	-3.001600	3.222300	-9.670700	27.709790	5.031220E-5	20.802393
2303.625726	-2.977100	3.222400	-9.591200	27.731787	4.849706E-5	20.798450
2304.629817	-2.986100	3.221400	-9.618200	27.719188	4.773801E-5	20.804738
2305.626329	-2.982700	3.223100	-9.612600	27.726132	4.958614E-5	20.789915
2306.627760	-2.977100	3.219700	-9.584500	27.757155	4.595588E-5	20.796952
2307.627284	-3.006600	3.220500	-9.680500	27.742374	4.787002E-5	20.813371
2308.629534	-2.993300	3.220100	-9.636700	27.729851	4.671493E-5	20.788441
2309.628973	-3.007900	3.219900	-9.683500	27.748326	4.810103E-5	20.772420
2310.630187	-3.002100	3.219100	-9.663300	27.709936	4.645091E-5	20.814868
2311.633024	-3.002500	3.217300	-9.659100	27.661056	4.569186E-5	20.798872
2312.629913	-3.009400	3.218600	-9.684400	27.624524	4.645091E-5	20.790087
2313.630713	-2.976900	3.217600	-9.577100	27.634916	4.546084E-5	20.796276
2314.631454	-3.008400	3.216400	-9.675100	27.647836	4.569186E-5	20.797897
2315.631355	-3.005300	3.217300	-9.667900	27.684417	4.720997E-5	20.800094
2316.630197	-2.993700	3.216400	-9.627700	27.736817	4.440476E-5	20.793555
2317.635309	-2.993700	3.216100	-9.627600	27.671817	4.199559E-5	20.802588
2318.632157	-2.993700	3.215300	-9.625000	27.703214	4.242462E-5	20.795775
2319.633728	-3.015000	3.213500	-9.687600	27.649026	4.519682E-5	20.786292
2320.633570	-3.044300	3.213600	-9.781900	27.666832	4.252363E-5	20.782399
2321.633641	-2.995500	3.212800	-9.622600	27.752415	4.225961E-5	20.785070
2322.635329	-3.027300	3.212600	-9.723700	27.765879	4.262263E-5	20.784395
2323.633984	-3.004900	3.213900	-9.656700	27.758762	4.645091E-5	20.796199
2324.634649	-2.987500	3.214300	-9.601800	27.754670	4.384372E-5	20.770269
2325.635009	-3.012400	3.211500	-9.673300	27.778452	4.410774E-5	20.787090
2326.635991	-3.010100	3.211700	-9.666600	27.767589	4.334869E-5	20.761459
2327.635002	-2.997200	3.210000	-9.619800	27.713826	4.579087E-5	20.786066
2328.635815	-2.983000	3.212800	-9.581900	27.763944	4.123653E-5	20.791931
2329.636353	-2.982200	3.211000	-9.575000	27.805058	4.417375E-5	20.765976
2330.636296	-3.006300	3.208200	-9.643600	27.793552	3.935539E-5	20.761509
2331.638974	-2.990500	3.208900	-9.595200	27.759183	4.331568E-5	20.773388
2332.636261	-3.000500	3.208500	-9.625800	27.716827	4.146755E-5	20.777232
2333.638418	-3.008700	3.207200	-9.647600	27.759009	4.113752E-5	20.790283
2334.636690	-3.021300	3.207500	-9.689500	27.807612	4.100551E-5	20.766176
2335.636941	-3.011200	3.207300	-9.656900	27.896655	4.262263E-5	20.777556
2336.644810	-3.007300	3.208700	-9.648800	27.934490	4.222660E-5	20.781024
2337.640282	-3.004800	3.205400	-9.630700	27.892092	4.173157E-5	20.783396
2338.645055	-3.011300	3.205400	-9.650700	27.847559	4.173157E-5	20.774137
2339.641550	-2.988500	3.207100	-9.583500	27.866429	4.252363E-5	20.768946
2340.641611	-3.011800	3.204900	-9.651600	27.886786	4.225961E-5	20.787538
2341.641173	-3.010000	3.204600	-9.644800	27.845155	4.123653E-5	20.769820
2342.641737	-3.016600	3.202500	-9.660100	27.833302	4.212760E-5	20.765003
2343.645303	-3.009100	3.202000	-9.634400	27.793851	3.978442E-5	20.778880
2344.646277	-2.997600	3.202300	-9.598600	27.869554	4.252363E-5	20.777781
2345.641909	-2.999500	3.201600	-9.602200	27.844783	3.899237E-5	20.777033
2346.642437	-2.995900	3.202400	-9.593700	27.814631	4.209459E-5	20.779878
2347.647670	-3.024400	3.200400	-9.677700	27.769574	4.186358E-5	20.777208
2348.641535	-2.985600	3.201000	-9.556100	27.788867	4.093951E-5	20.773864
2349.646896	-2.973500	3.199800	-9.513300	27.835882	3.882735E-5	20.756694
2350.644020	-2.990000	3.200200	-9.567400	27.887631	3.843133E-5	20.772742
2351.647545	-2.997700	3.198900	-9.588100	27.873175	3.955341E-5	20.772891
2352.644676	-2.986400	3.199000	-9.552400	27.857083	3.975142E-5	20.783722
2353.645165	-2.991000	3.198700	-9.566100	27.875332	3.998244E-5	20.773639
2354.648211	-2.981100	3.196800	-9.529000	27.874192	4.014745E-5	20.796200
2355.645051	-2.981200	3.196600	-9.528600	27.950311	4.143455E-5	20.773240
2356.646455	-3.011900	3.194900	-9.621600	28.009442	3.955341E-5	20.785344
2357.646719	-2.979500	3.197300	-9.525800	28.029846	3.872835E-5	20.777907
2358.647937	-3.005500	3.194500	-9.599700	28.078511	3.915738E-5	20.769048
2359.648522	-2.988000	3.194500	-9.543900	28.107169	3.691321E-5	20.763283
2360.651686	-2.979200	3.194900	-9.517000	28.083767	3.777128E-5	20.769597
2361.647852	-2.992200	3.194400	-9.557000	28.021912	3.628617E-5	20.758067
2362.647933	-3.001400	3.193300	-9.582800	28.007359	3.767227E-5	20.761435
2363.650425	-3.033500	3.191500	-9.680200	27.962087	3.796929E-5	20.769920
2364.649707	-2.982300	3.192800	-9.521200	27.883713	3.655019E-5	20.752676
2365.653420	-2.980400	3.191800	-9.511900	27.867769	3.730924E-5	20.760337
2366.649006	-2.997100	3.191100	-9.563600	27.802381	3.496607E-5	20.773713
2367.648173	-3.002200	3.192500	-9.582400	27.831393	3.622016E-5	20.749805
2368.652742	-3.009300	3.190300	-9.599100	27.814928	3.678120E-5	20.753623
2369.652170	-2.983100	3.189900	-9.515300	27.801439	3.998244E-5	20.777033
2370.654754	-2.990800	3.189600	-9.538400	27.834617	3.727624E-5	20.749731
2371.652624	-3.023100	3.187500	-9.635400	27.854924	3.516409E-5	20.757841
2372.650691	-3.017000	3.187500	-9.615800	27.873025	3.681421E-5	20.750453
2373.651430	-2.995700	3.187600	-9.547900	27.849618	3.763927E-5	20.765303
2374.652974	-3.020600	3.185800	-9.622800	27.796032	3.443803E-5	20.766849
2375.651602	-3.004700	3.184700	-9.568400	27.855692	3.420702E-5	20.753872
2376.654294	-3.001000	3.184300	-9.555400	27.884480	3.523009E-5	20.746336
2377.653527	-3.031200	3.184900	-9.653600	27.921845	3.311794E-5	20.759288
2378.652378	-3.016400	3.184800	-9.606300	27.999300	3.608815E-5	20.751900
2379.656579	-3.022300	3.185700	-9.627800	28.040479	3.410801E-5	20.751152
2380.653188	-2.994200	3.183200	-9.530400	28.053123	3.397600E-5	20.750128
2381.655461	-3.004400	3.181500	-9.557200	28.006564	3.397600E-5	20.765377
2382.653111	-2.994700	3.182300	-9.529200	27.939870	3.212786E-5	20.748032
2383.654394	-3.030900	3.180000	-9.637000	27.964515	3.308493E-5	20.762407
2384.653910	-3.004700	3.180100	-9.554600	27.994440	3.258990E-5	20.750802
2385.655081	-2.996700	3.179500	-9.527000	28.062691	3.255689E-5	20.736526
2386.656434	-3.000100	3.179100	-9.536400	28.054114	3.183084E-5	20.748755
2387.658805	-3.001600	3.178000	-9.538400	28.024810	3.288692E-5	20.741543
2388.656751	-2.996600	3.177600	-9.520400	27.978299	3.249089E-5	20.755892
2389.656659	-3.007700	3.176300	-9.552100	28.015835	3.169883E-5	20.754794
2390.658364	-3.017000	3.177200	-9.583400	28.064848	3.140181E-5	20.737748
2391.666363	-3.013100	3.176400	-9.570100	28.126699	3.067576E-5	20.758287
2392.657412	-3.008600	3.175100	-9.552100	28.057682	3.008171E-5	20.733380
2393.657217	-2.988700	3.175000	-9.488300	28.020866	3.159982E-5	20.739469
2394.656572	-2.990300	3.174800	-9.493000	27.957247	2.968568E-5	20.744659
2395.658086	-3.018100	3.173200	-9.575900	27.978446	2.978469E-5	20.725692
2396.659651	-3.014500	3.174200	-9.567300	27.949511	2.991670E-5	20.731657
2397.658423	-3.022900	3.172900	-9.590600	27.967486	3.054375E-5	20.727463
2398.661685	-2.993500	3.172700	-9.496300	27.945941	3.159982E-5	20.756513
2399.661734	-3.010600	3.171400	-9.546600	27.943436	3.047774E-5	20.751621
2400.661854	-3.005500	3.169400	-9.524500	28.008195	2.820057E-5	20.727663
2401.660712	-3.016900	3.169300	-9.561200	28.025599	3.004871E-5	20.749924
2402.663376	-3.005900	3.170100	-9.527900	28.044812	3.090677E-5	20.743185
2403.662232	-3.003000	3.169400	-9.516700	28.042656	2.783755E-5	20.749075
2404.662219	-3.018300	3.166800	-9.556200	28.030234	2.777154E-5	20.730880
2405.663428	-3.015000	3.167500	-9.549900	28.072802	2.714450E-5	20.731056
2406.665406	-3.010900	3.166700	-9.533200	28.054951	2.813457E-5	20.749597
2407.666456	-2.990700	3.168000	-9.473200	28.030457	2.833258E-5	20.723993
2408.676497	-3.019200	3.164400	-9.552900	28.059910	2.744152E-5	20.722346
2409.663653	-2.987900	3.165000	-9.455800	28.095162	2.810157E-5	20.727487
2410.664181	-3.039100	3.163700	-9.614000	28.092311	2.948767E-5	20.741212
2411.664654	-3.003000	3.163100	-9.497900	28.108375	2.770554E-5	20.736046
2412.668891	-3.010900	3.162600	-9.521400	28.149252	2.895963E-5	20.721247
2413.672302	-2.989000	3.161800	-9.449400	28.180312	2.707849E-5	20.746827
2414.671629	-2.996700	3.160600	-9.470500	28.230953	2.602241E-5	20.736171
2415.669124	-3.003800	3.160100	-9.491800	28.240149	2.889362E-5	20.715556
2416.669307	-2.996100	3.159300	-9.464800	28.249767	2.717750E-5	20.745156
2417.666656	-2.967500	3.158800	-9.372500	28.264539	2.701249E-5	20.733001
2418.670197	-2.968900	3.159800	-9.380300	28.289473	2.463631E-5	20.742459
2419.667665	-2.996900	3.157900	-9.463500	28.266175	2.770554E-5	20.741761
2420.666394	-3.007200	3.156900	-9.492700	28.204876	2.483433E-5	20.745004
2421.671058	-2.999500	3.156900	-9.468100	28.170620	2.631944E-5	20.739440
2422.670283	-3.006900	3.154100	-9.482900	28.147095	2.549438E-5	20.744207
2423.673698	-2.986400	3.155200	-9.421600	28.149376	2.592341E-5	20.728958
2424.673818	-2.990900	3.153900	-9.432400	28.102151	2.579140E-5	20.734997
2425.671268	-3.002600	3.153100	-9.466500	28.147591	2.724350E-5	20.714832
2426.671893	-2.997300	3.152700	-9.448700	28.125181	2.724350E-5	20.731628
2427.671386	-3.001300	3.152200	-9.460300	28.213329	2.565939E-5	20.721271
2428.673102	-2.982400	3.151700	-9.399200	28.197292	2.546137E-5	20.737843
2429.675543	-2.993300	3.150900	-9.430600	28.136411	2.133607E-5	20.732976
2430.674367	-3.005200	3.150300	-9.465700	28.139610	2.384425E-5	20.730980
2431.672418	-3.014500	3.148200	-9.488800	28.065189	2.364624E-5	20.717228
2432.675162	-3.031400	3.148300	-9.542400	28.008342	2.391026E-5	20.761477
2433.671230	-3.022700	3.145200	-9.505600	28.052372	2.559338E-5	20.730880
2434.674745	-3.006900	3.145400	-9.456600	28.061049	2.318421E-5	20.745779
2435.672438	-3.003400	3.145000	-9.445200	28.113184	2.282118E-5	20.750846
2436.672978	-2.987000	3.144800	-9.392700	28.179321	2.325021E-5	20.746303
2437.673841	-2.997100	3.144800	-9.424000	28.264763	2.420728E-5	20.741287
2438.677902	-2.978100	3.143400	-9.361000	28.232540	2.394326E-5	20.731130
2439.673481	-2.992800	3.143500	-9.407500	28.212511	2.358023E-5	20.732776
2440.674688	-3.004500	3.140600	-9.434400	28.165538	2.222714E-5	20.741911
2441.673558	-3.011100	3.140200	-9.454700	28.212512	2.166609E-5	20.728984
2442.672369	-3.005800	3.140700	-9.439600	28.272472	2.242515E-5	20.727711
2443.676336	-3.017800	3.138500	-9.469800	28.283824	2.245815E-5	20.741038
2444.673190	-3.023800	3.138300	-9.487600	28.273563	2.216113E-5	20.748725
2445.676021	-3.013600	3.137600	-9.455000	28.269274	2.107205E-5	20.731130
2446.673083	-3.000700	3.136500	-9.410300	28.266251	2.255716E-5	20.738992
2447.672787	-2.986800	3.136600	-9.367100	28.296713	2.047801E-5	20.742636
2448.673697	-3.006600	3.134100	-9.421800	28.320284	2.140207E-5	20.750722
2449.672849	-2.984900	3.135800	-9.359400	28.282213	2.209513E-5	20.720923
2450.680392	-3.002800	3.132400	-9.405000	28.246422	1.938893E-5	20.755065
2451.678850	-3.010100	3.132500	-9.427800	28.300158	2.024699E-5	20.747053
2452.676076	-3.009800	3.130500	-9.421600	28.304842	1.998297E-5	20.730906
2453.676564	-3.007600	3.130700	-9.414900	28.281890	2.021399E-5	20.740040
2454.675914	-2.986200	3.130500	-9.347000	28.189906	2.143508E-5	20.743684
2455.675062	-2.994300	3.128400	-9.366100	28.241935	2.123706E-5	20.741063
2456.678337	-3.009400	3.126200	-9.407000	28.294605	1.968595E-5	20.746678
2457.679050	-2.990400	3.127100	-9.350200	28.318251	1.955394E-5	20.747252
2458.674687	-3.007200	3.125800	-9.398900	28.373099	2.077503E-5	20.742736
2459.682861	-3.003100	3.124700	-9.382200	28.313344	2.080803E-5	20.721922
2460.675694	-2.981800	3.124800	-9.317100	28.273067	2.054401E-5	20.728311
2461.678557	-2.981800	3.123800	-9.313700	28.247636	1.968595E-5	20.733052
2462.677376	-2.987800	3.123600	-9.332100	28.287071	1.899290E-5	20.737195
2463.677896	-3.005500	3.121300	-9.380900	28.363532	1.737578E-5	20.758233
2464.678046	-3.011700	3.119600	-9.394300	28.368267	1.856387E-5	20.738818
2465.682284	-3.004300	3.119400	-9.370900	28.335328	1.839885E-5	20.741687
2466.679001	-2.972800	3.119300	-9.272400	28.315574	1.770580E-5	20.757834
2467.680000	-3.000500	3.118000	-9.354800	28.270043	1.849786E-5	20.731430
2468.682431	-2.993400	3.116600	-9.328200	28.248380	1.833285E-5	20.737120
2469.680617	-2.974300	3.118000	-9.272800	28.306206	1.681474E-5	20.748401
2470.686217	-3.011800	3.114600	-9.379100	28.332131	1.816784E-5	20.737045
2471.679582	-3.007600	3.113700	-9.363900	28.393644	1.988396E-5	20.755363
2472.680190	-2.982300	3.114900	-9.288900	28.438700	1.767280E-5	20.755214
2473.681174	-3.011200	3.112000	-9.369800	28.419989	1.724377E-5	20.737320
2474.682848	-3.004600	3.112600	-9.351000	28.425044	1.714476E-5	20.749049
2475.686525	-2.975500	3.111200	-9.256700	28.439988	1.618769E-5	20.747976
2476.682855	-2.994300	3.109600	-9.310800	28.503032	1.816784E-5	20.745556
2477.684966	-3.012200	3.109000	-9.363500	28.468165	1.539563E-5	20.746005
2478.684106	-2.968400	3.107700	-9.224000	28.484818	1.846486E-5	20.731954
2479.683116	-2.999000	3.107100	-9.317300	28.446680	1.628670E-5	20.755189
2480.684057	-2.990900	3.106400	-9.290200	28.469503	1.684774E-5	20.751620
2481.683601	-3.013800	3.105400	-9.358100	28.495870	1.671573E-5	20.763000
2482.683398	-3.000000	3.105400	-9.315700	28.489824	1.546164E-5	20.762601
2483.687109	-3.001600	3.103200	-9.313100	28.383904	1.407554E-5	20.752667
2484.681878	-3.003700	3.103200	-9.320000	28.361599	1.697975E-5	20.770512
2485.684114	-3.021900	3.102000	-9.372500	28.352677	1.341549E-5	20.751096
2486.685496	-3.007200	3.099900	-9.321400	28.363507	1.598968E-5	20.762475
2487.683814	-3.000800	3.099800	-9.301800	28.399295	1.556064E-5	20.749673
2488.687918	-2.983900	3.099700	-9.248600	28.355329	1.674873E-5	20.740015
2489.687084	-2.965500	3.099100	-9.189600	28.411240	1.658372E-5	20.766443
2490.684069	-2.949800	3.098400	-9.138400	28.403482	1.612169E-5	20.759106
2491.683355	-3.010400	3.095000	-9.316500	28.406555	1.598968E-5	20.744656
2492.685763	-2.986100	3.095300	-9.241900	28.439739	1.595667E-5	20.744407
2493.685843	-3.015000	3.093000	-9.324400	28.452601	1.565965E-5	20.765894
2494.685114	-2.978600	3.092400	-9.210300	28.502709	1.612169E-5	20.775577
2495.685157	-2.977400	3.092600	-9.207000	28.462663	1.499960E-5	20.739990
2496.685642	-2.981300	3.090900	-9.214100	28.429058	1.397653E-5	20.756885
2497.685863	-2.971200	3.089700	-9.179400	28.437385	1.371251E-5	20.747252
2498.684470	-2.982400	3.088300	-9.209700	28.493491	1.292045E-5	20.769613
2499.685760	-2.989900	3.087000	-9.228900	28.533461	1.476859E-5	20.749173
2500.685627	-3.004000	3.087100	-9.272100	28.469378	1.447156E-5	20.764296
2501.686013	-3.007600	3.085400	-9.278600	28.424200	1.424055E-5	20.761950
2502.692346	-3.010700	3.085800	-9.289900	28.329328	1.341549E-5	20.752716
2503.688198	-2.956600	3.084200	-9.116400	28.374807	1.338248E-5	20.765793
2504.688465	-2.963800	3.082700	-9.134900	28.391537	1.351449E-5	20.765569
2505.687583	-2.990600	3.081300	-9.214500	28.408810	1.400953E-5	20.763522
2506.689857	-3.007200	3.079500	-9.259500	28.367248	1.391052E-5	20.761500
2507.690047	-2.986400	3.079700	-9.196400	28.386282	1.638571E-5	20.756010
2508.688985	-2.983600	3.077400	-9.180900	28.406927	1.539563E-5	20.745504
2509.693943	-2.961100	3.077400	-9.110500	28.404572	1.420755E-5	20.751668
2510.692666	-2.999100	3.075700	-9.223400	28.414510	1.301946E-5	20.759779
2511.693205	-2.992600	3.073700	-9.196800	28.371883	1.367951E-5	20.756210
2512.691167	-2.993500	3.072900	-9.198100	28.401077	1.661672E-5	20.763796
2513.695400	-3.011600	3.072600	-9.253200	28.499536	1.272244E-5	20.763847
2514.693450	-3.015800	3.070600	-9.259800	28.566838	1.259043E-5	20.770934
2515.701578	-2.981200	3.070000	-9.151700	28.581582	1.433956E-5	20.775351
2516.694674	-3.019800	3.067900	-9.264100	28.583367	1.143534E-5	20.784261
2517.695537	-3.014900	3.067700	-9.248400	28.467990	1.364650E-5	20.775701
2518.696947	-2.994900	3.067600	-9.186200	28.527488	1.470258E-5	20.773030
2519.696662	-3.011000	3.064800	-9.227600	28.582102	1.311847E-5	20.765918
2520.699237	-3.022000	3.063500	-9.256900	28.623012	1.212839E-5	20.766343
2521.696634	-3.034100	3.061500	-9.287500	28.677670	1.328348E-5	20.772556
2522.696862	-2.982600	3.061900	-9.130500	28.597515	1.226040E-5	20.799459
2523.696043	-3.020900	3.059200	-9.240900	28.545380	1.552764E-5	20.788204
2524.696818	-3.005400	3.059900	-9.195200	28.551773	1.292045E-5	20.789427
2525.696689	-3.015500	3.058200	-9.221200	28.525680	1.120432E-5	20.792546
2526.698785	-3.012300	3.055700	-9.204600	28.500454	1.259043E-5	20.775203
2527.697337	-2.984300	3.056200	-9.120000	28.520899	1.156735E-5	20.780145
2528.698201	-2.998800	3.055500	-9.161700	28.572836	1.140234E-5	20.770810
2529.707285	-2.994100	3.052800	-9.139400	28.593180	1.259043E-5	20.792247
2530.701486	-2.981300	3.052700	-9.099600	28.565353	1.156735E-5	20.775602
2531.703897	-2.981700	3.051600	-9.098400	28.485883	1.057728E-5	20.769063
2532.700141	-3.001400	3.049100	-9.150700	28.507665	9.620208E-6	20.790526
2533.699210	-2.984100	3.048200	-9.095800	28.540598	1.212839E-5	20.764896
2534.702413	-2.986700	3.046800	-9.098600	28.552913	1.268943E-5	20.780617
2535.704454	-2.987900	3.046700	-9.102200	28.565601	1.278844E-5	20.789602
2536.708841	-2.985800	3.045800	-9.093400	28.534428	1.107231E-5	20.785709
2537.704845	-3.002100	3.043200	-9.135400	28.540945	1.202939E-5	20.789427
2538.703938	-2.978100	3.043100	-9.061600	28.582649	1.272244E-5	20.793970
2539.704798	-3.011100	3.039600	-9.150800	28.632404	1.282144E-5	20.816579
2540.705889	-3.019800	3.039800	-9.179200	28.652374	1.166636E-5	20.797813
2541.705573	-3.010300	3.037200	-9.142200	28.699673	1.259043E-5	20.799460
2542.707303	-2.994500	3.038400	-9.097300	28.736465	1.374551E-5	20.799534
2543.704545	-3.004900	3.035400	-9.120400	28.731757	1.140234E-5	20.783413
2544.704293	-2.993500	3.034900	-9.084300	28.663969	9.224179E-6	20.788154
2545.709054	-2.984100	3.034200	-9.053700	28.615258	1.087430E-5	20.777025
2546.704697	-2.988000	3.032300	-9.059800	28.644296	1.239241E-5	20.787306
2547.710709	-2.980600	3.031200	-9.033600	28.673459	1.183137E-5	20.775901
2548.717733	-2.991400	3.029800	-9.062100	28.603908	1.067629E-5	20.807794
2549.706182	-2.992100	3.029000	-9.062600	28.664886	1.074229E-5	20.799983
2550.704431	-2.987200	3.027500	-9.042800	28.725043	1.061028E-5	20.794668
2551.706404	-3.003300	3.025800	-9.087000	28.722317	1.348149E-5	20.794767
2552.705768	-3.018900	3.025800	-9.133800	28.646055	1.163336E-5	20.802354
2553.708967	-2.990200	3.022600	-9.037400	28.646179	1.041227E-5	20.780667
2554.707635	-3.018500	3.020700	-9.117000	28.632180	1.117132E-5	20.783637
2555.708619	-2.997200	3.021000	-9.053400	28.710895	1.146834E-5	20.799384
2556.709132	-2.988900	3.018900	-9.022800	28.729626	1.209539E-5	20.797388
2557.711014	-3.001400	3.018900	-9.060300	28.675440	1.193038E-5	20.812510
2558.710500	-3.034100	3.015500	-9.148500	28.677769	1.120432E-5	20.798261
2559.713034	-2.978400	3.016500	-8.983700	28.742286	1.057728E-5	20.800656
2560.711093	-2.999700	3.012400	-9.035200	28.676977	1.074229E-5	20.794143
2561.710430	-3.003000	3.013000	-9.045700	28.724472	8.597133E-6	20.798835
2562.711446	-3.016400	3.010400	-9.080200	28.626084	1.097331E-5	20.811637
2563.711687	-3.012000	3.009500	-9.063200	28.625712	1.024725E-5	20.796563
2564.713268	-3.011800	3.009100	-9.062200	28.594739	9.884227E-6	20.800930
2565.710145	-3.025300	3.007500	-9.097500	28.621599	1.028026E-5	20.809490
2566.710935	-2.992700	3.005200	-8.993200	28.683567	8.927157E-6	20.798885
2567.715341	-2.990300	3.004500	-8.984100	28.753607	1.057728E-5	20.806370
2568.717917	-3.004400	3.003600	-9.023200	28.782643	1.242541E-5	20.782988
2569.715150	-2.987400	3.001900	-8.966900	28.755911	7.937084E-6	20.804424
2570.713612	-2.998400	2.999400	-8.992000	28.732994	1.156735E-5	20.818324
2571.713270	-2.993000	2.999300	-8.975500	28.696748	9.752218E-6	20.793194
2572.720645	-2.986300	2.997100	-8.950100	28.755292	1.074229E-5	20.790524
2573.717587	-2.990900	2.997000	-8.963300	28.771420	1.018125E-5	20.818623
2574.720101	-2.972900	2.996000	-8.905900	28.688967	9.851225E-6	20.798633
2575.718090	-2.977300	2.993300	-8.910300	28.622639	1.047827E-5	20.815279
2576.714400	-2.989300	2.992800	-8.945900	28.711761	9.026164E-6	20.800730
2577.715570	-2.997400	2.990200	-8.962000	28.719715	9.521201E-6	20.817750
2578.718861	-3.015200	2.988300	-9.009300	28.744663	9.224179E-6	20.818698
2579.717142	-3.000800	2.988300	-8.966500	28.796268	1.004924E-5	20.795764
2580.718438	-3.005900	2.986600	-8.977300	28.814526	8.696140E-6	20.795190
2581.714807	-3.011700	2.984800	-8.988600	28.797631	8.597133E-6	20.812309
2582.716756	-2.979500	2.983600	-8.888900	28.833478	1.090730E-5	20.817126
2583.717649	-3.010200	2.982300	-8.976600	28.832140	8.729143E-6	20.806770
2584.716477	-2.996400	2.980800	-8.930200	28.796590	1.094031E-5	20.810787
2585.719304	-3.003900	2.979600	-8.949500	28.790273	9.389191E-6	20.809165
2586.716774	-3.007500	2.977400	-8.954200	28.862511	7.409045E-6	20.825984
2587.725016	-3.010900	2.975800	-8.958900	28.874451	1.123733E-5	20.821417
2588.718274	-3.008100	2.973600	-8.944200	28.885376	8.564130E-6	20.822940
2589.718892	-3.000100	2.973200	-8.918900	28.924341	1.156735E-5	20.810512
2590.720180	-3.016400	2.971400	-8.961900	28.920922	8.663138E-6	20.818448
2591.720285	-2.982300	2.971900	-8.862100	28.941160	7.376043E-6	20.824611
2592.717866	-3.021600	2.969000	-8.970400	28.939748	8.300111E-6	20.804697
2593.719306	-2.998500	2.967800	-8.898000	28.991863	9.851225E-6	20.818797
2594.723718	-2.985800	2.967100	-8.859000	28.995901	9.983235E-6	20.823813
2595.721148	-2.994800	2.964400	-8.876500	28.919361	9.224179E-6	20.840108
2596.723272	-2.988900	2.962600	-8.854400	28.941531	1.028026E-5	20.816451
2597.724353	-2.988400	2.962500	-8.851200	28.995331	1.024725E-5	20.837462
2598.721359	-2.987800	2.959900	-8.842200	28.960975	8.564130E-6	20.851212
2599.722410	-2.991100	2.959100	-8.850400	28.909725	6.616987E-6	20.831349
2600.725718	-3.006400	2.956400	-8.887200	28.840809	9.257181E-6	20.829252
2601.729353	-3.000000	2.956100	-8.867100	28.835086	7.838077E-6	20.830125
2602.723146	-3.006700	2.952700	-8.877300	28.796836	9.917230E-6	20.827156
2603.722322	-2.979600	2.952700	-8.797100	28.814847	8.135099E-6	20.845772
2604.722227	-3.010700	2.951200	-8.884400	28.839075	8.333113E-6	20.824660
2605.723084	-2.999500	2.949900	-8.847500	28.827208	8.432121E-6	20.831198
2606.724229	-2.982200	2.947800	-8.789000	28.779618	7.442048E-6	20.834467
2607.725633	-2.998900	2.946400	-8.835400	28.790519	8.036092E-6	20.812731
2608.724241	-2.976700	2.945500	-8.766600	28.820420	7.640062E-6	20.829576
2609.724594	-2.995000	2.943700	-8.814500	28.776942	8.135099E-6	20.808064
2610.732307	-3.021200	2.939800	-8.881400	28.764777	9.323186E-6	20.842751
2611.726066	-3.009300	2.938900	-8.843200	28.806397	8.630135E-6	20.845321
2612.729842	-3.000400	2.938000	-8.814600	28.880914	8.993162E-6	20.832669
2613.725788	-3.015600	2.936000	-8.852900	28.958397	8.234106E-6	20.840080
2614.726127	-3.009900	2.934300	-8.831200	28.975240	7.112024E-6	20.832868
2615.728836	-2.960900	2.933700	-8.685000	29.004889	9.290184E-6	20.842351
2616.729459	-2.986700	2.932400	-8.756800	28.993669	8.828150E-6	20.843848
2617.731306	-3.010400	2.930200	-8.820600	28.950495	7.475050E-6	20.834964
2618.728669	-2.997000	2.928400	-8.775200	28.926914	8.960159E-6	20.845346
2619.729338	-3.000500	2.926600	-8.780300	28.973927	9.587206E-6	20.849562
2620.727397	-2.987100	2.924900	-8.736000	29.042711	7.508053E-6	20.840155
2621.728469	-2.989500	2.922500	-8.735000	29.102796	8.828150E-6	20.846642
2622.730375	-2.995400	2.921100	-8.749000	29.129741	9.983235E-6	20.845345
2623.729765	-3.023600	2.920500	-8.828900	29.155176	8.630135E-6	20.848215
2624.729924	-2.975500	2.918700	-8.683200	29.156909	6.451975E-6	20.836211
2625.731814	-2.991700	2.916800	-8.725200	29.131277	7.475050E-6	20.858746
2626.729247	-2.993600	2.915500	-8.725800	29.104455	9.257181E-6	20.854478
2627.730745	-3.009800	2.912100	-8.763500	29.080010	8.399118E-6	20.843124
2628.734537	-3.008900	2.910600	-8.757100	28.964811	6.682992E-6	20.846542
2629.730566	-2.999000	2.908600	-8.722000	28.908755	7.013016E-6	20.830846
2630.730137	-3.005200	2.908600	-8.740500	29.008207	8.564130E-6	20.865607
2631.729995	-3.016800	2.906100	-8.766500	29.029285	8.729143E-6	20.867878
2632.730441	-3.012100	2.904200	-8.746400	29.098560	1.084130E-5	20.858970
2633.734907	-2.970400	2.903600	-8.624000	29.155944	9.488198E-6	20.877911
2634.735357	-2.980100	2.901600	-8.646700	29.187891	1.070929E-5	20.864585
2635.731776	-2.980500	2.899800	-8.641700	29.168129	1.140234E-5	20.872645
2636.730389	-3.003500	2.897400	-8.701700	29.217459	1.011524E-5	20.853605
2637.734062	-3.012800	2.894800	-8.720500	29.259929	1.044527E-5	20.859894
2638.736889	-3.012500	2.893400	-8.715200	29.302422	1.021425E-5	20.859570
2639.736306	-3.067600	2.889600	-8.862900	29.300193	7.673065E-6	20.869651
2640.731775	-2.989000	2.891700	-8.642500	29.262950	8.894155E-6	20.851559
2641.733788	-3.036300	2.887200	-8.765100	29.201512	9.686213E-6	20.887793
2642.732375	-2.978800	2.886500	-8.595700	29.185068	9.719215E-6	20.861741
2643.733278	-3.042300	2.882700	-8.768400	29.102747	8.399118E-6	20.849913
2644.742889	-2.993500	2.882500	-8.627600	29.099825	8.531128E-6	20.872571
2645.736042	-3.011600	2.881000	-8.675900	29.129396	8.267109E-6	20.857798
2646.734815	-3.036400	2.878200	-8.738500	29.210601	9.752218E-6	20.859495
2647.734186	-2.999100	2.876800	-8.626200	29.239971	8.762145E-6	20.873445
2648.737558	-2.981000	2.876100	-8.572400	29.273500	1.070929E-5	20.867406
2649.734645	-3.027200	2.872200	-8.693600	29.240813	8.201104E-6	20.877612
2650.736897	-2.978400	2.872900	-8.555300	29.242917	8.894155E-6	20.872147
2651.735817	-2.986400	2.869100	-8.567000	29.181379	9.917230E-6	20.862764
2652.736102	-3.002400	2.868100	-8.610500	29.164514	7.145026E-6	20.883701
2653.734827	-2.969400	2.866400	-8.509400	29.167238	8.762145E-6	20.870325
2654.735582	-2.985300	2.864400	-8.550400	29.204261	1.008224E-5	20.855003
2655.739134	-2.993500	2.861500	-8.565000	29.168700	9.851225E-6	20.879858
2656.735807	-2.997500	2.861000	-8.574700	29.139971	7.145026E-6	20.886944
2657.739521	-2.998700	2.857900	-8.569400	29.222240	8.465123E-6	20.879284
2658.742767	-2.987200	2.854900	-8.527200	29.213375	8.267109E-6	20.860394
2659.740060	-2.955800	2.853900	-8.434000	29.284321	7.640062E-6	20.894430
2660.739397	-2.997400	2.850800	-8.544600	29.342709	8.333113E-6	20.887843
2661.743779	-2.985500	2.852000	-8.513600	29.333225	9.686213E-6	20.886345
2662.739863	-3.007000	2.848500	-8.564300	29.317626	7.937084E-6	20.892434
2663.739574	-3.009000	2.845900	-8.562900	29.297049	8.399118E-6	20.893033
2664.741599	-3.000600	2.844300	-8.533800	29.253813	8.630135E-6	20.885023
2665.740175	-3.002100	2.840600	-8.527200	29.229297	8.498126E-6	20.877387
2666.744636	-2.997200	2.838700	-8.506900	29.236058	9.257181E-6	20.895104
2667.743696	-3.010700	2.837700	-8.542200	29.210576	7.607060E-6	20.873694
2668.744808	-3.007500	2.834900	-8.525500	29.228753	8.465123E-6	20.889640
2669.742256	-2.989800	2.831900	-8.466400	29.242645	1.216140E-5	20.884674
2670.741751	-3.011300	2.828500	-8.516900	29.293260	8.003089E-6	20.887793
2671.744335	-2.969900	2.828400	-8.399100	29.363285	8.894155E-6	20.892459
2672.744365	-3.029100	2.826000	-8.559700	29.376185	9.257181E-6	20.880332
2673.747394	-3.005300	2.823500	-8.484900	29.391165	9.323186E-6	20.902540
2674.743932	-3.012800	2.822100	-8.501700	29.346646	7.574058E-6	20.881853
2675.745545	-3.007700	2.818900	-8.477200	29.297024	1.146834E-5	20.871673
2676.744102	-2.998800	2.818100	-8.450400	29.315298	8.960159E-6	20.888192
2677.745872	-3.032000	2.813700	-8.530500	29.313391	8.927157E-6	20.884374
2678.746384	-3.004200	2.811800	-8.446400	29.242570	8.498126E-6	20.889813
2679.744847	-3.036400	2.808300	-8.525700	29.230362	8.663138E-6	20.878934
2680.746209	-3.001600	2.807600	-8.426700	29.176673	8.201104E-6	20.881254
2681.745341	-2.997900	2.805800	-8.410800	29.154284	7.871079E-6	20.899470
2682.748352	-3.013300	2.800500	-8.437600	29.165949	1.064328E-5	20.882303
2683.745688	-2.982700	2.800000	-8.350900	29.215380	9.059167E-6	20.875690
2684.749165	-3.002400	2.797500	-8.399000	29.266764	8.003089E-6	20.883850
2685.745720	-2.993900	2.793500	-8.362400	29.284519	1.070929E-5	20.880407
2686.747894	-2.940700	2.793100	-8.212100	29.230287	9.917230E-6	20.867480
2687.750841	-2.978300	2.789700	-8.307100	29.243882	1.127033E-5	20.853206
2688.751733	-2.993000	2.785700	-8.337000	29.349444	1.034626E-5	20.878984
2689.748857	-3.012800	2.782900	-8.383400	29.409686	9.059167E-6	20.870001
2690.749137	-2.980500	2.780300	-8.285500	29.430632	1.133633E-5	20.868354
2691.752898	-2.996200	2.776700	-8.318200	29.421198	9.752218E-6	20.884923
2692.753643	-2.982400	2.776200	-8.278600	29.447071	1.117132E-5	20.878285
2693.756292	-2.978400	2.771900	-8.254600	29.460813	1.094031E-5	20.869851
2694.751900	-3.008100	2.768800	-8.328000	29.435979	9.290184E-6	20.864735
2695.753281	-3.016300	2.764900	-8.339000	29.435286	1.054428E-5	20.867356
2696.753158	-3.008800	2.762700	-8.311600	29.475667	1.064328E-5	20.873918
2697.755055	-3.023300	2.758800	-8.339600	29.519315	8.597133E-6	20.862914
2698.758147	-3.029600	2.755400	-8.346600	29.533673	1.018125E-5	20.856526
2699.752665	-3.001600	2.753900	-8.265300	29.524167	9.983235E-6	20.855477
2700.754444	-3.004800	2.750400	-8.263700	29.522458	9.257181E-6	20.871772
2701.755329	-2.988400	2.747600	-8.209700	29.532608	1.028026E-5	20.880106
2702.754533	-3.016900	2.743600	-8.275600	29.551968	1.037926E-5	20.881129
2703.756789	-3.008400	2.741600	-8.246100	29.575709	9.587206E-6	20.858596
2704.759096	-3.005500	2.738500	-8.229100	29.569272	1.044527E-5	20.869176
2705.754010	-3.013300	2.733200	-8.235100	29.546323	9.323186E-6	20.854104
2706.756390	-2.985100	2.730600	-8.149900	29.542239	9.917230E-6	20.826754
2707.756393	-3.009600	2.727100	-8.206600	29.511218	1.087430E-5	20.851434
2708.756389	-3.008900	2.721700	-8.189000	29.506762	8.762145E-6	20.854528
2709.759925	-3.002200	2.720700	-8.167100	29.565509	1.146834E-5	20.869176
2710.756766	-3.003900	2.716600	-8.159900	29.544268	1.100631E-5	20.857248
2711.757271	-3.003900	2.712900	-8.147900	29.505747	1.176537E-5	20.847341
2712.756756	-3.015100	2.709300	-8.168000	29.470640	9.257181E-6	20.828550
2713.755588	-2.993800	2.705400	-8.098000	29.464822	9.818223E-6	20.841652
2714.759985	-3.052300	2.700800	-8.242800	29.513718	8.861152E-6	20.853005
2715.764041	-2.988200	2.697500	-8.060200	29.592343	1.018125E-5	20.863511
2716.757622	-3.007900	2.693400	-8.099400	29.641556	1.024725E-5	20.832992
2717.757398	-3.015000	2.690300	-8.110100	29.657794	9.587206E-6	20.845569
2718.762215	-3.009000	2.683600	-8.073500	29.622692	1.156735E-5	20.849537
2719.756977	-3.011200	2.681000	-8.071900	29.548922	1.044527E-5	20.856249
2720.759499	-2.978300	2.676500	-7.970400	29.609152	1.209539E-5	20.833042
2721.758451	-3.009400	2.671800	-8.039800	29.673067	1.044527E-5	20.844845
2722.760186	-3.017500	2.667700	-8.048500	29.744403	1.087430E-5	20.845169
2723.763034	-2.992300	2.663800	-7.970200	29.710394	9.884227E-6	20.865408
2724.760232	-3.027700	2.658800	-8.049400	29.707251	1.202939E-5	20.849437
2725.764812	-2.990300	2.655100	-7.938500	29.702597	1.173236E-5	20.876038
2726.763321	-3.003600	2.650500	-7.960400	29.683066	9.983235E-6	20.833590
2727.767121	-2.982900	2.645400	-7.890600	29.715419	1.107231E-5	20.840603
2728.763676	-2.980600	2.641100	-7.870900	29.765393	1.295345E-5	20.830297
2729.762740	-2.994000	2.637400	-7.894900	29.777668	1.153435E-5	20.821812
2730.763915	-2.981300	2.631900	-7.845300	29.702646	9.785220E-6	20.835787
2731.771097	-2.984400	2.625800	-7.835100	29.768957	1.143534E-5	20.855701
2732.762761	-2.992900	2.620500	-7.841500	29.770442	1.008224E-5	20.821163
2733.763477	-2.972800	2.615400	-7.773600	29.803310	1.202939E-5	20.819217
2734.764269	-2.986700	2.609900	-7.793600	29.854245	1.123733E-5	20.826953
2735.763584	-2.971100	2.607000	-7.744300	29.871224	1.024725E-5	20.833642
2736.765913	-3.050300	2.598000	-7.923400	29.892903	1.067629E-5	20.823734
2737.772381	-2.988600	2.595800	-7.756500	29.942101	1.103931E-5	20.836361
2738.767565	-2.974900	2.589700	-7.702400	29.921437	1.146834E-5	20.831645
2739.767692	-2.995200	2.583400	-7.737000	29.887112	9.092169E-6	20.825955
2740.766677	-2.990600	2.577500	-7.707600	29.869962	1.090730E-5	20.836162
2741.767974	-2.990000	2.573600	-7.694000	29.777348	9.092169E-6	20.828127
2742.769936	-2.992200	2.566700	-7.678300	29.736731	1.037926E-5	20.824159
2743.767287	-3.015700	2.559000	-7.716400	29.741285	9.818223E-6	20.805991
2744.767265	-3.009000	2.553100	-7.681700	29.743909	1.133633E-5	20.821913
2745.768711	-2.977300	2.549300	-7.588400	29.747844	9.323186E-6	20.842001
2746.767098	-2.983300	2.542300	-7.583400	29.801455	8.927157E-6	20.825881
2747.771662	-2.969100	2.537300	-7.533200	29.809821	1.054428E-5	20.830522
2748.768356	-2.961900	2.530500	-7.494500	29.854147	1.041227E-5	20.799827
2749.776079	-3.002200	2.523200	-7.574000	29.918642	1.127033E-5	20.824559
2750.767641	-2.978800	2.517400	-7.498500	29.947819	9.686213E-6	20.809885
2751.769102	-2.987200	2.511800	-7.502500	29.922056	1.156735E-5	20.814252
2752.772102	-3.018900	2.505000	-7.561400	29.879441	1.090730E-5	20.823435
2753.769632	-2.990800	2.498200	-7.470800	30.010253	8.366116E-6	20.831122
