LabVIEW Measurement	
Writer_Version	2
Reader_Version	2
Separator	Tab
Decimal_Separator	.
Multi_Headings	No
X_Columns	One
Time_Pref	Absolute
Operator	admin
Description	Clolumns are: time, Current, Voltage, Power, Battery Temp, and Chamber Temp
Date	2024/08/16
Time	13:07:17.8513970375061035156
***End_of_Header***	
	
Channels	6						
Samples	1	1	1	1	1	1	
Date	2024/09/05	2024/09/05	2024/09/05	2024/09/05	2024/09/05	2024/09/05	
Time	22:58:13.7600703239440917969	22:58:13.7661471366882324219	22:58:13.7710213661193847656	22:58:13.7442064285278320313	22:58:13.7442064285278320313	22:58:13.7442064285278320313	
X_Dimension	Time	Time	Time	Time	Time	Time	
X0	0.0000000000000000E+0	0.0000000000000000E+0	0.0000000000000000E+0	0.0000000000000000E+0	0.0000000000000000E+0	0.0000000000000000E+0	
Delta_X	1.000000	1.000000	1.000000	1.000000	1.000000	1.000000	
***End_of_Header***							
X_Value	Untitled	Untitled 1	Untitled 2	Untitled 3	Untitled 4	Untitled 5	Comment
0.000000	0.021943	4.086100	0.089844	20.831415	0.000458	20.897319
1.000726	-3.002000	3.921500	-11.772000	20.790987	0.000459	20.881073
2.002288	-3.001800	3.915200	-11.752000	20.796202	0.000458	20.897193
3.005211	-2.994800	3.911600	-11.713000	20.802764	0.000458	20.885737
4.000801	-3.000000	3.908500	-11.724000	20.819634	0.000455	20.885538
5.001015	-2.994900	3.904700	-11.693000	20.825900	0.000456	20.866201
6.001059	-2.979500	3.902900	-11.628000	20.829119	0.000455	20.882696
7.004369	-3.005600	3.900800	-11.723000	20.826922	0.000452	20.888085
8.005504	-2.993500	3.899000	-11.671000	20.825148	0.000456	20.902905
9.002867	-3.011900	3.896800	-11.735000	20.842292	0.000453	20.886385
10.002806	-2.991200	3.896300	-11.654000	20.860609	0.000453	20.901857
11.006657	-2.987800	3.894100	-11.633000	20.869990	0.000454	20.908867
12.003701	-3.021000	3.892000	-11.757000	20.875081	0.000453	20.877926
13.005469	-2.998900	3.891700	-11.669000	20.887683	0.000453	20.889106
14.004291	-2.993800	3.891200	-11.648000	20.883714	0.000452	20.893671
15.003891	-3.001800	3.888700	-11.672000	20.890650	0.000449	20.889228
16.004027	-3.003800	3.888300	-11.678000	20.899660	0.000451	20.884963
17.009953	-2.986300	3.888100	-11.610000	20.911586	0.000451	20.898785
18.003315	-3.012900	3.885700	-11.706000	20.911635	0.000448	20.907843
19.006243	-3.006300	3.885700	-11.680000	20.933320	0.000452	20.894443
20.004664	-2.993800	3.884500	-11.628000	20.939982	0.000449	20.890675
21.003551	-2.995800	3.883800	-11.634000	20.932970	0.000449	20.915428
22.004649	-2.989200	3.883900	-11.608000	20.949489	0.000449	20.902553
23.005312	-3.004500	3.882100	-11.663000	20.967753	0.000448	20.903749
24.009938	-3.004100	3.883000	-11.664000	20.975713	0.000448	20.907917
25.006410	-3.012100	3.880400	-11.686000	20.982072	0.000448	20.909536
26.006982	-2.997400	3.880800	-11.631000	21.006227	0.000447	20.903824
27.005904	-2.984200	3.880200	-11.579000	20.990732	0.000448	20.912981
28.006918	-2.998000	3.878300	-11.626000	21.018926	0.000447	20.895189
29.006734	-2.992500	3.879200	-11.608000	20.994473	0.000447	20.909611
30.012659	-3.008900	3.878000	-11.667000	21.015905	0.000445	20.907339
31.008884	-2.995600	3.878500	-11.617000	21.032075	0.000445	20.897909
32.008384	-2.996100	3.877900	-11.618000	21.033195	0.000445	20.890021
33.010188	-3.020200	3.875400	-11.703000	21.059243	0.000447	20.905642
34.008138	-3.012900	3.875800	-11.677000	21.035290	0.000444	20.894487
35.015327	-3.009800	3.875400	-11.663000	21.071194	0.000446	20.906215
36.010020	-2.983000	3.877000	-11.564000	21.065404	0.000445	20.893313
37.009964	-2.986600	3.876700	-11.577000	21.089505	0.000445	20.884704
38.011621	-2.998600	3.876300	-11.623000	21.086137	0.000446	20.891766
39.012773	-3.006800	3.874300	-11.648000	21.089106	0.000442	20.894261
40.013693	-3.011400	3.874400	-11.666000	21.098011	0.000442	20.890841
41.012424	-3.000600	3.873500	-11.623000	21.098684	0.000444	20.904789
42.011242	-3.009100	3.873300	-11.654000	21.114376	0.000444	20.917639
43.011313	-2.991800	3.873400	-11.588000	21.117667	0.000446	20.896752
44.011256	-2.989300	3.873400	-11.578000	21.115794	0.000443	20.904835
45.012379	-3.001000	3.873900	-11.624000	21.141741	0.000441	20.887168
46.015123	-3.010700	3.871700	-11.655000	21.161424	0.000442	20.891210
47.013631	-3.001100	3.872600	-11.621000	21.171750	0.000444	20.869299
48.013870	-2.994600	3.871500	-11.593000	21.169329	0.000442	20.891056
49.014104	-3.013000	3.871200	-11.663000	21.175716	0.000441	20.893179
50.013051	-3.003000	3.871400	-11.625000	21.174915	0.000444	20.903756
51.016305	-3.010500	3.870000	-11.650000	21.196967	0.000442	20.887885
52.013256	-3.005700	3.870600	-11.633000	21.208441	0.000441	20.896990
53.012904	-2.986300	3.871500	-11.561000	21.225578	0.000441	20.898487
54.014047	-3.023600	3.869400	-11.699000	21.228621	0.000442	20.881618
55.013223	-2.999400	3.869700	-11.605000	21.227249	0.000440	20.885460
56.017058	-3.009200	3.869800	-11.645000	21.237002	0.000443	20.900905
57.021980	-3.002200	3.868600	-11.614000	21.252390	0.000441	20.881688
58.014113	-3.007700	3.869000	-11.636000	21.235054	0.000444	20.901802
59.014925	-2.994300	3.868500	-11.582000	21.267632	0.000443	20.885082
60.016943	-3.026100	3.867600	-11.703000	21.276436	0.000443	20.877769
61.020183	-2.995500	3.869300	-11.590000	21.250467	0.000442	20.875024
62.019728	-3.001900	3.868700	-11.612000	21.285888	0.000442	20.870156
63.017951	-2.980500	3.867900	-11.527000	21.304971	0.000443	20.875022
64.016917	-2.981100	3.867900	-11.529000	21.325598	0.000443	20.869581
65.021113	-2.992800	3.868700	-11.577000	21.337147	0.000443	20.887771
66.020164	-3.003100	3.867900	-11.614000	21.329237	0.000444	20.881755
67.021729	-3.020600	3.867300	-11.680000	21.328564	0.000441	20.895306
68.018023	-3.008300	3.866700	-11.632000	21.365206	0.000444	20.869852
69.018981	-2.988900	3.866900	-11.556000	21.363931	0.000444	20.865258
70.018855	-2.990400	3.867200	-11.563000	21.355301	0.000443	20.887442
71.019639	-2.987700	3.865500	-11.548000	21.393488	0.000444	20.866380
72.018881	-3.002900	3.864700	-11.604000	21.384755	0.000442	20.889884
73.023376	-3.005500	3.865700	-11.616000	21.387174	0.000442	20.871917
74.020841	-3.002400	3.866500	-11.608000	21.395953	0.000443	20.876907
75.019251	-3.020400	3.864700	-11.672000	21.416652	0.000443	20.867271
76.026154	-2.999900	3.864700	-11.593000	21.412786	0.000441	20.864826
77.022186	-3.023700	3.865100	-11.686000	21.415778	0.000445	20.861656
78.025714	-2.999400	3.865000	-11.592000	21.443237	0.000444	20.867319
79.022922	-2.989500	3.865600	-11.555000	21.439744	0.000443	20.888004
80.023038	-3.010500	3.863600	-11.630000	21.452614	0.000442	20.875278
81.022160	-3.005100	3.864500	-11.612000	21.444732	0.000445	20.868814
82.023022	-2.988400	3.864200	-11.547000	21.459569	0.000443	20.867065
83.025227	-3.009800	3.865300	-11.633000	21.459069	0.000444	20.859926
84.025144	-3.008000	3.864600	-11.624000	21.492290	0.000444	20.877044
85.024626	-3.000100	3.864800	-11.594000	21.477099	0.000444	20.890767
86.024820	-2.990200	3.864600	-11.555000	21.509095	0.000445	20.867781
87.025731	-2.987600	3.863600	-11.542000	21.510191	0.000443	20.874568
88.026024	-3.004600	3.863300	-11.607000	21.509341	0.000445	20.876562
89.028549	-3.005200	3.862500	-11.607000	21.530114	0.000444	20.892132
90.028244	-3.012000	3.863400	-11.634000	21.545304	0.000445	20.856599
91.029715	-3.014300	3.863300	-11.644000	21.525399	0.000446	20.851854
92.030874	-3.008300	3.863100	-11.621000	21.542706	0.000446	20.867749
93.028382	-2.985300	3.863900	-11.534000	21.549538	0.000444	20.856095
94.030304	-2.988300	3.863800	-11.545000	21.565498	0.000444	20.858788
95.028859	-3.013700	3.861600	-11.638000	21.571708	0.000444	20.860735
96.029405	-2.980400	3.862100	-11.510000	21.586995	0.000445	20.839523
97.047883	-2.993900	3.863200	-11.565000	21.590159	0.000446	20.876826
98.032232	-3.002300	3.862800	-11.596000	21.595671	0.000445	20.871911
99.034065	-3.027800	3.860900	-11.689000	21.604297	0.000445	20.884336
100.033305	-3.021400	3.861800	-11.666000	21.608063	0.000446	20.873406
101.031977	-3.007000	3.861400	-11.610000	21.620183	0.000446	20.851397
102.034907	-2.986300	3.862200	-11.532000	21.632250	0.000446	20.853516
103.033582	-3.006600	3.859700	-11.604000	21.651426	0.000445	20.862748
104.034320	-2.996900	3.861000	-11.570000	21.635617	0.000443	20.860203
105.033513	-3.006700	3.860400	-11.606000	21.659930	0.000447	20.864145
106.033876	-3.015000	3.859800	-11.636000	21.659133	0.000447	20.858133
107.034718	-2.976500	3.860500	-11.489000	21.665590	0.000448	20.875974
108.033553	-2.990700	3.861100	-11.546000	21.674992	0.000444	20.854563
109.037180	-2.998300	3.860400	-11.574000	21.682248	0.000447	20.851868
110.036435	-3.020300	3.859600	-11.656000	21.690627	0.000446	20.839865
111.036347	-2.985100	3.860600	-11.524000	21.683793	0.000448	20.846777
112.036469	-2.994400	3.859000	-11.555000	21.737707	0.000447	20.854739
113.034446	-2.993400	3.861200	-11.557000	21.710952	0.000448	20.836499
114.037574	-3.006100	3.859000	-11.599000	21.737831	0.000445	20.874303
115.038413	-3.017000	3.859300	-11.643000	21.740127	0.000449	20.879445
116.035983	-3.014900	3.860400	-11.638000	21.732247	0.000449	20.860180
117.041549	-2.989200	3.858700	-11.533000	21.765685	0.000448	20.839594
118.037965	-2.975200	3.859900	-11.483000	21.747260	0.000449	20.857662
119.043029	-3.006800	3.858800	-11.601000	21.778902	0.000449	20.853296
120.038743	-2.989200	3.857600	-11.530000	21.772245	0.000448	20.849952
121.038478	-2.999300	3.858600	-11.572000	21.791919	0.000447	20.874383
122.041339	-2.987700	3.858400	-11.526000	21.785063	0.000449	20.848082
123.040691	-2.995900	3.858000	-11.557000	21.792792	0.000448	20.849180
124.043543	-2.995100	3.859000	-11.557000	21.804362	0.000448	20.838001
125.042410	-3.003600	3.857100	-11.584000	21.811220	0.000448	20.857666
126.042206	-3.010400	3.856900	-11.610000	21.831018	0.000452	20.854722
127.041576	-3.001800	3.857600	-11.578000	21.834683	0.000450	20.841322
128.042039	-2.984200	3.857800	-11.511000	21.819400	0.000451	20.833137
129.042899	-2.993600	3.856900	-11.545000	21.841665	0.000452	20.861111
130.047247	-3.020300	3.855900	-11.644000	21.829050	0.000453	20.829520
131.044806	-3.021600	3.856400	-11.652000	21.847103	0.000451	20.850908
132.042376	-3.001900	3.856500	-11.576000	21.876749	0.000454	20.851657
133.045939	-2.966700	3.857700	-11.444000	21.867076	0.000451	20.833915
134.047781	-2.994600	3.855500	-11.544000	21.898541	0.000454	20.845970
135.049075	-3.001500	3.854700	-11.569000	21.908664	0.000452	20.831921
136.044537	-2.985200	3.855400	-11.508000	21.901832	0.000455	20.827453
137.044520	-2.996900	3.856500	-11.557000	21.889890	0.000454	20.830199
138.045588	-2.993500	3.855000	-11.538000	21.915544	0.000452	20.856351
139.045694	-3.003800	3.856400	-11.582000	21.906447	0.000452	20.845348
140.048055	-3.018200	3.852600	-11.627000	21.905450	0.000454	20.842928
141.046685	-3.007500	3.853900	-11.590000	21.939878	0.000454	20.848941
142.047427	-3.003400	3.854100	-11.575000	21.951099	0.000454	20.850690
143.046068	-2.978700	3.854800	-11.482000	21.945217	0.000456	20.835793
144.046741	-2.978700	3.855000	-11.483000	21.940105	0.000455	20.825461
145.047234	-2.999100	3.853000	-11.554000	21.963963	0.000454	20.832747
146.049518	-2.982300	3.855100	-11.496000	21.977054	0.000454	20.836842
147.047695	-2.996500	3.853700	-11.547000	21.982089	0.000454	20.841882
148.046644	-3.013300	3.852400	-11.607000	21.993310	0.000454	20.827985
149.048862	-2.990500	3.854700	-11.527000	22.015547	0.000456	20.827960
150.046226	-2.999200	3.853100	-11.556000	22.023001	0.000456	20.830206
151.047975	-3.000900	3.853700	-11.564000	22.008491	0.000459	20.833225
152.046235	-2.999600	3.852100	-11.553000	22.009987	0.000457	20.809593
153.046667	-3.013600	3.852200	-11.608000	22.012332	0.000461	20.838018
154.048371	-3.019800	3.852500	-11.633000	22.014328	0.000458	20.828163
155.047464	-3.022400	3.852800	-11.644000	22.035468	0.000461	20.822299
156.047635	-3.001000	3.852600	-11.561000	22.052521	0.000459	20.820879
157.051246	-3.016500	3.852100	-11.619000	22.063213	0.000460	20.820202
158.046885	-3.025200	3.852400	-11.653000	22.047560	0.000460	20.809273
159.046779	-3.012800	3.851700	-11.604000	22.038238	0.000460	20.818907
160.051108	-3.004300	3.851100	-11.569000	22.067154	0.000459	20.832208
161.046719	-3.022100	3.850900	-11.637000	22.063341	0.000462	20.826968
162.051460	-3.012600	3.852200	-11.604000	22.091535	0.000460	20.786441
163.049477	-3.023000	3.850200	-11.638000	22.106839	0.000461	20.823574
164.048142	-3.015500	3.850700	-11.611000	22.123893	0.000462	20.817888
165.050314	-2.988900	3.851200	-11.510000	22.135332	0.000462	20.815116
166.051990	-3.001900	3.850300	-11.558000	22.090089	0.000459	20.811547
167.053144	-2.998500	3.850600	-11.545000	22.112901	0.000463	20.827272
168.052133	-3.015800	3.850600	-11.612000	22.145305	0.000463	20.822729
169.051783	-3.013300	3.850000	-11.601000	22.136507	0.000463	20.814870
170.054683	-2.986800	3.850000	-11.498000	22.164672	0.000462	20.805136
171.053339	-3.005400	3.850000	-11.570000	22.164672	0.000463	20.823628
172.053838	-3.010200	3.848600	-11.584000	22.171228	0.000463	20.824976
173.054919	-3.012200	3.848400	-11.591000	22.200067	0.000464	20.818762
174.058742	-2.994800	3.848000	-11.523000	22.191369	0.000464	20.814321
175.055064	-2.981500	3.849000	-11.475000	22.186157	0.000464	20.801991
176.056092	-3.010400	3.848300	-11.584000	22.222773	0.000465	20.812099
177.055134	-2.990800	3.847500	-11.506000	22.220329	0.000465	20.805385
178.059488	-2.996200	3.848200	-11.529000	22.222149	0.000466	20.792508
179.054526	-2.999000	3.847900	-11.539000	22.224591	0.000466	20.808704
180.055604	-3.007200	3.847300	-11.568000	22.224442	0.000466	20.782950
181.055314	-3.028500	3.846100	-11.648000	22.239921	0.000466	20.823578
182.055318	-3.010600	3.848100	-11.584000	22.226984	0.000468	20.793556
183.057148	-3.018700	3.846700	-11.611000	22.244553	0.000470	20.811621
184.056747	-2.999400	3.847500	-11.540000	22.264169	0.000468	20.815141
185.057676	-2.995300	3.847000	-11.522000	22.249514	0.000466	20.818485
186.056427	-3.020600	3.846100	-11.617000	22.279596	0.000471	20.811621
187.058626	-3.009900	3.845400	-11.573000	22.290787	0.000467	20.800542
188.055825	-3.000700	3.845200	-11.537000	22.292454	0.000469	20.790831
189.062078	-3.018900	3.846500	-11.611000	22.308531	0.000468	20.796972
190.056589	-3.005600	3.846400	-11.560000	22.321691	0.000470	20.817735
191.056397	-3.006600	3.844800	-11.559000	22.303047	0.000471	20.801913
192.057544	-3.005200	3.846000	-11.557000	22.322187	0.000471	20.815862
193.058243	-2.990800	3.846800	-11.504000	22.311023	0.000469	20.797097
194.061051	-2.968500	3.845600	-11.415000	22.353462	0.000471	20.799764
195.061002	-3.021100	3.844000	-11.612000	22.375841	0.000470	20.807948
196.059067	-2.997800	3.844700	-11.525000	22.328591	0.000471	20.812791
197.058416	-3.013600	3.844000	-11.583000	22.360366	0.000469	20.791978
198.058747	-2.981200	3.845200	-11.462000	22.367020	0.000470	20.796745
199.057276	-2.998200	3.843800	-11.523000	22.362633	0.000471	20.804679
200.061537	-2.996000	3.843600	-11.514000	22.336093	0.000472	20.782845
201.061783	-2.999800	3.844400	-11.531000	22.384290	0.000472	20.796494
202.060541	-2.988100	3.843300	-11.483000	22.373949	0.000473	20.803683
203.063911	-2.992100	3.843800	-11.500000	22.362235	0.000472	20.796695
204.066394	-2.983200	3.843100	-11.464000	22.393364	0.000472	20.789935
205.066230	-2.994300	3.844200	-11.510000	22.391319	0.000473	20.811120
206.063261	-3.015700	3.842400	-11.587000	22.414370	0.000472	20.806228
207.067075	-2.976100	3.843700	-11.439000	22.418135	0.000473	20.803834
208.063289	-3.001200	3.843400	-11.533000	22.409240	0.000474	20.796349
209.063606	-3.013100	3.841000	-11.573000	22.464487	0.000474	20.781975
210.064696	-2.995500	3.841700	-11.507000	22.453722	0.000472	20.766926
211.065364	-2.970400	3.842900	-11.414000	22.479338	0.000475	20.785942
212.065008	-3.000700	3.842000	-11.528000	22.466034	0.000474	20.792059
213.064268	-3.022700	3.839800	-11.606000	22.465560	0.000478	20.780205
214.071424	-2.978600	3.842800	-11.445000	22.473611	0.000474	20.805337
215.068998	-2.998900	3.840000	-11.515000	22.494418	0.000474	20.803415
216.070640	-3.027300	3.839900	-11.623000	22.503389	0.000478	20.770200
217.068117	-2.979700	3.841000	-11.443000	22.472689	0.000480	20.772645
218.086493	-3.019300	3.839000	-11.590000	22.519958	0.000478	20.787742
219.067985	-3.017200	3.839900	-11.585000	22.522103	0.000479	20.768553
220.068019	-2.996600	3.840300	-11.507000	22.506430	0.000478	20.790315
221.067818	-3.001400	3.838600	-11.520000	22.489289	0.000479	20.794485
222.067487	-3.003100	3.839500	-11.529000	22.482410	0.000480	20.776217
223.067563	-2.997800	3.839000	-11.508000	22.535010	0.000479	20.790963
224.068080	-2.996900	3.838800	-11.504000	22.550786	0.000481	20.769305
225.069298	-3.018100	3.838100	-11.583000	22.543360	0.000479	20.774196
226.068262	-3.014300	3.838500	-11.569000	22.537853	0.000482	20.771050
227.071445	-2.987400	3.837700	-11.463000	22.584798	0.000482	20.773972
228.069285	-2.994900	3.837800	-11.494000	22.578021	0.000483	20.770030
229.070949	-3.015700	3.837600	-11.572000	22.598651	0.000484	20.776941
230.070250	-2.996700	3.837600	-11.499000	22.598601	0.000483	20.784952
231.069209	-3.006200	3.836400	-11.531000	22.593468	0.000484	20.782182
232.074215	-3.003600	3.837900	-11.527000	22.602788	0.000483	20.791516
233.070380	-3.013800	3.836800	-11.562000	22.610040	0.000485	20.778865
234.071098	-3.010100	3.835800	-11.545000	22.604857	0.000483	20.778889
235.071983	-3.010900	3.834900	-11.546000	22.602515	0.000484	20.764689
236.072978	-3.005500	3.835800	-11.528000	22.619133	0.000483	20.778964
237.075155	-3.012500	3.836300	-11.555000	22.633337	0.000485	20.771854
238.075803	-2.998600	3.836400	-11.503000	22.661366	0.000485	20.762944
239.073902	-3.000300	3.834800	-11.504000	22.651950	0.000486	20.773901
240.083219	-3.003900	3.835700	-11.521000	22.684512	0.000486	20.776171
241.077806	-3.050300	3.833800	-11.693000	22.670160	0.000485	20.777916
242.075286	-3.001900	3.835400	-11.513000	22.654565	0.000487	20.751864
243.076548	-3.014200	3.833600	-11.554000	22.653168	0.000484	20.767534
244.073845	-2.989800	3.835800	-11.468000	22.646644	0.000486	20.784233
245.074817	-2.987200	3.835500	-11.457000	22.679506	0.000490	20.773052
246.079043	-3.015900	3.834300	-11.563000	22.697992	0.000489	20.789673
247.077405	-2.987200	3.835200	-11.456000	22.691615	0.000488	20.794191
248.081575	-3.030300	3.833800	-11.616000	22.699712	0.000490	20.776222
249.077964	-3.012300	3.831800	-11.542000	22.715107	0.000490	20.766514
250.077600	-3.005800	3.834600	-11.525000	22.715957	0.000491	20.808142
251.077967	-2.964800	3.834700	-11.368000	22.713538	0.000490	20.776322
252.078481	-3.005600	3.833300	-11.520000	22.719843	0.000490	20.775525
253.079469	-3.006700	3.832400	-11.522000	22.732873	0.000489	20.760128
254.081638	-3.006600	3.833800	-11.526000	22.739323	0.000491	20.788399
255.077867	-3.012000	3.832400	-11.543000	22.719940	0.000491	20.789847
256.079097	-3.013100	3.831800	-11.544000	22.735114	0.000494	20.778494
257.083411	-3.007100	3.832600	-11.525000	22.733169	0.000492	20.764217
258.079052	-3.023100	3.831800	-11.583000	22.759154	0.000493	20.776496
259.081931	-2.977400	3.831900	-11.408000	22.760226	0.000492	20.753388
260.081138	-3.021600	3.830700	-11.574000	22.753523	0.000492	20.774649
261.078358	-2.982600	3.832500	-11.430000	22.761543	0.000492	20.758975
262.078654	-2.979400	3.830900	-11.413000	22.793356	0.000495	20.781360
263.078170	-2.978500	3.831800	-11.412000	22.813586	0.000494	20.767961
264.081493	-2.986700	3.830800	-11.441000	22.839244	0.000491	20.768060
265.083770	-3.023300	3.830600	-11.580000	22.860468	0.000494	20.773676
266.078466	-3.025500	3.830700	-11.589000	22.876459	0.000493	20.774523
267.079120	-3.001100	3.830000	-11.494000	22.883333	0.000494	20.783780
268.082672	-3.026400	3.828700	-11.586000	22.861762	0.000494	20.769282
269.080354	-3.008700	3.830300	-11.524000	22.865299	0.000494	20.789895
270.084077	-3.028800	3.829000	-11.596000	22.827211	0.000494	20.775920
271.080954	-3.003300	3.829600	-11.500000	22.837277	0.000493	20.767986
272.082756	-2.988600	3.829600	-11.444000	22.872921	0.000495	20.779513
273.084309	-2.996900	3.829200	-11.475000	22.878576	0.000494	20.785652
274.083060	-3.003500	3.828100	-11.497000	22.906303	0.000495	20.771704
275.085777	-3.001000	3.829900	-11.493000	22.871352	0.000497	20.768932
276.082558	-3.000300	3.828500	-11.486000	22.911507	0.000495	20.766961
277.084588	-2.998700	3.828300	-11.478000	22.895393	0.000495	20.794913
278.085149	-2.999500	3.826900	-11.478000	22.908645	0.000496	20.787327
279.085149	-3.006800	3.827000	-11.506000	22.902190	0.000496	20.773748
280.085363	-2.995100	3.827000	-11.461000	22.929343	0.000497	20.777243
281.089187	-2.978200	3.827800	-11.399000	22.920326	0.000499	20.798081
282.084445	-3.015100	3.827100	-11.538000	22.937613	0.000499	20.780788
283.085719	-3.010500	3.825000	-11.514000	22.931736	0.000499	20.789124
284.090110	-2.996400	3.827300	-11.467000	22.939928	0.000499	20.799703
285.085764	-3.013500	3.825400	-11.527000	22.934100	0.000500	20.789122
286.086821	-3.004000	3.824900	-11.489000	22.963392	0.000499	20.782908
287.086967	-3.009200	3.824500	-11.508000	22.959681	0.000499	20.798156
288.094452	-3.010600	3.825400	-11.515000	22.945832	0.000501	20.798506
289.086659	-2.994600	3.826900	-11.459000	22.963043	0.000499	20.801051
290.087541	-2.980600	3.825400	-11.401000	22.953979	0.000500	20.756407
291.090144	-3.008600	3.825300	-11.507000	23.010070	0.000500	20.796011
292.087799	-3.005700	3.825100	-11.496000	23.010020	0.000500	20.794539
293.089748	-2.993000	3.825400	-11.448000	23.020580	0.000499	20.801326
294.087786	-2.990800	3.824600	-11.438000	23.007755	0.000500	20.783260
295.089313	-3.002000	3.825000	-11.482000	23.023099	0.000502	20.791522
296.087293	-2.993900	3.824100	-11.448000	23.063970	0.000502	20.789799
297.090188	-3.010400	3.823600	-11.510000	23.066511	0.000502	20.803251
298.087682	-3.022100	3.822300	-11.550000	23.057245	0.000502	20.792545
299.087156	-2.999900	3.823600	-11.469000	23.057969	0.000505	20.779045
300.087308	-2.961300	3.823500	-11.322000	23.042629	0.000502	20.804926
301.087482	-2.970200	3.823500	-11.355000	23.050424	0.000503	20.791399
302.088826	-3.006500	3.821900	-11.488000	23.071642	0.000505	20.799384
303.087868	-2.980400	3.821700	-11.389000	23.041532	0.000505	20.759730
304.086479	-3.006100	3.821700	-11.488000	23.034285	0.000505	20.787082
305.089122	-2.985200	3.821900	-11.408000	23.032342	0.000506	20.809792
306.090013	-3.015200	3.819700	-11.515000	23.031421	0.000504	20.786109
307.088765	-3.009300	3.820500	-11.497000	23.056751	0.000505	20.787308
308.090086	-3.015700	3.820800	-11.521000	23.087136	0.000506	20.778873
309.090280	-3.018800	3.820800	-11.534000	23.074756	0.000507	20.774529
310.089624	-3.016200	3.819400	-11.519000	23.094058	0.000507	20.807620
311.092151	-3.007200	3.821000	-11.489000	23.097869	0.000507	20.799110
312.093410	-3.007900	3.818300	-11.484000	23.121253	0.000508	20.804525
313.093429	-3.028500	3.819400	-11.566000	23.094581	0.000507	20.791074
314.092840	-3.013200	3.820000	-11.509000	23.108103	0.000508	20.813633
315.094454	-2.989800	3.820000	-11.419000	23.128076	0.000508	20.800930
316.094019	-3.005100	3.818000	-11.473000	23.117840	0.000512	20.794466
317.092734	-3.004200	3.820000	-11.475000	23.148473	0.000510	20.806670
318.097106	-3.006700	3.818300	-11.480000	23.179898	0.000508	20.802599
319.097355	-3.002400	3.819000	-11.466000	23.171109	0.000511	20.802800
320.095026	-3.014800	3.817600	-11.508000	23.178677	0.000509	20.798531
321.094453	-2.997300	3.818100	-11.442000	23.173476	0.000512	20.797586
322.105493	-3.020700	3.817700	-11.531000	23.172875	0.000509	20.817847
323.096859	-2.998400	3.817400	-11.445000	23.189360	0.000512	20.816822
324.101252	-2.988100	3.816400	-11.403000	23.222007	0.000509	20.795011
325.096087	-3.019500	3.815700	-11.521000	23.211573	0.000512	20.786451
326.101299	-3.010000	3.816800	-11.487000	23.228108	0.000513	20.811556
327.098825	-3.010400	3.815500	-11.485000	23.229003	0.000511	20.819091
328.097682	-2.994500	3.816300	-11.427000	23.228305	0.000512	20.816969
329.100958	-3.015000	3.815300	-11.503000	23.243819	0.000511	20.813550
330.098455	-3.007800	3.815600	-11.476000	23.228080	0.000512	20.830968
331.099325	-2.994600	3.815900	-11.426000	23.235749	0.000514	20.811627
332.099424	-3.012500	3.814700	-11.490000	23.257711	0.000513	20.808981
333.099724	-3.016400	3.815200	-11.507000	23.270659	0.000512	20.803939
334.100677	-2.999500	3.815000	-11.442000	23.256092	0.000512	20.798823
335.101000	-3.000500	3.815900	-11.449000	23.289708	0.000511	20.785097
336.102331	-3.005700	3.814100	-11.464000	23.285076	0.000512	20.804163
337.100263	-3.006300	3.813400	-11.463000	23.297251	0.000513	20.823003
338.110265	-3.011400	3.814500	-11.486000	23.310870	0.000514	20.791607
339.102194	-3.003800	3.814000	-11.455000	23.304371	0.000513	20.815439
340.104527	-2.996000	3.812800	-11.422000	23.298320	0.000513	20.805582
341.101025	-3.001800	3.813400	-11.446000	23.277676	0.000513	20.801488
342.103686	-2.979300	3.812300	-11.357000	23.306534	0.000515	20.812866
343.104771	-2.978700	3.812200	-11.355000	23.273988	0.000511	20.827190
344.103256	-3.009300	3.811700	-11.469000	23.306160	0.000514	20.811543
345.110442	-3.014800	3.810400	-11.487000	23.324361	0.000517	20.826465
346.102940	-3.009400	3.811500	-11.469000	23.328320	0.000514	20.818104
347.103773	-3.003600	3.811300	-11.447000	23.334022	0.000517	20.818129
348.102674	-3.014200	3.810200	-11.483000	23.329214	0.000516	20.810941
349.106059	-2.993800	3.810800	-11.408000	23.312530	0.000515	20.819823
350.108113	-2.993000	3.810900	-11.406000	23.308373	0.000513	20.837468
351.106940	-3.006500	3.809600	-11.453000	23.313303	0.000515	20.818701
352.105517	-2.994600	3.810100	-11.409000	23.340643	0.000515	20.826188
353.105577	-3.008400	3.810400	-11.462000	23.365717	0.000515	20.837567
354.105161	-2.990600	3.809400	-11.391000	23.365492	0.000516	20.825962
355.111598	-3.011400	3.810400	-11.474000	23.373385	0.000517	20.829606
356.105794	-3.003600	3.808700	-11.439000	23.363372	0.000516	20.821467
357.105026	-2.998800	3.808700	-11.420000	23.422531	0.000518	20.845199
358.104627	-3.011700	3.808400	-11.469000	23.367506	0.000518	20.827981
359.104123	-2.999700	3.809000	-11.425000	23.366484	0.000517	20.834068
360.106744	-3.009800	3.807900	-11.459000	23.414165	0.000517	20.853408
361.109591	-2.999600	3.808400	-11.423000	23.422979	0.000519	20.823838
362.106889	-3.005600	3.808100	-11.444000	23.447851	0.000516	20.833594
363.106072	-3.012300	3.807400	-11.468000	23.464655	0.000520	20.839532
364.110518	-3.003200	3.806600	-11.431000	23.428107	0.000520	20.822813
365.108285	-2.995400	3.808300	-11.406000	23.435126	0.000520	20.819892
366.108572	-3.003000	3.807800	-11.433000	23.458456	0.000519	20.839009
367.108453	-2.996700	3.806400	-11.406000	23.454023	0.000520	20.845945
368.107996	-3.009300	3.805800	-11.451000	23.489451	0.000521	20.842576
369.108997	-3.017900	3.805500	-11.483000	23.474240	0.000521	20.843450
370.108936	-2.996500	3.805100	-11.401000	23.505658	0.000520	20.836537
371.111723	-3.021500	3.805000	-11.496000	23.501550	0.000520	20.847117
372.106540	-3.016700	3.804400	-11.476000	23.481311	0.000521	20.849589
373.107839	-3.008300	3.806100	-11.449000	23.474314	0.000523	20.841154
374.109311	-3.008600	3.803500	-11.442000	23.470082	0.000520	20.845446
375.110003	-2.996500	3.805800	-11.402000	23.477029	0.000520	20.852409
376.109038	-2.983200	3.805800	-11.352000	23.500406	0.000521	20.855926
377.110143	-2.999600	3.804700	-11.412000	23.498115	0.000520	20.848415
378.108635	-2.982800	3.804300	-11.347000	23.512805	0.000520	20.852235
379.109102	-3.003200	3.804400	-11.424000	23.521045	0.000522	20.856701
380.112418	-3.011100	3.802600	-11.449000	23.537553	0.000521	20.847170
381.110139	-2.990600	3.803400	-11.374000	23.501056	0.000522	20.859897
382.113786	-2.985800	3.803400	-11.356000	23.486518	0.000521	20.858601
383.110266	-3.006900	3.801600	-11.430000	23.494012	0.000521	20.846673
384.112917	-3.006900	3.802200	-11.432000	23.496053	0.000521	20.845400
385.111495	-3.001500	3.802400	-11.411000	23.536584	0.000524	20.849518
386.112032	-2.999900	3.802700	-11.407000	23.547291	0.000523	20.873052
387.114461	-2.997000	3.800600	-11.389000	23.554512	0.000523	20.837619
388.116301	-3.001500	3.801900	-11.410000	23.573531	0.000524	20.864269
389.112822	-2.999400	3.801400	-11.401000	23.586975	0.000524	20.851195
390.113310	-2.980700	3.802400	-11.333000	23.572587	0.000526	20.861901
391.118066	-3.023000	3.799800	-11.485000	23.590612	0.000523	20.874754
392.113826	-2.987000	3.800100	-11.350000	23.590362	0.000522	20.861702
393.116928	-2.993300	3.799200	-11.371000	23.583842	0.000522	20.850898
394.113370	-2.989300	3.800600	-11.360000	23.588101	0.000525	20.862279
395.115339	-2.989900	3.800100	-11.360000	23.600000	0.000525	20.831061
396.113989	-2.988900	3.799700	-11.356000	23.616304	0.000524	20.843612
397.114556	-2.985100	3.800200	-11.343000	23.590067	0.000526	20.848130
398.117012	-2.989900	3.799300	-11.359000	23.612423	0.000526	20.865325
399.115644	-2.998700	3.798000	-11.389000	23.613169	0.000525	20.865124
400.115345	-2.990400	3.800100	-11.364000	23.679034	0.000527	20.869990
401.116032	-3.001200	3.798200	-11.398000	23.667832	0.000528	20.867768
402.116904	-3.014300	3.797700	-11.446000	23.692975	0.000527	20.864052
403.120205	-3.000800	3.797500	-11.394000	23.708210	0.000528	20.854670
404.120203	-2.978700	3.797200	-11.310000	23.710424	0.000527	20.881070
405.118953	-2.979600	3.798100	-11.315000	23.731330	0.000529	20.850824
406.119466	-3.029900	3.796300	-11.501000	23.700166	0.000526	20.867942
407.119759	-3.003300	3.796700	-11.401000	23.700664	0.000529	20.874131
408.118099	-3.007300	3.797600	-11.420000	23.670371	0.000529	20.867468
409.120410	-3.020000	3.795200	-11.461000	23.717964	0.000529	20.860656
410.118749	-3.000500	3.795600	-11.388000	23.753085	0.000528	20.863625
411.118583	-2.978800	3.795600	-11.305000	23.754950	0.000528	20.876400
412.120680	-2.999200	3.795800	-11.383000	23.757190	0.000531	20.870586
413.119791	-2.996800	3.795100	-11.372000	23.754948	0.000530	20.874501
414.123027	-3.002000	3.795300	-11.391000	23.781108	0.000532	20.865170
415.118888	-2.992300	3.795600	-11.357000	23.748651	0.000529	20.867240
416.119688	-3.005100	3.793600	-11.399000	23.716244	0.000531	20.874104
417.119270	-3.005700	3.793600	-11.402000	23.744643	0.000529	20.859429
418.120151	-2.990500	3.793800	-11.345000	23.765550	0.000531	20.874226
419.121359	-2.995600	3.793900	-11.365000	23.781854	0.000531	20.869710
420.120114	-3.027900	3.791800	-11.481000	23.747080	0.000532	20.876570
421.119741	-3.018800	3.793900	-11.452000	23.750541	0.000530	20.875773
422.119506	-2.999100	3.793000	-11.374000	23.774585	0.000531	20.876646
423.119944	-2.991900	3.793300	-11.348000	23.782026	0.000531	20.878891
424.119982	-3.017500	3.792200	-11.441000	23.790862	0.000531	20.891543
425.121804	-2.987400	3.791900	-11.327000	23.809505	0.000533	20.893640
426.121439	-2.986300	3.791500	-11.320000	23.798478	0.000532	20.889696
427.122398	-3.002300	3.791400	-11.383000	23.838025	0.000529	20.888098
428.121256	-2.994000	3.791300	-11.350000	23.813061	0.000532	20.898628
429.120355	-3.007800	3.790200	-11.400000	23.764230	0.000533	20.866740
430.125394	-2.999500	3.791800	-11.372000	23.763632	0.000532	20.895060
431.123230	-2.987700	3.790400	-11.324000	23.756889	0.000533	20.883559
432.122088	-3.005000	3.790200	-11.388000	23.785759	0.000532	20.883108
433.123187	-3.011400	3.790600	-11.414000	23.803407	0.000531	20.920714
434.123478	-3.005200	3.789700	-11.388000	23.771101	0.000534	20.889748
435.125427	-3.004300	3.789900	-11.384000	23.789869	0.000531	20.887228
436.127749	-3.007900	3.788000	-11.392000	23.784817	0.000534	20.890698
437.123701	-3.002700	3.787700	-11.372000	23.806546	0.000536	20.880717
438.125069	-2.993600	3.788300	-11.339000	23.822203	0.000532	20.887880
439.132215	-3.019200	3.787700	-11.435000	23.829670	0.000532	20.918598
440.125147	-2.962100	3.787900	-11.219000	23.863917	0.000535	20.885137
441.127869	-2.987100	3.788500	-11.316000	23.870787	0.000534	20.901507
442.124686	-2.978100	3.788800	-11.282000	23.884651	0.000533	20.877478
443.125671	-3.007600	3.786700	-11.388000	23.847344	0.000536	20.892225
444.128379	-2.998200	3.787400	-11.354000	23.851104	0.000533	20.906426
445.126001	-2.995300	3.786500	-11.341000	23.832414	0.000533	20.898118
446.129178	-3.010000	3.786500	-11.397000	23.836021	0.000532	20.902683
447.127139	-3.004000	3.785600	-11.370000	23.822935	0.000532	20.887192
448.127356	-3.016300	3.784900	-11.416000	23.817733	0.000533	20.901415
449.129770	-3.017300	3.785700	-11.422000	23.823982	0.000532	20.896776
450.126779	-3.033500	3.783500	-11.477000	23.845685	0.000532	20.891985
451.128191	-3.020000	3.784000	-11.427000	23.862361	0.000532	20.903964
452.131980	-3.001700	3.783800	-11.357000	23.886329	0.000532	20.907608
453.127021	-2.992300	3.785600	-11.326000	23.890932	0.000534	20.903688
454.127749	-3.010500	3.783900	-11.390000	23.903754	0.000535	20.909907
455.128149	-2.998200	3.783700	-11.343000	23.897359	0.000535	20.898754
456.127370	-2.989500	3.783900	-11.310000	23.897334	0.000534	20.899678
457.134255	-3.012100	3.783500	-11.394000	23.930956	0.000535	20.884082
458.128916	-3.012900	3.782500	-11.396000	23.950369	0.000536	20.898806
459.128894	-2.983800	3.784000	-11.290000	23.904479	0.000537	20.893092
460.128062	-2.973200	3.781700	-11.242000	23.880142	0.000533	20.927954
461.131602	-2.962800	3.784400	-11.212000	23.910679	0.000534	20.897413
462.127845	-2.998200	3.782600	-11.340000	23.925338	0.000536	20.910214
463.131260	-2.993700	3.782500	-11.323000	23.938926	0.000538	20.906771
464.134610	-2.977800	3.780400	-11.256000	23.966152	0.000537	20.890926
465.132735	-3.010900	3.779300	-11.379000	23.966674	0.000536	20.894769
466.130906	-2.941100	3.782800	-11.124000	23.987606	0.000534	20.899164
467.133854	-2.991600	3.781400	-11.312000	23.983624	0.000535	20.917453
468.133305	-3.015400	3.780400	-11.398000	23.975487	0.000535	20.911665
469.132684	-2.985800	3.780500	-11.287000	23.988973	0.000538	20.929455
470.138573	-2.984500	3.780400	-11.282000	24.004975	0.000536	20.936966
471.137242	-2.980300	3.780900	-11.267000	23.992485	0.000536	20.903582
472.135965	-2.987900	3.779900	-11.294000	23.986836	0.000534	20.916882
473.138215	-2.997200	3.780400	-11.329000	24.008212	0.000538	20.910344
474.136561	-2.999500	3.779600	-11.336000	24.004729	0.000536	20.918704
475.134507	-2.985500	3.779800	-11.283000	24.017121	0.000537	20.923544
476.137796	-2.996600	3.778500	-11.320000	24.057583	0.000536	20.915286
477.135395	-2.993000	3.779100	-11.309000	24.051662	0.000537	20.923571
478.139786	-3.025800	3.777400	-11.428000	24.047306	0.000539	20.931055
479.139863	-3.003400	3.777200	-11.343000	24.106328	0.000537	20.915810
480.135626	-3.011800	3.775900	-11.371000	24.106752	0.000538	20.902959
481.136481	-2.974600	3.777400	-11.235000	24.125039	0.000536	20.919876
482.138369	-3.003200	3.776900	-11.342000	24.149973	0.000535	20.915012
483.137949	-2.987500	3.776100	-11.280000	24.131288	0.000539	20.905756
484.137902	-2.999800	3.776400	-11.328000	24.130864	0.000536	20.939941
485.144715	-2.996800	3.776400	-11.316000	24.136884	0.000536	20.918480
486.139101	-2.994400	3.775500	-11.304000	24.118226	0.000536	20.928215
487.138982	-3.024900	3.775300	-11.419000	24.139698	0.000537	20.924621
488.142024	-3.032700	3.774700	-11.447000	24.103845	0.000537	20.937972
489.138578	-2.986600	3.775600	-11.275000	24.093169	0.000537	20.932482
490.138935	-3.016800	3.774000	-11.385000	24.067466	0.000537	20.947953
491.142417	-3.004400	3.775200	-11.341000	24.079533	0.000537	20.915963
492.138773	-3.000800	3.774600	-11.326000	24.089340	0.000537	20.926745
493.139682	-3.005800	3.775300	-11.347000	24.095337	0.000537	20.909054
494.140494	-2.997100	3.774200	-11.310000	24.121663	0.000538	20.886621
495.138416	-2.996400	3.773700	-11.306000	24.136292	0.000535	20.910774
496.140376	-3.000000	3.773600	-11.320000	24.138660	0.000538	20.917890
497.144331	-3.003700	3.773700	-11.334000	24.116066	0.000535	20.921782
498.140802	-2.999600	3.772700	-11.315000	24.119997	0.000537	20.906286
499.145456	-2.993700	3.771700	-11.291000	24.103874	0.000535	20.916192
500.145750	-3.002200	3.772800	-11.325000	24.126097	0.000535	20.918093
501.141830	-3.019800	3.771400	-11.388000	24.140926	0.000536	20.921111
502.145590	-2.978400	3.772000	-11.234000	24.154987	0.000536	20.899654
503.143849	-2.991400	3.772100	-11.283000	24.178002	0.000537	20.906143
504.142394	-3.001500	3.771400	-11.319000	24.189001	0.000536	20.896787
505.142678	-3.016100	3.771100	-11.373000	24.173228	0.000535	20.926008
506.143619	-3.010400	3.769800	-11.347000	24.171213	0.000539	20.897911
507.143857	-3.002500	3.770300	-11.319000	24.159223	0.000537	20.913385
508.143226	-3.001800	3.770000	-11.316000	24.170944	0.000537	20.915184
509.145555	-3.035900	3.768300	-11.439000	24.165271	0.000538	20.910443
510.144445	-3.005700	3.770100	-11.331000	24.173907	0.000536	20.895872
511.146102	-3.018800	3.768900	-11.377000	24.195305	0.000538	20.901687
512.146295	-3.004800	3.770500	-11.329000	24.207198	0.000537	20.899391
513.145289	-3.009400	3.768800	-11.341000	24.201081	0.000539	20.876189
514.146114	-3.018600	3.767500	-11.372000	24.181675	0.000540	20.890861
515.145598	-3.010100	3.767100	-11.339000	24.210837	0.000538	20.878862
516.146023	-3.002500	3.767900	-11.312000	24.209669	0.000537	20.892387
517.145076	-2.982600	3.768200	-11.238000	24.209619	0.000538	20.908457
518.146436	-3.014300	3.766700	-11.353000	24.188696	0.000540	20.888420
519.145532	-2.967700	3.768000	-11.181000	24.212730	0.000540	20.885501
520.144246	-2.993400	3.766600	-11.274000	24.211388	0.000538	20.904542
521.145486	-2.999300	3.765700	-11.294000	24.220269	0.000538	20.912501
522.147292	-2.978900	3.767200	-11.220000	24.207854	0.000540	20.900050
523.145722	-2.995300	3.765000	-11.276000	24.227659	0.000538	20.902845
524.146881	-3.009700	3.763900	-11.327000	24.238657	0.000539	20.869783
525.146565	-2.992300	3.766300	-11.269000	24.268039	0.000539	20.910631
526.146873	-3.008000	3.765000	-11.324000	24.253534	0.000540	20.875696
527.149128	-2.992900	3.766400	-11.272000	24.234878	0.000540	20.882112
528.147807	-2.989600	3.765700	-11.257000	24.214650	0.000540	20.889323
529.147204	-2.983700	3.765800	-11.235000	24.177501	0.000540	20.869607
530.154658	-2.994900	3.764600	-11.273000	24.204647	0.000539	20.905366
531.146592	-3.007700	3.763200	-11.317000	24.201961	0.000539	20.880864
532.147906	-3.008900	3.764100	-11.325000	24.201711	0.000538	20.883458
533.152481	-3.016800	3.763100	-11.351000	24.228931	0.000539	20.887052
534.148250	-3.018700	3.763500	-11.360000	24.244330	0.000539	20.899652
535.148790	-3.000300	3.763300	-11.290000	24.243884	0.000538	20.894464
536.151103	-3.025800	3.761700	-11.381000	24.256597	0.000541	20.876872
537.149415	-2.987900	3.763400	-11.244000	24.291575	0.000539	20.877344
538.148057	-3.006000	3.762300	-11.309000	24.295207	0.000540	20.895211
539.150592	-3.001200	3.762500	-11.291000	24.285106	0.000539	20.881760
540.148701	-2.985900	3.762700	-11.234000	24.281324	0.000539	20.880812
541.149815	-2.998700	3.761500	-11.278000	24.307344	0.000541	20.882731
542.150007	-2.984200	3.761500	-11.224000	24.315506	0.000539	20.883332
543.149050	-2.978000	3.761000	-11.200000	24.317469	0.000539	20.884826
544.150002	-3.007300	3.760500	-11.308000	24.316823	0.000541	20.855257
545.150993	-3.008000	3.759800	-11.308000	24.300975	0.000540	20.871127
546.150498	-3.016600	3.759500	-11.340000	24.265822	0.000542	20.874271
547.150427	-2.998300	3.760200	-11.273000	24.254723	0.000538	20.873095
548.155534	-2.973600	3.760300	-11.181000	24.232157	0.000541	20.876539
549.150065	-3.009200	3.757600	-11.307000	24.255644	0.000538	20.874019
550.150276	-2.999900	3.759500	-11.278000	24.288059	0.000538	20.874292
551.152810	-3.008000	3.759300	-11.307000	24.319630	0.000540	20.877512
552.151286	-3.002000	3.758600	-11.282000	24.309105	0.000539	20.873592
553.150240	-3.014200	3.758500	-11.328000	24.313310	0.000540	20.853155
554.153840	-3.018000	3.757500	-11.339000	24.289275	0.000538	20.873141
555.150820	-3.001700	3.758600	-11.281000	24.265143	0.000538	20.859366
556.152326	-3.005000	3.757400	-11.289000	24.281464	0.000541	20.860565
557.156519	-2.987100	3.758500	-11.227000	24.276188	0.000539	20.866652
558.153530	-3.028700	3.756800	-11.377000	24.305272	0.000538	20.865006
559.153840	-2.995700	3.757700	-11.255000	24.300343	0.000536	20.867648
560.156478	-2.997200	3.756500	-11.259000	24.290344	0.000541	20.870895
561.154508	-3.011800	3.755800	-11.311000	24.272083	0.000536	20.867276
562.152727	-2.982200	3.756500	-11.202000	24.295022	0.000539	20.864681
563.155199	-2.979800	3.757200	-11.194000	24.319849	0.000539	20.860663
564.153214	-2.980800	3.755400	-11.193000	24.310195	0.000539	20.857143
565.154137	-2.981400	3.756500	-11.198000	24.288825	0.000539	20.858940
566.157761	-3.006500	3.753900	-11.285000	24.314798	0.000540	20.859863
567.155362	-2.987000	3.753800	-11.211000	24.314823	0.000539	20.880276
568.154968	-2.997300	3.754800	-11.253000	24.331217	0.000538	20.869222
569.155168	-2.983800	3.755300	-11.204000	24.349800	0.000539	20.865578
570.156191	-2.986500	3.753800	-11.210000	24.374702	0.000539	20.864955
571.159902	-2.985200	3.754300	-11.206000	24.391020	0.000538	20.857143
572.156993	-2.988800	3.754200	-11.220000	24.309499	0.000537	20.852652
573.156613	-2.999300	3.752200	-11.253000	24.341366	0.000538	20.857592
574.158365	-2.974900	3.752600	-11.163000	24.368880	0.000537	20.871915
575.159970	-2.988400	3.753100	-11.214000	24.414032	0.000537	20.842772
576.159739	-2.985400	3.752600	-11.201000	24.387790	0.000538	20.858644
577.158785	-2.978000	3.751500	-11.172000	24.350650	0.000538	20.867853
578.159518	-3.000500	3.752400	-11.258000	24.325723	0.000538	20.848538
579.158329	-2.973000	3.753700	-11.159000	24.312589	0.000539	20.860967
580.158362	-2.996100	3.751000	-11.237000	24.303286	0.000541	20.870601
581.160197	-3.006500	3.749100	-11.271000	24.352842	0.000538	20.857251
582.159650	-2.979400	3.751400	-11.175000	24.390731	0.000538	20.859698
583.160161	-2.990600	3.751000	-11.217000	24.407149	0.000538	20.856729
584.161993	-2.982200	3.750200	-11.183000	24.430457	0.000536	20.855455
585.161145	-2.983300	3.751000	-11.190000	24.443694	0.000538	20.856408
586.159937	-2.990900	3.750300	-11.215000	24.476951	0.000537	20.862271
587.162068	-2.984600	3.748800	-11.188000	24.488194	0.000538	20.872129
588.161314	-2.977700	3.750500	-11.167000	24.509463	0.000537	20.839890
589.166900	-3.012000	3.748700	-11.290000	24.530284	0.000538	20.857460
590.164832	-2.989800	3.749300	-11.209000	24.528641	0.000541	20.864346
591.162155	-2.975900	3.749500	-11.157000	24.532149	0.000537	20.860754
592.163367	-2.981900	3.748600	-11.176000	24.508346	0.000537	20.851097
593.165033	-2.997100	3.747700	-11.231000	24.493325	0.000537	20.866371
594.163478	-3.013400	3.747200	-11.290000	24.498100	0.000536	20.841292
595.163302	-2.988800	3.747000	-11.198000	24.455140	0.000536	20.850348
596.165367	-2.992200	3.747200	-11.211000	24.476984	0.000537	20.859934
597.164519	-2.987800	3.748000	-11.198000	24.433553	0.000536	20.841018
598.165733	-2.989300	3.747400	-11.201000	24.436238	0.000536	20.852721
599.173109	-3.000500	3.747100	-11.242000	24.450641	0.000538	20.836352
600.167507	-2.999200	3.746300	-11.235000	24.474571	0.000537	20.842816
601.165565	-2.994500	3.747300	-11.221000	24.495413	0.000537	20.841915
602.171115	-2.997600	3.747300	-11.232000	24.490464	0.000536	20.841217
603.167792	-2.975700	3.746300	-11.147000	24.491284	0.000537	20.834453
604.168535	-2.996600	3.746300	-11.225000	24.511108	0.000536	20.844859
605.171727	-3.008200	3.745700	-11.267000	24.500288	0.000537	20.852021
606.169047	-3.004200	3.744200	-11.248000	24.506182	0.000536	20.847977
607.168719	-3.006000	3.744800	-11.255000	24.549038	0.000536	20.873431
608.173260	-3.011700	3.744400	-11.276000	24.526307	0.000537	20.873383
609.170430	-3.024700	3.744000	-11.323000	24.523420	0.000534	20.838246
610.172822	-2.998700	3.744900	-11.229000	24.494864	0.000535	20.807226
611.174298	-3.042000	3.742700	-11.385000	24.477952	0.000537	20.822500
612.171823	-3.007300	3.744000	-11.258000	24.488173	0.000537	20.828488
613.169819	-2.993700	3.743900	-11.206000	24.487874	0.000538	20.830558
614.177089	-3.003200	3.741400	-11.234000	24.515584	0.000537	20.820427
615.175011	-2.990200	3.742300	-11.189000	24.546997	0.000538	20.827763
616.173573	-2.992500	3.742400	-11.198000	24.548964	0.000536	20.830211
617.178938	-3.014000	3.742200	-11.278000	24.515933	0.000536	20.831683
618.172886	-2.981600	3.741800	-11.156000	24.510037	0.000535	20.843310
619.175540	-2.987500	3.742300	-11.179000	24.506357	0.000537	20.816860
620.177693	-3.019900	3.740000	-11.294000	24.486333	0.000536	20.833279
621.174792	-3.011600	3.741400	-11.266000	24.514166	0.000534	20.828962
622.176411	-2.998400	3.740900	-11.214000	24.549288	0.000535	20.859932
623.177013	-3.014700	3.739500	-11.273000	24.574904	0.000536	20.830633
624.174984	-2.995600	3.739800	-11.201000	24.555580	0.000533	20.813616
625.175728	-2.993200	3.740800	-11.195000	24.543466	0.000536	20.826591
626.184155	-2.983300	3.739600	-11.156000	24.513469	0.000535	20.815460
627.180258	-3.002600	3.738500	-11.225000	24.559532	0.000535	20.824693
628.179462	-2.989000	3.739900	-11.178000	24.537149	0.000533	20.824047
629.181309	-3.012900	3.739600	-11.266000	24.519387	0.000534	20.824243
630.176943	-3.008700	3.739200	-11.249000	24.535208	0.000534	20.825417
631.179627	-3.001500	3.738600	-11.220000	24.498094	0.000534	20.826113
632.182726	-3.010000	3.737400	-11.248000	24.498494	0.000533	20.835997
633.177105	-2.976900	3.738500	-11.128000	24.530504	0.000533	20.835397
634.185283	-2.988000	3.739300	-11.172000	24.546273	0.000532	20.834148
635.180696	-3.020400	3.737200	-11.287000	24.549232	0.000534	20.824790
636.178516	-2.975900	3.738200	-11.124000	24.561145	0.000538	20.830105
637.179688	-2.992600	3.736900	-11.182000	24.535948	0.000534	20.820471
638.181250	-3.021200	3.736000	-11.287000	24.556766	0.000533	20.827134
639.178561	-3.006100	3.735500	-11.228000	24.574229	0.000533	20.823792
640.178968	-2.998900	3.735600	-11.203000	24.596237	0.000533	20.810313
641.183137	-3.036900	3.735600	-11.343000	24.633991	0.000535	20.830177
642.180989	-3.002600	3.735900	-11.216000	24.621457	0.000534	20.810489
643.185280	-3.005900	3.734700	-11.225000	24.644339	0.000532	20.833449
644.185128	-3.006500	3.734000	-11.225000	24.672889	0.000532	20.837441
645.180147	-2.982400	3.735500	-11.140000	24.699475	0.000532	20.837093
646.181328	-3.013000	3.736000	-11.255000	24.689004	0.000531	20.833697
647.184963	-3.000800	3.735000	-11.207000	24.697484	0.000534	20.842207
648.180808	-2.991000	3.734300	-11.169000	24.653045	0.000535	20.809942
649.180886	-3.014000	3.733500	-11.252000	24.635012	0.000531	20.833099
650.185597	-3.021700	3.732800	-11.278000	24.639416	0.000531	20.823293
651.182505	-2.987800	3.734500	-11.157000	24.655185	0.000531	20.820624
652.184781	-3.002900	3.733600	-11.211000	24.674459	0.000532	20.821947
653.189048	-2.994400	3.733300	-11.178000	24.685899	0.000533	20.823469
654.182955	-2.991000	3.733500	-11.166000	24.701242	0.000534	20.817529
655.184001	-3.028700	3.731400	-11.300000	24.699898	0.000533	20.819500
656.188949	-2.988800	3.732200	-11.153000	24.711986	0.000533	20.814560
657.184137	-3.011100	3.732100	-11.237000	24.688533	0.000530	20.816156
658.186098	-2.997700	3.731900	-11.186000	24.647474	0.000532	20.820947
659.191600	-2.988300	3.732500	-11.153000	24.677119	0.000529	20.821771
660.184403	-2.997900	3.731700	-11.185000	24.678487	0.000531	20.802281
661.188550	-2.988300	3.730100	-11.146000	24.654066	0.000529	20.796743
662.190930	-3.013500	3.729900	-11.239000	24.613180	0.000529	20.795072
663.187395	-3.012500	3.730800	-11.238000	24.634569	0.000531	20.821274
664.190770	-3.000100	3.729400	-11.187000	24.646431	0.000530	20.838393
665.192489	-2.986700	3.730000	-11.140000	24.593905	0.000528	20.808447
666.190884	-3.001600	3.730900	-11.198000	24.612834	0.000529	20.787138
667.191230	-3.012800	3.729900	-11.237000	24.592165	0.000527	20.802435
668.192191	-3.007700	3.728500	-11.213000	24.597440	0.000528	20.808201
669.188910	-3.008700	3.729100	-11.219000	24.637111	0.000528	20.812920
670.193442	-2.987200	3.729100	-11.139000	24.645070	0.000528	20.808578
671.193601	-3.018000	3.726800	-11.247000	24.652110	0.000528	20.804263
672.191693	-3.001600	3.727400	-11.187000	24.649500	0.000527	20.793583
673.193186	-3.005500	3.728200	-11.203000	24.610878	0.000526	20.801770
674.198026	-2.988800	3.728100	-11.142000	24.640402	0.000526	20.793463
675.193589	-2.974800	3.728300	-11.090000	24.697479	0.000526	20.783881
676.194347	-2.980200	3.728000	-11.109000	24.722375	0.000526	20.803648
677.192253	-2.966600	3.727900	-11.059000	24.731602	0.000526	20.812434
678.194854	-3.000200	3.726400	-11.180000	24.721506	0.000526	20.820794
679.194964	-2.999300	3.725600	-11.173000	24.695847	0.000523	20.808322
680.196168	-2.981900	3.726200	-11.110000	24.649144	0.000523	20.775682
681.196259	-2.975700	3.727800	-11.092000	24.646412	0.000524	20.765828
682.195369	-2.990500	3.727300	-11.146000	24.696078	0.000524	20.778208
683.195469	-2.994700	3.724900	-11.153000	24.667752	0.000523	20.791035
684.196917	-2.994100	3.725300	-11.153000	24.644429	0.000524	20.788969
685.199250	-2.993600	3.725900	-11.153000	24.666318	0.000523	20.787226
686.195661	-3.001900	3.724800	-11.180000	24.670452	0.000526	20.805124
687.196554	-2.992600	3.725200	-11.147000	24.671075	0.000521	20.791051
688.196876	-3.013300	3.724100	-11.221000	24.662497	0.000523	20.767744
689.197367	-2.994400	3.725000	-11.154000	24.629078	0.000524	20.781152
690.197871	-2.999200	3.724000	-11.169000	24.641591	0.000521	20.764784
691.198218	-3.015300	3.724100	-11.229000	24.660297	0.000521	20.781658
692.197611	-3.006900	3.724700	-11.199000	24.674652	0.000522	20.769510
693.197531	-3.003900	3.724400	-11.186000	24.657124	0.000522	20.781319
694.198698	-3.000700	3.722800	-11.171000	24.674088	0.000522	20.789332
695.197296	-3.009000	3.723300	-11.202000	24.690581	0.000524	20.769372
696.198998	-3.008900	3.722600	-11.200000	24.727812	0.000521	20.765482
697.197968	-2.996200	3.723600	-11.156000	24.686186	0.000521	20.774920
698.199040	-3.001900	3.721600	-11.171000	24.665024	0.000522	20.767909
699.198747	-2.988200	3.722600	-11.123000	24.653515	0.000521	20.768214
700.198071	-2.995400	3.721600	-11.147000	24.636832	0.000520	20.766647
701.199047	-2.992100	3.722600	-11.137000	24.665088	0.000519	20.784568
702.201363	-3.001800	3.720700	-11.168000	24.715379	0.000519	20.758695
703.199986	-3.012500	3.721700	-11.211000	24.739080	0.000520	20.777739
704.198407	-3.001900	3.720900	-11.169000	24.722671	0.000520	20.790196
705.200015	-3.013500	3.722000	-11.216000	24.736477	0.000519	20.762324
706.200598	-3.014000	3.721100	-11.214000	24.706861	0.000520	20.737818
707.200850	-3.013300	3.720600	-11.211000	24.649894	0.000520	20.766477
708.201748	-3.014900	3.720400	-11.216000	24.693915	0.000521	20.759441
709.201851	-3.024600	3.719200	-11.247000	24.685488	0.000518	20.774220
710.204096	-3.010700	3.718600	-11.195000	24.675271	0.000518	20.749742
711.203166	-3.007000	3.718400	-11.180000	24.699945	0.000520	20.765967
712.203140	-3.002500	3.718200	-11.163000	24.685426	0.000518	20.792175
713.201683	-3.005000	3.718000	-11.172000	24.700079	0.000518	20.730064
714.202450	-3.011800	3.718000	-11.197000	24.728978	0.000519	20.764756
715.201862	-3.016200	3.717700	-11.213000	24.680889	0.000517	20.778613
716.202629	-2.992800	3.718200	-11.127000	24.670023	0.000520	20.753011
717.205009	-2.991600	3.717400	-11.119000	24.701313	0.000517	20.764969
718.203570	-2.998000	3.717300	-11.143000	24.735835	0.000517	20.763102
719.208493	-2.995200	3.716600	-11.131000	24.716119	0.000518	20.747584
720.203997	-2.999800	3.717300	-11.149000	24.680164	0.000517	20.757022
721.203154	-2.992400	3.715900	-11.119000	24.645125	0.000515	20.743199
722.203506	-2.992700	3.716400	-11.121000	24.673556	0.000516	20.749917
723.203069	-3.005000	3.715800	-11.164000	24.704049	0.000517	20.732626
724.204238	-2.975800	3.716600	-11.059000	24.715468	0.000515	20.744086
725.202626	-2.996500	3.715200	-11.132000	24.746757	0.000515	20.746561
726.205151	-2.997900	3.715700	-11.138000	24.747383	0.000516	20.743870
727.205181	-2.992000	3.715300	-11.115000	24.752239	0.000514	20.744950
728.204521	-3.001100	3.714900	-11.147000	24.749506	0.000517	20.741258
729.205735	-2.975200	3.715400	-11.054000	24.793179	0.000514	20.736249
730.203175	-3.009600	3.715200	-11.180000	24.747302	0.000514	20.749004
731.203181	-3.004000	3.714400	-11.157000	24.746137	0.000515	20.740248
732.206958	-3.004700	3.713800	-11.158000	24.712023	0.000514	20.749638
733.205064	-3.011800	3.713800	-11.184000	24.732096	0.000514	20.766936
734.203938	-2.985500	3.713100	-11.085000	24.750328	0.000515	20.734971
735.207388	-2.991100	3.714100	-11.108000	24.777015	0.000513	20.767443
736.204574	-2.995000	3.714800	-11.125000	24.782962	0.000516	20.748280
737.205438	-2.979600	3.713500	-11.064000	24.711943	0.000514	20.753350
738.204419	-3.010300	3.711900	-11.173000	24.736542	0.000516	20.750535
739.206146	-3.000600	3.711800	-11.137000	24.769520	0.000512	20.748068
740.208096	-3.012000	3.711100	-11.177000	24.776934	0.000513	20.745076
741.207880	-3.004500	3.711600	-11.150000	24.794891	0.000514	20.762149
742.206087	-2.998100	3.710900	-11.124000	24.842738	0.000514	20.756114
743.211423	-3.004600	3.711300	-11.150000	24.821628	0.000513	20.760059
744.208800	-3.008300	3.710400	-11.160000	24.838043	0.000513	20.731961
745.211411	-2.998000	3.711300	-11.126000	24.820815	0.000513	20.726525
746.209238	-2.975200	3.711300	-11.040000	24.829075	0.000513	20.742401
747.210408	-3.003400	3.711200	-11.145000	24.848744	0.000512	20.729899
748.209248	-3.009500	3.710700	-11.166000	24.879530	0.000511	20.743253
749.207317	-3.008800	3.711000	-11.165000	24.866928	0.000513	20.743407
750.210364	-3.000000	3.709400	-11.127000	24.893955	0.000513	20.750145
751.210249	-3.019300	3.707900	-11.194000	24.872998	0.000511	20.736223
752.208610	-3.003100	3.709700	-11.140000	24.804671	0.000511	20.729289
753.212472	-2.995700	3.709200	-11.111000	24.805394	0.000510	20.753249
754.208927	-2.996700	3.709000	-11.114000	24.822133	0.000509	20.740650
755.208904	-3.000000	3.708900	-11.126000	24.779466	0.000512	20.739556
756.211242	-3.016100	3.706400	-11.177000	24.737612	0.000509	20.724581
757.210305	-3.016100	3.706800	-11.179000	24.764945	0.000509	20.746321
758.211939	-2.992700	3.708800	-11.098000	24.753710	0.000509	20.752590
759.216579	-2.993900	3.708000	-11.101000	24.706685	0.000510	20.737642
760.214246	-3.023400	3.707400	-11.208000	24.738543	0.000511	20.734524
761.214459	-3.007400	3.707600	-11.150000	24.715196	0.000509	20.762779
762.216157	-2.992000	3.706800	-11.090000	24.741035	0.000511	20.747457
763.226262	-3.011900	3.706300	-11.162000	24.730742	0.000509	20.748507
764.214710	-2.997100	3.705900	-11.107000	24.771181	0.000508	20.743570
765.215285	-3.008500	3.707000	-11.151000	24.794183	0.000509	20.741998
766.214117	-2.989400	3.706200	-11.079000	24.791824	0.000510	20.746269
767.214578	-3.005600	3.706900	-11.140000	24.763975	0.000511	20.740606
768.220737	-2.996000	3.706600	-11.104000	24.779273	0.000509	20.755485
769.215745	-3.013800	3.704200	-11.163000	24.796430	0.000508	20.742831
770.215090	-3.013000	3.704000	-11.159000	24.865062	0.000509	20.745803
771.214488	-3.002600	3.704300	-11.122000	24.841366	0.000508	20.758531
772.215947	-3.007800	3.705200	-11.144000	24.827844	0.000508	20.746856
773.214723	-3.006300	3.705100	-11.138000	24.793033	0.000508	20.757913
774.217479	-3.005800	3.703900	-11.133000	24.810615	0.000509	20.745213
775.215179	-3.005300	3.705400	-11.135000	24.873228	0.000511	20.743567
776.215777	-3.002700	3.703700	-11.120000	24.908811	0.000507	20.751305
777.216951	-3.011800	3.703400	-11.153000	24.891530	0.000508	20.751030
778.217210	-3.021100	3.703700	-11.189000	24.873679	0.000507	20.748761
779.216127	-3.025500	3.701900	-11.198000	24.892032	0.000507	20.754379
780.224491	-2.984100	3.703900	-11.051000	24.881642	0.000506	20.746321
781.214854	-3.025300	3.701500	-11.197000	24.858915	0.000507	20.741056
782.216063	-3.028700	3.702400	-11.212000	24.834150	0.000507	20.746547
783.218312	-2.991900	3.701900	-11.075000	24.854793	0.000507	20.749721
784.216933	-3.004500	3.702400	-11.124000	24.873190	0.000506	20.759650
785.215757	-3.000700	3.701800	-11.107000	24.883685	0.000505	20.757382
786.220402	-2.983600	3.702000	-11.045000	24.893486	0.000506	20.747777
787.216667	-3.009800	3.700100	-11.135000	24.926851	0.000506	20.765145
788.218938	-2.980500	3.702100	-11.032000	24.925066	0.000504	20.763827
789.220222	-3.000200	3.699700	-11.099000	24.876333	0.000504	20.741941
790.222023	-3.003600	3.701000	-11.115000	24.900602	0.000504	20.770568
791.218266	-3.019600	3.699200	-11.168000	24.926363	0.000502	20.759439
792.222754	-3.000800	3.700700	-11.104000	24.876412	0.000502	20.744866
793.217739	-3.005100	3.699700	-11.116000	24.911795	0.000502	20.755722
794.222155	-2.974600	3.701000	-11.008000	24.846130	0.000504	20.761415
795.223573	-2.988500	3.700000	-11.056000	24.852348	0.000502	20.765760
796.219427	-2.980800	3.700900	-11.030000	24.877415	0.000502	20.753459
797.221621	-2.979100	3.699200	-11.019000	24.899249	0.000503	20.748820
798.223006	-3.011600	3.697000	-11.133000	24.841092	0.000502	20.763946
799.218700	-3.011700	3.698200	-11.137000	24.790987	0.000501	20.767241
800.223687	-2.990500	3.697500	-11.057000	24.861908	0.000501	20.768242
801.229622	-2.967600	3.699100	-10.977000	24.844977	0.000501	20.750775
802.224758	-2.989800	3.697400	-11.053000	24.835830	0.000501	20.756294
803.225152	-2.993400	3.698100	-11.069000	24.862043	0.000498	20.757471
804.229431	-2.995700	3.696200	-11.072000	24.875993	0.000500	20.762938
805.224387	-3.007500	3.695900	-11.114000	24.867443	0.000502	20.765736
806.226153	-3.014200	3.695900	-11.139000	24.913744	0.000499	20.768584
807.228485	-3.036400	3.695200	-11.220000	24.881322	0.000498	20.754536
808.226154	-3.008400	3.695900	-11.118000	24.871080	0.000498	20.755162
809.226877	-3.016300	3.697000	-11.151000	24.852012	0.000499	20.774432
810.228061	-2.987700	3.696100	-11.042000	24.837520	0.000499	20.779328
811.227003	-3.015000	3.695700	-11.141000	24.822078	0.000500	20.747233
812.228264	-2.993100	3.694500	-11.057000	24.836779	0.000498	20.760566
813.230805	-2.987300	3.696300	-11.040000	24.853988	0.000497	20.774992
814.227188	-2.979600	3.694400	-11.006000	24.875374	0.000498	20.774645
815.230696	-3.011100	3.694500	-11.123000	24.861355	0.000498	20.779067
816.237148	-3.002800	3.693700	-11.091000	24.859320	0.000497	20.776076
817.227314	-2.989600	3.694400	-11.043000	24.870340	0.000496	20.781921
818.227192	-2.995100	3.694800	-11.065000	24.893143	0.000497	20.758339
819.228671	-3.013400	3.693200	-11.128000	24.898442	0.000495	20.761761
820.226938	-2.997000	3.693400	-11.069000	24.904114	0.000495	20.792584
821.227951	-2.980200	3.692700	-11.004000	24.919608	0.000496	20.772573
822.229288	-3.002000	3.693000	-11.085000	24.917625	0.000495	20.775325
823.229432	-2.984200	3.693200	-11.021000	24.936673	0.000496	20.771683
824.230311	-2.993500	3.692100	-11.051000	24.904280	0.000496	20.779000
825.232139	-2.996600	3.692500	-11.064000	24.867430	0.000496	20.767620
826.230993	-3.022900	3.690800	-11.156000	24.871815	0.000494	20.770124
827.230005	-2.997900	3.691200	-11.063000	24.897900	0.000494	20.775442
828.231741	-3.007100	3.691800	-11.101000	24.894272	0.000494	20.770378
829.231108	-2.991200	3.691900	-11.042000	24.907679	0.000493	20.784308
830.230870	-2.989600	3.692100	-11.036000	24.868418	0.000495	20.779517
831.232603	-3.014600	3.689900	-11.122000	24.872426	0.000492	20.773582
832.231503	-3.000500	3.689900	-11.071000	24.849255	0.000494	20.783044
833.232548	-2.947800	3.691700	-10.882000	24.880065	0.000495	20.772715
834.233682	-3.011400	3.690700	-11.113000	24.860003	0.000493	20.753528
835.235638	-2.983400	3.691100	-11.011000	24.869084	0.000493	20.776393
836.231986	-2.979400	3.689100	-10.990000	24.898452	0.000494	20.781212
837.235187	-3.004400	3.688400	-11.080000	24.920662	0.000492	20.781218
838.233440	-3.007400	3.688800	-11.093000	24.926902	0.000491	20.791275
839.233934	-3.010100	3.687400	-11.099000	24.868525	0.000492	20.777254
840.234792	-3.006300	3.688200	-11.087000	24.864449	0.000492	20.779328
841.234264	-3.017200	3.687100	-11.123000	24.880240	0.000493	20.779529
842.235115	-3.014500	3.687900	-11.116000	24.882013	0.000491	20.782256
843.233870	-2.996900	3.687700	-11.050000	24.888454	0.000491	20.793937
844.235405	-3.000800	3.686900	-11.063000	24.907552	0.000492	20.778491
845.235958	-2.977700	3.687100	-10.979000	24.926525	0.000492	20.771930
846.236540	-3.005400	3.685600	-11.076000	24.963326	0.000490	20.770935
847.236092	-3.014100	3.685600	-11.108000	24.924864	0.000489	20.779272
848.236145	-2.996400	3.685700	-11.043000	24.914771	0.000489	20.792849
849.236006	-3.011400	3.686200	-11.099000	24.921313	0.000490	20.783294
850.235044	-2.996100	3.686100	-11.042000	24.911843	0.000490	20.792282
851.236316	-3.008700	3.686200	-11.089000	24.906922	0.000491	20.781652
852.238456	-2.993900	3.686600	-11.036000	24.954660	0.000487	20.778358
853.236672	-3.005800	3.685200	-11.076000	24.993247	0.000490	20.774890
854.238535	-2.991700	3.685500	-11.023000	25.008462	0.000487	20.797749
855.238480	-2.978800	3.685100	-10.976000	25.044489	0.000488	20.803091
856.240791	-3.021100	3.684200	-11.130000	25.012791	0.000489	20.796404
857.240177	-2.997200	3.684700	-11.043000	25.007348	0.000490	20.788095
858.239341	-3.007900	3.684800	-11.082000	24.993226	0.000488	20.784825
859.238555	-2.995600	3.683900	-11.035000	25.005236	0.000487	20.790717
860.237094	-2.975200	3.684600	-10.961000	24.964487	0.000486	20.820938
861.239456	-2.990900	3.683100	-11.015000	24.952032	0.000486	20.779988
862.239426	-2.998700	3.683100	-11.044000	24.954197	0.000487	20.798756
863.238877	-2.998600	3.683500	-11.045000	24.947707	0.000485	20.800302
864.243410	-3.027000	3.682600	-11.147000	24.958572	0.000486	20.795561
865.239236	-3.021900	3.681300	-11.123000	24.961159	0.000486	20.800528
866.240133	-3.002400	3.681800	-11.054000	24.982167	0.000486	20.812605
867.242760	-3.009300	3.682600	-11.081000	24.983139	0.000484	20.814056
868.241187	-2.998200	3.682800	-11.041000	24.987317	0.000485	20.781265
869.240899	-3.017600	3.680500	-11.105000	24.997660	0.000487	20.795914
870.243181	-3.032800	3.680100	-11.160000	24.979959	0.000486	20.798062
871.241923	-2.983600	3.680500	-10.980000	24.977347	0.000484	20.802552
872.240475	-3.001200	3.679900	-11.044000	24.982201	0.000487	20.780871
873.246060	-2.990500	3.680100	-11.004000	24.981728	0.000483	20.784190
874.241416	-2.996300	3.681400	-11.030000	24.978721	0.000484	20.790655
875.242067	-3.005600	3.680000	-11.060000	24.994458	0.000485	20.815460
876.245100	-2.982400	3.679700	-10.973000	25.014150	0.000484	20.782120
877.242683	-3.013900	3.679700	-11.089000	25.023847	0.000483	20.806553
878.243392	-2.996500	3.680700	-11.029000	25.032402	0.000484	20.808502
879.263795	-3.005200	3.679000	-11.056000	25.044014	0.000482	20.801192
880.245136	-3.005700	3.676400	-11.050000	25.034193	0.000483	20.817886
881.247519	-3.005000	3.678700	-11.053000	25.053263	0.000482	20.794830
882.245062	-3.010400	3.678700	-11.073000	25.047647	0.000481	20.809581
883.244014	-2.997300	3.678800	-11.025000	25.075143	0.000482	20.803516
884.247907	-2.984600	3.678200	-10.978000	25.057866	0.000480	20.809407
885.249413	-2.998500	3.677800	-11.026000	24.983281	0.000480	20.798077
886.248868	-3.011500	3.677900	-11.075000	24.946138	0.000480	20.814375
887.247289	-3.017400	3.676800	-11.093000	24.937864	0.000478	20.795639
888.246554	-3.010600	3.678100	-11.072000	24.940843	0.000480	20.801000
889.254672	-3.026900	3.675700	-11.125000	24.971527	0.000479	20.800504
890.250864	-2.997300	3.675600	-11.016000	24.979234	0.000478	20.803024
891.249031	-2.973500	3.677000	-10.933000	24.998901	0.000479	20.829402
892.248623	-2.971100	3.676900	-10.923000	24.968323	0.000480	20.815305
893.250022	-3.007500	3.675700	-11.053000	24.983365	0.000476	20.846998
894.252380	-2.993800	3.675500	-11.002000	24.992637	0.000479	20.817425
895.252819	-2.983400	3.675600	-10.964000	25.016036	0.000478	20.828110
896.251931	-3.008900	3.674900	-11.056000	25.049176	0.000478	20.838141
897.263041	-2.980000	3.675500	-10.953000	25.065211	0.000478	20.811091
898.250984	-2.982700	3.674900	-10.961000	25.071877	0.000477	20.798815
899.251379	-2.967900	3.675100	-10.906000	25.092808	0.000477	20.825516
900.252487	-2.978500	3.674700	-10.945000	25.051118	0.000476	20.817332
901.252625	-2.982100	3.675400	-10.960000	25.018352	0.000478	20.836598
902.253350	-3.010700	3.673200	-11.058000	24.971812	0.000475	20.817385
903.254901	-3.015600	3.673600	-11.076000	24.958211	0.000476	20.836450
904.255245	-3.006700	3.671900	-11.039000	24.927357	0.000476	20.817335
905.253750	-3.002100	3.671700	-11.021000	24.962741	0.000475	20.819185
906.254922	-2.994300	3.672500	-10.996000	24.985165	0.000475	20.843590
907.256182	-2.976400	3.671700	-10.928000	25.005604	0.000475	20.809578
908.256442	-2.998800	3.671500	-11.009000	25.069497	0.000474	20.825349
909.258400	-2.992300	3.672100	-10.988000	25.086004	0.000474	20.838600
910.257752	-3.016700	3.670000	-11.070000	25.128566	0.000474	20.842920
911.257841	-3.008700	3.670400	-11.042000	25.086529	0.000473	20.840075
912.259735	-2.987500	3.671400	-10.967000	25.056175	0.000474	20.823831
913.259993	-2.980400	3.671600	-10.942000	25.049238	0.000474	20.849109
914.261242	-3.002800	3.670000	-11.019000	25.041909	0.000472	20.842700
915.260025	-2.993300	3.669900	-10.984000	25.052674	0.000472	20.841179
916.260530	-3.010800	3.670200	-11.050000	25.039399	0.000473	20.815052
917.260756	-3.018100	3.668200	-11.070000	25.051257	0.000472	20.842127
918.264341	-2.999100	3.669400	-11.003000	25.033882	0.000470	20.855031
919.261055	-3.005400	3.669300	-11.027000	25.064338	0.000474	20.836292
920.260822	-3.008900	3.669200	-11.039000	25.080173	0.000470	20.828954
921.261703	-3.011400	3.667300	-11.043000	25.126465	0.000471	20.829431
922.263117	-3.006200	3.667700	-11.025000	25.152241	0.000472	20.828755
923.262693	-3.010300	3.668500	-11.043000	25.140832	0.000470	20.849543
924.261847	-2.986600	3.669100	-10.957000	25.171782	0.000470	20.851691
925.263872	-2.974200	3.667000	-10.905000	25.201886	0.000470	20.843506
926.263675	-3.014600	3.665600	-11.049000	25.231639	0.000472	20.838291
927.263410	-2.985500	3.667000	-10.947000	25.255577	0.000470	20.835772
928.263605	-3.008100	3.667500	-11.031000	25.258361	0.000470	20.848524
929.263972	-2.970800	3.666600	-10.892000	25.226673	0.000468	20.868865
930.268756	-2.991300	3.667200	-10.969000	25.212597	0.000468	20.852363
931.265137	-3.003700	3.666100	-11.011000	25.135988	0.000469	20.848474
932.267275	-2.989100	3.665600	-10.956000	25.112770	0.000469	20.837969
933.264211	-2.994300	3.666000	-10.976000	25.119281	0.000466	20.869633
934.264207	-3.015100	3.664600	-11.048000	25.181827	0.000466	20.866990
935.265244	-3.007200	3.664900	-11.020000	25.194903	0.000467	20.870634
936.266574	-3.021700	3.665000	-11.073000	25.148173	0.000467	20.846482
937.265602	-3.000800	3.664500	-10.996000	25.150010	0.000469	20.859230
938.265186	-3.016100	3.663400	-11.047000	25.131441	0.000468	20.866194
939.265380	-3.006800	3.663800	-11.015000	25.161172	0.000467	20.850048
940.266901	-3.006800	3.663400	-11.013000	25.196450	0.000466	20.863179
941.265166	-3.016300	3.663400	-11.049000	25.207013	0.000465	20.860033
942.266457	-2.987600	3.663300	-10.944000	25.172585	0.000467	20.852971
943.266162	-3.003600	3.663300	-11.001000	25.172659	0.000464	20.867269
944.269194	-3.010800	3.662600	-11.027000	25.132889	0.000464	20.857216
945.266626	-2.958300	3.664000	-10.838000	25.151306	0.000462	20.866222
946.272000	-3.015700	3.661700	-11.042000	25.129435	0.000464	20.885041
947.266953	-2.997200	3.662100	-10.975000	25.115138	0.000465	20.871164
948.280606	-3.000300	3.660900	-10.983000	25.080760	0.000462	20.874586
949.269343	-3.004700	3.661200	-11.000000	25.110968	0.000464	20.854651
950.267326	-3.007800	3.661000	-11.010000	25.132942	0.000464	20.881924
951.268517	-3.008800	3.660000	-11.011000	25.184473	0.000462	20.860163
952.270117	-2.998600	3.661300	-10.978000	25.186689	0.000465	20.854328
953.268583	-3.008400	3.659700	-11.009000	25.184127	0.000463	20.865506
954.268414	-2.994500	3.661100	-10.963000	25.191684	0.000461	20.848437
955.273187	-2.986200	3.660500	-10.930000	25.176296	0.000460	20.856222
956.269162	-3.026200	3.658700	-11.071000	25.198623	0.000461	20.876265
957.275334	-2.992800	3.659800	-10.952000	25.248735	0.000462	20.866833
958.271852	-3.006000	3.658900	-10.998000	25.279308	0.000461	20.882355
959.270023	-3.006900	3.658400	-10.999000	25.260816	0.000460	20.854781
960.274131	-3.005900	3.657900	-10.994000	25.220028	0.000459	20.859823
961.272466	-2.988700	3.657800	-10.931000	25.161713	0.000460	20.845376
962.271918	-2.990200	3.657900	-10.937000	25.178790	0.000459	20.860623
963.273364	-3.006300	3.656500	-10.992000	25.217793	0.000459	20.854261
964.272874	-3.013500	3.657100	-11.020000	25.238601	0.000457	20.847177
965.270512	-3.002700	3.656500	-10.978000	25.174818	0.000458	20.823919
966.275604	-3.010000	3.656100	-11.004000	25.187246	0.000459	20.852516
967.278235	-3.003900	3.657900	-10.987000	25.174444	0.000457	20.857208
968.271529	-3.010900	3.656200	-11.007000	25.163461	0.000458	20.859932
969.273957	-3.014600	3.655600	-11.020000	25.178624	0.000457	20.845283
970.275631	-2.987100	3.656600	-10.922000	25.237564	0.000456	20.841869
971.272386	-3.028000	3.653900	-11.063000	25.244997	0.000456	20.834159
972.275342	-2.999600	3.654700	-10.961000	25.251909	0.000458	20.852476
973.277603	-3.020400	3.653100	-11.033000	25.207786	0.000454	20.816714
974.272650	-3.008400	3.653700	-10.991000	25.188722	0.000455	20.835507
975.275339	-3.017900	3.653700	-11.026000	25.178606	0.000456	20.828196
976.275310	-3.005800	3.652000	-10.977000	25.175500	0.000456	20.824605
977.273800	-3.006300	3.653300	-10.982000	25.175747	0.000454	20.831016
978.274642	-2.987700	3.653800	-10.916000	25.166601	0.000454	20.829420
979.279583	-3.011200	3.654100	-11.002000	25.175352	0.000454	20.832516
980.275104	-2.991000	3.652800	-10.925000	25.209957	0.000454	20.840704
981.281182	-3.001100	3.653800	-10.965000	25.188429	0.000452	20.831894
982.278680	-2.984000	3.651400	-10.895000	25.186314	0.000453	20.811279
983.275909	-2.998600	3.652500	-10.951000	25.164119	0.000454	20.828351
984.276149	-2.987100	3.651200	-10.905000	25.168768	0.000450	20.838708
985.280043	-3.000000	3.651100	-10.952000	25.241920	0.000454	20.849086
986.276270	-2.998100	3.652100	-10.949000	25.245328	0.000453	20.820740
987.277106	-2.999600	3.651200	-10.950000	25.270333	0.000452	20.830198
988.278911	-3.015300	3.651100	-11.008000	25.218507	0.000451	20.836486
989.275921	-2.990000	3.650200	-10.912000	25.185323	0.000450	20.829250
990.276282	-3.019000	3.649900	-11.018000	25.145227	0.000452	20.825981
991.284605	-3.006600	3.650800	-10.975000	25.104752	0.000449	20.816169
992.281087	-2.996300	3.650000	-10.935000	25.072537	0.000449	20.827927
993.279874	-2.998700	3.650000	-10.945000	25.110448	0.000450	20.826628
994.281800	-3.001300	3.648700	-10.949000	25.164465	0.000450	20.824431
995.280252	-3.006400	3.649100	-10.969000	25.227156	0.000449	20.790643
996.280352	-2.979100	3.650300	-10.874000	25.218084	0.000449	20.803820
997.282332	-3.006100	3.648200	-10.966000	25.223205	0.000448	20.821763
998.281599	-2.968400	3.648800	-10.830000	25.201850	0.000448	20.804117
999.282248	-2.988100	3.648500	-10.901000	25.189571	0.000449	20.837307
1000.281890	-3.017200	3.648200	-11.005000	25.154201	0.000446	20.811756
1001.282041	-3.008500	3.647000	-10.971000	25.173315	0.000447	20.832368
1002.281840	-3.003800	3.647300	-10.955000	25.215723	0.000447	20.817096
1003.285802	-2.997900	3.646500	-10.930000	25.221538	0.000444	20.826253
1004.282522	-3.021700	3.646000	-11.016000	25.219698	0.000445	20.819665
1005.282295	-3.000500	3.646200	-10.939000	25.182063	0.000445	20.802270
1006.280969	-2.971400	3.646600	-10.834000	25.215296	0.000445	20.810504
1007.282331	-2.993100	3.645500	-10.910000	25.249427	0.000447	20.843821
1008.283108	-2.988700	3.645200	-10.894000	25.256983	0.000444	20.822485
1009.284082	-2.999000	3.645700	-10.932000	25.250498	0.000445	20.807914
1010.283331	-3.002600	3.644300	-10.941000	25.245303	0.000443	20.810759
1011.283993	-2.973000	3.644400	-10.835000	25.257206	0.000445	20.797578
1012.285116	-2.977800	3.645600	-10.855000	25.241645	0.000445	20.817517
1013.285190	-3.004500	3.644500	-10.949000	25.301968	0.000443	20.799372
1014.284161	-3.001500	3.643300	-10.934000	25.304903	0.000444	20.808484
1015.284211	-3.018000	3.644300	-10.998000	25.314126	0.000444	20.805890
1016.284344	-3.015000	3.642500	-10.981000	25.326651	0.000445	20.774369
1017.284051	-3.006600	3.643000	-10.952000	25.301252	0.000444	20.810033
1018.285758	-3.015100	3.643200	-10.984000	25.325907	0.000441	20.805391
1019.286407	-3.007200	3.642100	-10.952000	25.335176	0.000444	20.808059
1020.285335	-2.992200	3.643400	-10.901000	25.330358	0.000443	20.814601
1021.286006	-3.030500	3.641500	-11.034000	25.307363	0.000440	20.813324
1022.290131	-3.003000	3.641600	-10.935000	25.309404	0.000441	20.795933
1023.286416	-3.007800	3.641300	-10.952000	25.316188	0.000440	20.796106
1024.287770	-3.001400	3.640800	-10.927000	25.320385	0.000440	20.793683
1025.288321	-3.006700	3.640200	-10.944000	25.311913	0.000439	20.791340
1026.286706	-2.991800	3.639300	-10.888000	25.316163	0.000438	20.797504
1027.290401	-3.030800	3.639300	-11.028000	25.246093	0.000439	20.800172
1028.289509	-2.958900	3.640700	-10.772000	25.237617	0.000438	20.815844
1029.285351	-2.998600	3.640400	-10.916000	25.225588	0.000440	20.806138
1030.288916	-2.997100	3.639900	-10.908000	25.239256	0.000437	20.794256
1031.292173	-2.991100	3.639300	-10.885000	25.268290	0.000438	20.810603
1032.287407	-2.990000	3.638500	-10.879000	25.273982	0.000436	20.807783
1033.289295	-2.965100	3.640000	-10.792000	25.265876	0.000437	20.799171
1034.290926	-2.974300	3.638500	-10.821000	25.259240	0.000436	20.803888
1035.288892	-2.977400	3.638300	-10.831000	25.251162	0.000438	20.799571
1036.291128	-2.990000	3.638000	-10.877000	25.229088	0.000437	20.792108
1037.293358	-3.003100	3.635900	-10.917000	25.194784	0.000435	20.770944
1038.289307	-2.991300	3.637500	-10.881000	25.190138	0.000435	20.779557
1039.292848	-3.005100	3.636200	-10.927000	25.219865	0.000436	20.787115
1040.292398	-3.017500	3.635400	-10.969000	25.249597	0.000435	20.793732
1041.288712	-3.004900	3.637100	-10.928000	25.276065	0.000436	20.793280
1042.291255	-3.019800	3.635100	-10.977000	25.294458	0.000435	20.781401
1043.292372	-3.003200	3.636000	-10.919000	25.294011	0.000435	20.772417
1044.289920	-3.001200	3.636900	-10.914000	25.258193	0.000435	20.773913
1045.294371	-3.012800	3.633800	-10.946000	25.247581	0.000434	20.784596
1046.292764	-3.014500	3.634600	-10.956000	25.255155	0.000433	20.768967
1047.292490	-3.004700	3.635000	-10.921000	25.268107	0.000433	20.782919
1048.292785	-3.005100	3.633300	-10.916000	25.272185	0.000433	20.790806
1049.296394	-2.996800	3.634000	-10.890000	25.275667	0.000435	20.774388
1050.292512	-3.005300	3.633300	-10.919000	25.283818	0.000434	20.786840
1051.295512	-3.012100	3.632000	-10.939000	25.311805	0.000430	20.773213
1052.294090	-3.016300	3.631800	-10.954000	25.313221	0.000430	20.781748
1053.293182	-3.002100	3.633600	-10.908000	25.323857	0.000430	20.771090
1054.295294	-3.006800	3.631400	-10.918000	25.316971	0.000430	20.779349
1055.292976	-3.016100	3.632600	-10.955000	25.364293	0.000431	20.767594
1056.293543	-3.016700	3.630500	-10.951000	25.397048	0.000429	20.776777
1057.292900	-2.985200	3.632200	-10.843000	25.423865	0.000429	20.791376
1058.293005	-2.986300	3.631000	-10.842000	25.453764	0.000429	20.765924
1059.293160	-2.999300	3.630900	-10.889000	25.369784	0.000429	20.788280
1060.293633	-2.989700	3.629900	-10.851000	25.332382	0.000427	20.783443
1061.295726	-3.041200	3.629000	-11.035000	25.317366	0.000428	20.790177
1062.295911	-3.005200	3.629100	-10.904000	25.302927	0.000428	20.779947
1063.295331	-2.983300	3.629800	-10.828000	25.300788	0.000428	20.764049
1064.294387	-2.993200	3.629300	-10.863000	25.322836	0.000425	20.794720
1065.295833	-2.972300	3.628800	-10.785000	25.333697	0.000429	20.789030
1066.293201	-2.982700	3.627800	-10.820000	25.366781	0.000427	20.787636
1067.297181	-2.992000	3.628500	-10.856000	25.398317	0.000426	20.778050
1068.299174	-2.992700	3.627200	-10.855000	25.363743	0.000427	20.792647
1069.295631	-2.999600	3.626600	-10.878000	25.321490	0.000427	20.769661
1070.299063	-3.010500	3.627300	-10.919000	25.287315	0.000425	20.768065
1071.297184	-3.007600	3.627000	-10.907000	25.265419	0.000424	20.780220
1072.296828	-2.981500	3.626700	-10.812000	25.280552	0.000423	20.777870
1073.297085	-2.990000	3.626300	-10.842000	25.246824	0.000422	20.786207
1074.297173	-3.011800	3.626100	-10.920000	25.293853	0.000424	20.770361
1075.296340	-2.988900	3.624900	-10.834000	25.305356	0.000422	20.772428
1076.298425	-3.011100	3.625400	-10.915000	25.278889	0.000422	20.798011
1077.301330	-2.979300	3.626700	-10.804000	25.251670	0.000424	20.766416
1078.298115	-3.004300	3.625000	-10.889000	25.248840	0.000420	20.746978
1079.297381	-2.992600	3.624500	-10.846000	25.259350	0.000421	20.778868
1080.303995	-3.009500	3.623900	-10.905000	25.242373	0.000420	20.762771
1081.297511	-2.986000	3.623800	-10.820000	25.273570	0.000422	20.785085
1082.299130	-3.008600	3.623400	-10.900000	25.317388	0.000422	20.774551
1083.300603	-3.000500	3.624300	-10.874000	25.350469	0.000421	20.778369
1084.297297	-3.007700	3.621800	-10.892000	25.351861	0.000422	20.781664
1085.296502	-2.991400	3.622900	-10.836000	25.366200	0.000421	20.763345
1086.301840	-3.003900	3.622200	-10.879000	25.383126	0.000419	20.765167
1087.299551	-2.989200	3.623000	-10.828000	25.335583	0.000418	20.762948
1088.299925	-3.015200	3.621400	-10.917000	25.329144	0.000419	20.760751
1089.302516	-3.014000	3.621300	-10.913000	25.307643	0.000418	20.749594
1090.299473	-3.026200	3.621600	-10.958000	25.332323	0.000415	20.775323
1091.299266	-3.006200	3.620500	-10.883000	25.340132	0.000417	20.773681
1092.303059	-2.971700	3.621700	-10.761000	25.366549	0.000418	20.771756
1093.300627	-2.999700	3.620400	-10.860000	25.386206	0.000417	20.785804
1094.300333	-3.009900	3.620700	-10.897000	25.372036	0.000416	20.789120
1095.302939	-2.992500	3.618900	-10.828000	25.346166	0.000417	20.769307
1096.300237	-3.034800	3.618900	-10.981000	25.354613	0.000417	20.764513
1097.301082	-2.986000	3.620300	-10.809000	25.366123	0.000417	20.753310
1098.304884	-2.982800	3.619000	-10.794000	25.354465	0.000417	20.766261
1099.303151	-2.984100	3.618500	-10.796000	25.351626	0.000416	20.766254
1100.303563	-2.987700	3.619300	-10.813000	25.290139	0.000414	20.762839
1101.308786	-3.019900	3.619000	-10.927000	25.294361	0.000415	20.763285
1102.302962	-3.023200	3.616900	-10.934000	25.328909	0.000414	20.747712
1103.304840	-3.020600	3.617700	-10.927000	25.330298	0.000413	20.777083
1104.308870	-3.012900	3.616700	-10.896000	25.390792	0.000414	20.762433
1105.304419	-2.998400	3.616400	-10.843000	25.405257	0.000412	20.748509
1106.304165	-2.958300	3.617500	-10.700000	25.412760	0.000413	20.746559
1107.306395	-3.010300	3.614600	-10.879000	25.413528	0.000412	20.762978
1108.304107	-2.997200	3.616400	-10.839000	25.400631	0.000410	20.766149
1109.305557	-3.003900	3.615600	-10.860000	25.371301	0.000409	20.745707
1110.306561	-3.003600	3.615600	-10.859000	25.343091	0.000413	20.759107
1111.304908	-3.009800	3.615200	-10.880000	25.331758	0.000410	20.753417
1112.306760	-2.989500	3.614900	-10.806000	25.329668	0.000410	20.754638
1113.307560	-2.993500	3.613700	-10.817000	25.285002	0.000411	20.746776
1114.306930	-3.018900	3.613300	-10.907000	25.317238	0.000409	20.757331
1115.308139	-3.005000	3.614400	-10.861000	25.343684	0.000409	20.752116
1116.316586	-2.977500	3.614200	-10.760000	25.372511	0.000408	20.744076
1117.307785	-2.995800	3.613900	-10.825000	25.403951	0.000409	20.746723
1118.307686	-2.997600	3.613100	-10.829000	25.403031	0.000409	20.754335
1119.310011	-2.977100	3.614100	-10.758000	25.405861	0.000407	20.744374
1120.310136	-2.982000	3.613100	-10.773000	25.416821	0.000407	20.737360
1121.307436	-3.000800	3.611900	-10.837000	25.451463	0.000404	20.752707
1122.310850	-2.998000	3.611900	-10.828000	25.451787	0.000406	20.736911
1123.308119	-3.001200	3.611400	-10.837000	25.444507	0.000406	20.740506
1124.308597	-3.006900	3.610600	-10.856000	25.423830	0.000404	20.769529
1125.310604	-3.002900	3.610800	-10.841000	25.387918	0.000403	20.750538
1126.305893	-3.004000	3.610200	-10.843000	25.373625	0.000404	20.755153
1127.315565	-3.006100	3.609700	-10.850000	25.410034	0.000405	20.745244
1128.313910	-3.012500	3.608900	-10.870000	25.410157	0.000404	20.754378
1129.309273	-3.025600	3.609000	-10.918000	25.434761	0.000405	20.742573
1130.310331	-2.987700	3.609000	-10.781000	25.412694	0.000403	20.751709
1131.309560	-3.002900	3.609500	-10.838000	25.380680	0.000403	20.737580
1132.309660	-2.983800	3.609600	-10.769000	25.363233	0.000402	20.736657
1133.309587	-2.986200	3.609100	-10.777000	25.388010	0.000403	20.745415
1134.309755	-2.999600	3.609000	-10.824000	25.340341	0.000402	20.732637
1135.310492	-2.992000	3.607700	-10.794000	25.358535	0.000403	20.742846
1136.310187	-2.998000	3.608800	-10.818000	25.366412	0.000400	20.748384
1137.310327	-2.984600	3.607800	-10.767000	25.348992	0.000400	20.734685
1138.309471	-2.993800	3.607300	-10.799000	25.324958	0.000400	20.731416
1139.308895	-3.004400	3.607100	-10.836000	25.306336	0.000400	20.753497
1140.311753	-3.006700	3.605000	-10.838000	25.327763	0.000401	20.731388
1141.311702	-3.002100	3.606000	-10.825000	25.354850	0.000402	20.735352
1142.312579	-2.977700	3.607400	-10.741000	25.346726	0.000400	20.727669
1143.314269	-3.005600	3.604900	-10.834000	25.358631	0.000400	20.747209
1144.313713	-3.017300	3.605900	-10.879000	25.355695	0.000397	20.726717
1145.313973	-2.985900	3.605300	-10.764000	25.328306	0.000399	20.721027
1146.316044	-3.021900	3.603600	-10.889000	25.372695	0.000397	20.740468
1147.315472	-3.012500	3.603500	-10.854000	25.393843	0.000397	20.746530
1148.315764	-2.986500	3.603800	-10.762000	25.445538	0.000396	20.726367
1149.314837	-3.011900	3.603200	-10.851000	25.413926	0.000395	20.737772
1150.315035	-3.001400	3.603800	-10.815000	25.391954	0.000395	20.754117
1151.315627	-3.000000	3.603800	-10.811000	25.421953	0.000396	20.733979
1152.315603	-3.000700	3.603300	-10.811000	25.380769	0.000396	20.736721
1153.317206	-2.989900	3.602800	-10.771000	25.354022	0.000395	20.758229
1154.316600	-2.989600	3.601300	-10.766000	25.368143	0.000395	20.717878
1155.317763	-2.978200	3.602600	-10.729000	25.399105	0.000397	20.740434
1156.318114	-2.994100	3.602200	-10.784000	25.401790	0.000392	20.750243
1157.319174	-3.019500	3.600900	-10.872000	25.415456	0.000395	20.734567
1158.317449	-3.007400	3.601000	-10.829000	25.428131	0.000394	20.733070
1159.321088	-3.005700	3.600500	-10.821000	25.413768	0.000393	20.735243
1160.319405	-3.009100	3.598600	-10.827000	25.419258	0.000391	20.732695
1161.322303	-2.987900	3.600000	-10.755000	25.387448	0.000393	20.745324
1162.322443	-3.004900	3.598700	-10.812000	25.353643	0.000392	20.737459
1163.322711	-3.002000	3.598600	-10.801000	25.308780	0.000392	20.722759
1164.320798	-2.985000	3.600100	-10.745000	25.327071	0.000392	20.730219
1165.325112	-2.982900	3.598300	-10.733000	25.362065	0.000392	20.734536
1166.324434	-2.986900	3.598200	-10.746000	25.377994	0.000391	20.723029
1167.324128	-3.004100	3.598600	-10.809000	25.371979	0.000390	20.743068
1168.325465	-2.967200	3.597800	-10.674000	25.394994	0.000392	20.728719
1169.323802	-3.023000	3.596600	-10.871000	25.429933	0.000391	20.717335
1170.324074	-3.001200	3.596700	-10.794000	25.408635	0.000387	20.721553
1171.324683	-2.987900	3.597300	-10.748000	25.421705	0.000390	20.724247
1172.324186	-2.983300	3.596700	-10.729000	25.403188	0.000388	20.713238
1173.327360	-2.967200	3.596600	-10.670000	25.474661	0.000388	20.725740
1174.329482	-2.996200	3.595100	-10.771000	25.434155	0.000387	20.732481
1175.325325	-2.996700	3.595500	-10.773000	25.457064	0.000387	20.739364
1176.325464	-3.002400	3.595900	-10.796000	25.467896	0.000387	20.727482
1177.326712	-2.999700	3.595000	-10.782000	25.515933	0.000386	20.739213
1178.324873	-3.016300	3.594800	-10.841000	25.537131	0.000388	20.716876
1179.325469	-2.978200	3.595500	-10.707000	25.500599	0.000388	20.728080
1180.325296	-2.993900	3.594500	-10.761000	25.441673	0.000386	20.727228
1181.327205	-3.003500	3.593300	-10.791000	25.397240	0.000385	20.732872
1182.326593	-2.988000	3.593900	-10.738000	25.351979	0.000384	20.722037
1183.328741	-2.992200	3.592800	-10.749000	25.394827	0.000386	20.734716
1184.325854	-3.002300	3.591900	-10.783000	25.441374	0.000384	20.706063
1185.325038	-2.968900	3.593000	-10.666000	25.452876	0.000382	20.719036
1186.327665	-3.006400	3.591900	-10.798000	25.519775	0.000386	20.741648
1187.329721	-2.980300	3.592300	-10.706000	25.501435	0.000382	20.736507
1188.331715	-2.987500	3.591900	-10.730000	25.508320	0.000384	20.730144
1189.328216	-3.010700	3.591700	-10.813000	25.469303	0.000383	20.741698
1190.328018	-3.002500	3.591400	-10.783000	25.466964	0.000381	20.739349
1191.328115	-3.011700	3.589800	-10.811000	25.462042	0.000381	20.736776
1192.332846	-2.988800	3.590900	-10.732000	25.454709	0.000382	20.728464
1193.330107	-3.024500	3.588800	-10.854000	25.489449	0.000383	20.734427
1194.327183	-3.027800	3.588600	-10.864000	25.525657	0.000383	20.718630
1195.337192	-2.982400	3.590700	-10.708000	25.492328	0.000380	20.740164
1196.331330	-2.979500	3.589300	-10.694000	25.473766	0.000380	20.739067
1197.332446	-3.010500	3.589100	-10.804000	25.464245	0.000381	20.749421
1198.336634	-3.001300	3.587500	-10.767000	25.481938	0.000378	20.716452
1199.332521	-2.969200	3.590300	-10.659000	25.471723	0.000383	20.743179
1200.332834	-2.998000	3.588600	-10.757000	25.514369	0.000379	20.757556
1201.336526	-3.008400	3.589000	-10.796000	25.510786	0.000379	20.751113
1202.332145	-3.007800	3.588000	-10.791000	25.505169	0.000378	20.745473
1203.332176	-3.000100	3.587300	-10.762000	25.473210	0.000379	20.751786
1204.338343	-2.998800	3.586800	-10.755000	25.437720	0.000379	20.723732
1205.334119	-3.016600	3.585800	-10.816000	25.415153	0.000377	20.757972
1206.333629	-2.990000	3.586700	-10.723000	25.449694	0.000375	20.715841
1207.334236	-3.000500	3.585500	-10.758000	25.397083	0.000375	20.719910
1208.333547	-2.994000	3.585000	-10.732000	25.366735	0.000376	20.747760
1209.334158	-2.996100	3.585500	-10.742000	25.396981	0.000375	20.747785
1210.335223	-2.982600	3.586300	-10.696000	25.425035	0.000376	20.737548
1211.333826	-2.999000	3.584800	-10.750000	25.447355	0.000376	20.727717
1212.335067	-3.005300	3.584300	-10.771000	25.453641	0.000376	20.735453
1213.334114	-3.009300	3.584800	-10.787000	25.477444	0.000374	20.740390
1214.335895	-3.000700	3.583600	-10.752000	25.473149	0.000374	20.743189
1215.336762	-3.008500	3.583100	-10.779000	25.478812	0.000373	20.743660
1216.336491	-2.997000	3.583200	-10.738000	25.500303	0.000372	20.751017
1217.337246	-2.990900	3.583200	-10.716000	25.492751	0.000375	20.744382
1218.336264	-2.975300	3.583900	-10.662000	25.560392	0.000373	20.736919
1219.335742	-2.989200	3.581900	-10.706000	25.589763	0.000371	20.752192
1220.334998	-2.989600	3.583500	-10.712000	25.549332	0.000372	20.738614
1221.334774	-2.992300	3.581300	-10.715000	25.551915	0.000374	20.743105
1222.336032	-3.001000	3.581900	-10.748000	25.565008	0.000370	20.748194
1223.335019	-2.991000	3.579800	-10.706000	25.545404	0.000370	20.739885
1224.334244	-3.006800	3.581200	-10.767000	25.507632	0.000372	20.751739
1225.335878	-3.012300	3.580300	-10.784000	25.497069	0.000370	20.729276
1226.340947	-3.009400	3.579400	-10.772000	25.493514	0.000370	20.746096
1227.337214	-3.001200	3.579300	-10.742000	25.507354	0.000368	20.741029
1228.336650	-3.020300	3.578700	-10.808000	25.493887	0.000369	20.745522
1229.341990	-3.013500	3.579200	-10.785000	25.493609	0.000371	20.750460
1230.336915	-3.014600	3.578300	-10.787000	25.506432	0.000368	20.743896
1231.337181	-3.006500	3.577800	-10.755000	25.559760	0.000368	20.743397
1232.339210	-2.996900	3.579100	-10.725000	25.566095	0.000369	20.742172
1233.337191	-2.982000	3.578200	-10.669000	25.548401	0.000370	20.757594
1234.338703	-2.997700	3.577000	-10.722000	25.535205	0.000368	20.760464
1235.339796	-2.984900	3.577400	-10.677000	25.455333	0.000365	20.762283
1236.338099	-2.985500	3.577500	-10.680000	25.441963	0.000366	20.753125
1237.339461	-2.993100	3.576400	-10.703000	25.476334	0.000364	20.757767
1238.341088	-3.031100	3.575900	-10.837000	25.504389	0.000367	20.750379
1239.339095	-2.980700	3.575900	-10.657000	25.497303	0.000367	20.747531
1240.339579	-2.995700	3.574500	-10.707000	25.471362	0.000365	20.772216
1241.342322	-2.983100	3.574800	-10.663000	25.495316	0.000367	20.764028
1242.342215	-3.002500	3.574600	-10.732000	25.496334	0.000364	20.782120
1243.342078	-3.014000	3.574500	-10.772000	25.566882	0.000365	20.775206
1244.342505	-3.018800	3.573900	-10.787000	25.564200	0.000362	20.758762
1245.339115	-2.992600	3.573400	-10.692000	25.518819	0.000364	20.766293
1246.342759	-2.991400	3.574200	-10.691000	25.518668	0.000362	20.759503
1247.341789	-3.004200	3.573700	-10.735000	25.556742	0.000363	20.744633
1248.339631	-3.017600	3.571700	-10.777000	25.533477	0.000361	20.760151
1249.342930	-3.047900	3.573000	-10.889000	25.490289	0.000360	20.753764
1250.342322	-3.000300	3.572700	-10.718000	25.516452	0.000362	20.753959
1251.341122	-2.987300	3.573000	-10.673000	25.508228	0.000361	20.761347
1252.340324	-3.002000	3.572100	-10.723000	25.517471	0.000361	20.762094
1253.342742	-2.998700	3.571900	-10.710000	25.520853	0.000361	20.765491
1254.343440	-3.007000	3.569300	-10.732000	25.528080	0.000360	20.755679
1255.341833	-3.021700	3.571000	-10.790000	25.513123	0.000359	20.767211
1256.344977	-3.000300	3.570700	-10.712000	25.520427	0.000358	20.769331
1257.341319	-3.003500	3.570600	-10.723000	25.511086	0.000361	20.761372
1258.344239	-2.982500	3.570800	-10.649000	25.497761	0.000359	20.764586
1259.343914	-3.025800	3.569100	-10.798000	25.467813	0.000360	20.770549
1260.343600	-3.030900	3.569200	-10.817000	25.447933	0.000357	20.765283
1261.343540	-3.021000	3.568500	-10.780000	25.428622	0.000356	20.766281
1262.345624	-3.009100	3.569400	-10.739000	25.431527	0.000360	20.756869
1263.344676	-3.010400	3.567800	-10.740000	25.471514	0.000356	20.763833
1264.343950	-3.023100	3.567800	-10.785000	25.503396	0.000356	20.748433
1265.343846	-2.995500	3.567500	-10.685000	25.473177	0.000356	20.761710
1266.344071	-3.022300	3.566400	-10.778000	25.483639	0.000356	20.757043
1267.344891	-3.002900	3.568400	-10.715000	25.476081	0.000356	20.779800
1268.345623	-3.010700	3.565900	-10.736000	25.504263	0.000356	20.779651
1269.344103	-3.013500	3.567200	-10.749000	25.476155	0.000355	20.768020
1270.345434	-3.011700	3.565900	-10.738000	25.464326	0.000354	20.776530
1271.346025	-3.005900	3.565900	-10.718000	25.507417	0.000354	20.773335
1272.345594	-2.998800	3.565700	-10.692000	25.526353	0.000354	20.776230
1273.344859	-3.043900	3.563800	-10.847000	25.555749	0.000354	20.781095
1274.346435	-2.998000	3.564800	-10.687000	25.557212	0.000352	20.758856
1275.346499	-2.999300	3.564700	-10.691000	25.560544	0.000355	20.779747
1276.346737	-3.003900	3.564500	-10.706000	25.496974	0.000352	20.778021
1277.348658	-2.992300	3.564100	-10.664000	25.489642	0.000353	20.773503
1278.349140	-3.011900	3.562800	-10.730000	25.482411	0.000353	20.774776
1279.349863	-3.025600	3.562200	-10.777000	25.520406	0.000352	20.793966
1280.352099	-2.993800	3.562500	-10.664000	25.546498	0.000350	20.782236
1281.349339	-2.987200	3.564100	-10.645000	25.534497	0.000352	20.769709
1282.351398	-2.999400	3.563100	-10.686000	25.491978	0.000354	20.789599
1283.351374	-2.967700	3.563100	-10.573000	25.534694	0.000349	20.795987
1284.354869	-2.992700	3.561900	-10.659000	25.554971	0.000352	20.784108
1285.351375	-3.018900	3.560500	-10.748000	25.555292	0.000350	20.776844
1286.351645	-2.987700	3.561600	-10.640000	25.576088	0.000349	20.805789
1287.355459	-2.996700	3.561100	-10.671000	25.562421	0.000348	20.785425
1288.352625	-2.985900	3.560600	-10.631000	25.558693	0.000349	20.782156
1289.351915	-3.000300	3.560300	-10.681000	25.541397	0.000348	20.775691
1290.356829	-2.995700	3.558900	-10.660000	25.517888	0.000349	20.785273
1291.352576	-2.988400	3.560800	-10.640000	25.540647	0.000347	20.785844
1292.352747	-3.000800	3.558300	-10.677000	25.515574	0.000349	20.798122
1293.362031	-2.986800	3.558100	-10.625000	25.521885	0.000346	20.782649
1294.352839	-3.008300	3.558500	-10.704000	25.486248	0.000346	20.789535
1295.353875	-3.019000	3.557800	-10.740000	25.483390	0.000345	20.786665
1296.361495	-2.985700	3.557300	-10.620000	25.495543	0.000348	20.795550
1297.356828	-3.002500	3.558500	-10.683000	25.537213	0.000345	20.787136
1298.356406	-3.002500	3.557100	-10.680000	25.526606	0.000345	20.781700
1299.357481	-3.004800	3.557800	-10.690000	25.560823	0.000345	20.811321
1300.355970	-3.001100	3.556000	-10.671000	25.565566	0.000344	20.797593
1301.355402	-2.995400	3.556300	-10.652000	25.520512	0.000343	20.807348
1302.357414	-2.999000	3.556700	-10.666000	25.516559	0.000344	20.778723
1303.355801	-3.000900	3.556200	-10.670000	25.530251	0.000344	20.799585
1304.357159	-3.031300	3.553700	-10.772000	25.520287	0.000345	20.808071
1305.357404	-2.988400	3.555100	-10.623000	25.499734	0.000342	20.804026
1306.358054	-3.004500	3.555800	-10.683000	25.505866	0.000343	20.807340
1307.363526	-3.009000	3.554400	-10.694000	25.480940	0.000342	20.784679
1308.362042	-3.006500	3.554900	-10.686000	25.467170	0.000343	20.807361
1309.357193	-3.016500	3.553700	-10.719000	25.461828	0.000341	20.817644
1310.359917	-3.002000	3.554000	-10.668000	25.474923	0.000339	20.795706
1311.362371	-2.972400	3.554000	-10.562000	25.558046	0.000341	20.799050
1312.360728	-3.027100	3.552100	-10.751000	25.550860	0.000339	20.819807
1313.359703	-2.993400	3.553300	-10.636000	25.529465	0.000342	20.824874
1314.357953	-3.005300	3.552200	-10.674000	25.567462	0.000340	20.812773
1315.360102	-3.022800	3.550700	-10.733000	25.526083	0.000343	20.815314
1316.360124	-3.014600	3.551900	-10.707000	25.578737	0.000340	20.826467
1317.362042	-3.013500	3.552500	-10.705000	25.557041	0.000337	20.798040
1318.360973	-3.019700	3.550400	-10.720000	25.516335	0.000337	20.820223
1319.360066	-2.993200	3.551300	-10.628000	25.476649	0.000337	20.833474
1320.362154	-2.983500	3.551300	-10.594000	25.503460	0.000339	20.811088
1321.370501	-2.972400	3.549900	-10.550000	25.533055	0.000337	20.816626
1322.360580	-2.976600	3.550000	-10.566000	25.585363	0.000337	20.815578
1323.361275	-3.017200	3.548600	-10.706000	25.593609	0.000337	20.820066
1324.360553	-2.987500	3.548000	-10.599000	25.583395	0.000337	20.814075
1325.361275	-2.975700	3.550000	-10.563000	25.566697	0.000333	20.832868
1326.363066	-2.979700	3.549500	-10.575000	25.580408	0.000338	20.831464
1327.359810	-2.991600	3.548300	-10.614000	25.570074	0.000336	20.806387
1328.361736	-2.983900	3.547900	-10.585000	25.557227	0.000335	20.821460
1329.360307	-2.975200	3.547700	-10.553000	25.589082	0.000335	20.833063
1330.359793	-2.989300	3.546700	-10.601000	25.625805	0.000334	20.803090
1331.361853	-2.995100	3.547800	-10.625000	25.666952	0.000334	20.825923
1332.360229	-2.988600	3.547300	-10.601000	25.643520	0.000333	20.823726
1333.360242	-2.992500	3.545800	-10.609000	25.656418	0.000334	20.821507
1334.362107	-2.996800	3.546500	-10.627000	25.694154	0.000335	20.835701
1335.368248	-3.004400	3.546200	-10.653000	25.719001	0.000335	20.847855
1336.362154	-3.006900	3.545800	-10.661000	25.715669	0.000336	20.840715
1337.363783	-3.014400	3.544700	-10.684000	25.676240	0.000333	20.838570
1338.363177	-3.000300	3.545100	-10.636000	25.670349	0.000333	20.819853
1339.363412	-2.993500	3.544000	-10.608000	25.659414	0.000333	20.834474
1340.368130	-2.997400	3.544600	-10.624000	25.626719	0.000331	20.830086
1341.364657	-2.990000	3.542800	-10.593000	25.628108	0.000331	20.842385
1342.365394	-2.979500	3.543400	-10.556000	25.619209	0.000330	20.839612
1343.364229	-2.986700	3.542700	-10.580000	25.599130	0.000329	20.835094
1344.365772	-2.992000	3.542200	-10.597000	25.605144	0.000330	20.837815
1345.364678	-2.975900	3.543500	-10.543000	25.566258	0.000332	20.835271
1346.364126	-2.962000	3.543100	-10.493000	25.576469	0.000329	20.812335
1347.363046	-2.995200	3.541800	-10.608000	25.591055	0.000327	20.833622
1348.365419	-2.989900	3.541200	-10.587000	25.610437	0.000330	20.833173
1349.366298	-2.969600	3.542200	-10.518000	25.649294	0.000328	20.839008
1350.367925	-2.988300	3.541200	-10.581000	25.628599	0.000329	20.839086
1351.366469	-2.994200	3.540000	-10.598000	25.665864	0.000329	20.841900
1352.366529	-2.989500	3.541300	-10.586000	25.669144	0.000328	20.830022
1353.367210	-3.013900	3.539500	-10.667000	25.673862	0.000326	20.829545
1354.367898	-3.022000	3.538400	-10.692000	25.675553	0.000327	20.825553
1355.371267	-2.975200	3.539400	-10.529000	25.638730	0.000326	20.843096
1356.368611	-3.019500	3.537100	-10.679000	25.604315	0.000327	20.847413
1357.367716	-3.008800	3.538400	-10.645000	25.614224	0.000326	20.831761
1358.368495	-3.018600	3.536900	-10.676000	25.632389	0.000326	20.842418
1359.369855	-3.019100	3.537100	-10.677000	25.653159	0.000326	20.847631
1360.374190	-3.027000	3.536200	-10.702000	25.678799	0.000323	20.842564
1361.368578	-3.014900	3.536300	-10.661000	25.626669	0.000325	20.854216
1362.369159	-2.998900	3.537000	-10.606000	25.600554	0.000323	20.868291
1363.368431	-3.008200	3.536200	-10.637000	25.564025	0.000326	20.830658
1364.373789	-2.990500	3.534900	-10.570000	25.630992	0.000325	20.861402
1365.371345	-3.020100	3.534700	-10.674000	25.635540	0.000324	20.852220
1366.369592	-3.015200	3.535900	-10.661000	25.616329	0.000323	20.852840
1367.369290	-3.008100	3.533800	-10.628000	25.631436	0.000323	20.835297
1368.369450	-3.004800	3.534500	-10.619000	25.654070	0.000325	20.858502
1369.371496	-3.000900	3.533200	-10.602000	25.683215	0.000323	20.854111
1370.372043	-2.983300	3.533900	-10.542000	25.684854	0.000323	20.867610
1371.377712	-3.002700	3.533100	-10.607000	25.686816	0.000322	20.858202
1372.372393	-3.014300	3.533000	-10.649000	25.631409	0.000320	20.852339
1373.372639	-2.994600	3.532000	-10.576000	25.640277	0.000321	20.865038
1374.372714	-2.991200	3.532300	-10.565000	25.657199	0.000322	20.861645
1375.374429	-2.979000	3.533400	-10.525000	25.685669	0.000319	20.858946
1376.372880	-2.983100	3.532500	-10.536000	25.708677	0.000324	20.853606
1377.375523	-2.991300	3.531200	-10.562000	25.719584	0.000321	20.859346
1378.378504	-3.001500	3.530100	-10.594000	25.746615	0.000321	20.844772
1379.388460	-3.027400	3.531000	-10.689000	25.779705	0.000321	20.861887
1380.375191	-2.993200	3.530100	-10.565000	25.809245	0.000317	20.853154
1381.377296	-3.005700	3.529700	-10.608000	25.736098	0.000317	20.869294
1382.376148	-3.009200	3.530000	-10.622000	25.688221	0.000316	20.861035
1383.376892	-2.989700	3.531300	-10.557000	25.647249	0.000318	20.846436
1384.377944	-3.045400	3.528000	-10.743000	25.623594	0.000318	20.854447
1385.378813	-3.004900	3.529500	-10.605000	25.610076	0.000317	20.857466
1386.377957	-2.984800	3.529100	-10.532000	25.610820	0.000317	20.870066
1387.380253	-2.985800	3.528000	-10.533000	25.604658	0.000317	20.873834
1388.379051	-2.972900	3.528400	-10.488000	25.586739	0.000315	20.862951
1389.380816	-3.003200	3.527800	-10.593000	25.612505	0.000316	20.863698
1390.379654	-2.975100	3.526800	-10.491000	25.634496	0.000317	20.884361
1391.380366	-2.966500	3.527800	-10.465000	25.643019	0.000313	20.872059
1392.379643	-2.972700	3.526900	-10.484000	25.599363	0.000315	20.868516
1393.383070	-2.991700	3.527900	-10.553000	25.578883	0.000314	20.888250
1394.384899	-2.988700	3.528000	-10.541000	25.608531	0.000315	20.858284
1395.382826	-3.002400	3.525800	-10.584000	25.639884	0.000314	20.876022
1396.383779	-2.988200	3.525800	-10.535000	25.679691	0.000312	20.880441
1397.382794	-3.028400	3.523500	-10.670000	25.728657	0.000313	20.863717
1398.382278	-3.021800	3.524300	-10.648000	25.744685	0.000312	20.868911
1399.383832	-3.010900	3.524200	-10.609000	25.725056	0.000313	20.891867
1400.383266	-3.006700	3.523000	-10.592000	25.778445	0.000311	20.881009
1401.384626	-3.005500	3.523700	-10.589000	25.751535	0.000313	20.885273
1402.386162	-3.009100	3.522500	-10.598000	25.756308	0.000311	20.872050
1403.385664	-3.002100	3.522100	-10.573000	25.721176	0.000313	20.896029
1404.385568	-3.004500	3.522700	-10.583000	25.693348	0.000310	20.897002
1405.386347	-3.016400	3.522400	-10.624000	25.722095	0.000312	20.895056
1406.390213	-3.007700	3.522300	-10.592000	25.753572	0.000310	20.909602
1407.387922	-2.995500	3.521500	-10.548000	25.767881	0.000310	20.876089
1408.385576	-2.986900	3.522500	-10.520000	25.735159	0.000310	20.879256
1409.387444	-3.007600	3.520900	-10.588000	25.677964	0.000309	20.875863
1410.385567	-2.997900	3.521100	-10.555000	25.662957	0.000308	20.895875
1411.390038	-3.008000	3.520700	-10.590000	25.676545	0.000309	20.857369
1412.386995	-2.978000	3.521100	-10.485000	25.648865	0.000310	20.869396
1413.388018	-2.982800	3.519700	-10.497000	25.685864	0.000309	20.871469
1414.389016	-3.002400	3.519700	-10.567000	25.689764	0.000308	20.864481
1415.389364	-3.009200	3.518300	-10.587000	25.717462	0.000308	20.898937
1416.387949	-3.017400	3.519000	-10.617000	25.752194	0.000308	20.898262
1417.390478	-3.003000	3.518200	-10.564000	25.752293	0.000305	20.858061
1418.386254	-3.012900	3.517400	-10.596000	25.736814	0.000306	20.861005
1419.389525	-3.000000	3.517600	-10.552000	25.717781	0.000307	20.888352
1420.388465	-3.008100	3.516300	-10.576000	25.692165	0.000306	20.855514
1421.387546	-3.013800	3.516300	-10.596000	25.666124	0.000303	20.874402
1422.387890	-3.015600	3.516700	-10.603000	25.675914	0.000305	20.873803
1423.390104	-3.010500	3.515800	-10.584000	25.664107	0.000302	20.871901
1424.387106	-2.990100	3.517800	-10.518000	25.621695	0.000305	20.849695
1425.387411	-2.962300	3.515700	-10.414000	25.623654	0.000303	20.860671
1426.390278	-3.020800	3.514100	-10.614000	25.639434	0.000302	20.861821
1427.388484	-3.007800	3.515000	-10.571000	25.654440	0.000305	20.866934
1428.389411	-2.990900	3.516200	-10.516000	25.689972	0.000302	20.856156
1429.390256	-3.012900	3.513100	-10.584000	25.705919	0.000302	20.893033
1430.389822	-3.038000	3.512000	-10.668000	25.694987	0.000301	20.856925
1431.392680	-2.995800	3.513100	-10.524000	25.706613	0.000303	20.853430
1432.392346	-3.010300	3.512900	-10.574000	25.694861	0.000302	20.864384
1433.392547	-2.968100	3.514400	-10.430000	25.658310	0.000303	20.857071
1434.394050	-2.987700	3.513200	-10.495000	25.664546	0.000301	20.867601
1435.401666	-3.008800	3.512100	-10.566000	25.615598	0.000301	20.868227
1436.394061	-3.001300	3.512800	-10.542000	25.608887	0.000299	20.853901
1437.397558	-3.001700	3.511700	-10.540000	25.659224	0.000300	20.869368
1438.394018	-3.010100	3.510800	-10.566000	25.647869	0.000301	20.864602
1439.393502	-3.014900	3.510000	-10.582000	25.722010	0.000299	20.866049
1440.395704	-3.026100	3.509400	-10.618000	25.728668	0.000300	20.850927
1441.393426	-2.985500	3.509600	-10.477000	25.741537	0.000299	20.874757
1442.405229	-2.992800	3.510200	-10.505000	25.732170	0.000298	20.857763
1443.393250	-2.981500	3.509400	-10.462000	25.697633	0.000297	20.867643
1444.394961	-3.013800	3.508500	-10.573000	25.672912	0.000295	20.862254
1445.398491	-3.013300	3.508200	-10.571000	25.665877	0.000296	20.849025
1446.395810	-3.012800	3.509200	-10.571000	25.641949	0.000298	20.849648
1447.399505	-3.009200	3.508100	-10.556000	25.658551	0.000296	20.852099
1448.398763	-3.011500	3.506500	-10.559000	25.671045	0.000295	20.839043
1449.395829	-2.985200	3.508600	-10.473000	25.673529	0.000296	20.856236
1450.398615	-2.973800	3.507300	-10.429000	25.705381	0.000297	20.832753
1451.399331	-3.010300	3.507200	-10.558000	25.697704	0.000294	20.843060
1452.395854	-2.994100	3.506400	-10.497000	25.695569	0.000297	20.853717
1453.400761	-3.008000	3.506600	-10.547000	25.743692	0.000296	20.822870
1454.400594	-3.010500	3.504700	-10.550000	25.728636	0.000294	20.842360
1455.397987	-3.033600	3.505300	-10.633000	25.705526	0.000293	20.844278
1456.408182	-2.994100	3.505600	-10.495000	25.708685	0.000292	20.846503
1457.404152	-3.010300	3.504300	-10.548000	25.709229	0.000292	20.854635
1458.398802	-2.997200	3.504100	-10.501000	25.671734	0.000293	20.830727
1459.400264	-2.985600	3.505700	-10.465000	25.656828	0.000292	20.828083
1460.401026	-2.992000	3.504400	-10.484000	25.739589	0.000293	20.846723
1461.399704	-2.990700	3.505100	-10.482000	25.782941	0.000293	20.840483
1462.402906	-3.003600	3.502300	-10.518000	25.841921	0.000292	20.828607
1463.402636	-2.997800	3.504300	-10.504000	25.799563	0.000291	20.840584
1464.399098	-3.011700	3.502700	-10.548000	25.701898	0.000292	20.846324
1465.405144	-2.998000	3.502700	-10.500000	25.671013	0.000291	20.850390
1466.403430	-3.005800	3.502400	-10.527000	25.628675	0.000291	20.813558
1467.400907	-3.003900	3.501700	-10.518000	25.619381	0.000288	20.813233
1468.406266	-3.001700	3.501500	-10.510000	25.590508	0.000287	20.830228
1469.402571	-2.997300	3.500700	-10.492000	25.605443	0.000290	20.819623
1470.403283	-3.002100	3.501300	-10.510000	25.645448	0.000290	20.820921
1471.405204	-3.002700	3.500600	-10.510000	25.653521	0.000289	20.835667
1472.404363	-3.002800	3.501300	-10.513000	25.679313	0.000290	20.819372
1473.401956	-3.007100	3.500700	-10.527000	25.714197	0.000288	20.814581
1474.407672	-2.984300	3.499500	-10.443000	25.735165	0.000289	20.824263
1475.406944	-2.997300	3.498700	-10.486000	25.737673	0.000286	20.830101
1476.401992	-2.999400	3.500200	-10.498000	25.730099	0.000288	20.797837
1477.405243	-3.003100	3.497800	-10.503000	25.693225	0.000287	20.829078
1478.406120	-2.983400	3.498100	-10.435000	25.690069	0.000285	20.791770
1479.405280	-3.007000	3.497700	-10.516000	25.706841	0.000288	20.801029
1480.408427	-3.019000	3.496900	-10.556000	25.678168	0.000287	20.837663
1481.410647	-2.992300	3.497400	-10.464000	25.701898	0.000286	20.798435
1482.409330	-2.992500	3.498000	-10.466000	25.714169	0.000284	20.810760
1483.412261	-2.995700	3.495500	-10.471000	25.700852	0.000284	20.819196
1484.417326	-3.004700	3.496600	-10.506000	25.664154	0.000284	20.816949
1485.410629	-3.010700	3.496200	-10.525000	25.661769	0.000286	20.817873
1486.409890	-3.000400	3.496500	-10.490000	25.640549	0.000284	20.816475
1487.412058	-3.004400	3.493700	-10.496000	25.653194	0.000284	20.805942
1488.408229	-2.990700	3.495100	-10.452000	25.664302	0.000285	20.809512
1489.411981	-3.015700	3.493900	-10.536000	25.655804	0.000283	20.821365
1490.413292	-2.995900	3.494600	-10.469000	25.620770	0.000283	20.801352
1491.409453	-2.989300	3.494000	-10.443000	25.614979	0.000282	20.818294
1492.410546	-3.014800	3.492700	-10.529000	25.615876	0.000282	20.803549
1493.412296	-2.988200	3.492500	-10.436000	25.652996	0.000283	20.821864
1494.410104	-2.981700	3.493200	-10.414000	25.660770	0.000283	20.786998
1495.415195	-2.989600	3.492200	-10.439000	25.694093	0.000283	20.825682
1496.413645	-2.995600	3.491900	-10.459000	25.686635	0.000282	20.810132
1497.410490	-2.996600	3.491800	-10.462000	25.655231	0.000281	20.809410
1498.411822	-3.019100	3.489400	-10.534000	25.638134	0.000280	20.807885
1499.411912	-2.997900	3.490800	-10.464000	25.648273	0.000283	20.829448
1500.411773	-3.005000	3.489500	-10.485000	25.684945	0.000280	20.811279
1501.411480	-3.025800	3.488900	-10.556000	25.711779	0.000279	20.803144
1502.412894	-2.996500	3.488700	-10.453000	25.731378	0.000280	20.804812
1503.409736	-2.965100	3.489300	-10.344000	25.737493	0.000280	20.813324
1504.414918	-2.989100	3.489300	-10.429000	25.732819	0.000279	20.820009
1505.414166	-3.003200	3.490000	-10.480000	25.751479	0.000278	20.805562
1506.417013	-3.004200	3.489500	-10.482000	25.762981	0.000278	20.809054
1507.418015	-3.011300	3.487000	-10.499000	25.805909	0.000277	20.799544
1508.416704	-3.004500	3.487800	-10.478000	25.747101	0.000277	20.783621
1509.418466	-3.001500	3.487600	-10.467000	25.702900	0.000276	20.786640
1510.415002	-2.998700	3.487800	-10.458000	25.679519	0.000278	20.805355
1511.417314	-2.984600	3.487600	-10.408000	25.683792	0.000278	20.799216
1512.412015	-2.990200	3.487300	-10.427000	25.683243	0.000275	20.802932
1513.416462	-3.000200	3.485100	-10.455000	25.727344	0.000276	20.806924
1514.415485	-3.008700	3.485200	-10.485000	25.702099	0.000275	20.793422
1515.413792	-3.011100	3.485700	-10.495000	25.703985	0.000273	20.793893
1516.416255	-3.014600	3.484100	-10.503000	25.697255	0.000275	20.767219
1517.414327	-3.013100	3.484000	-10.496000	25.692682	0.000276	20.797714
1518.415136	-3.010500	3.484700	-10.490000	25.721847	0.000275	20.789074
1519.417437	-2.992000	3.484700	-10.426000	25.738544	0.000274	20.803001
1520.415845	-2.976400	3.482900	-10.366000	25.781621	0.000276	20.801226
1521.417487	-2.998000	3.483600	-10.443000	25.800527	0.000273	20.776595
1522.415905	-2.994100	3.484100	-10.431000	25.831434	0.000275	20.784881
1523.415141	-3.000100	3.483000	-10.448000	25.855257	0.000274	20.788424
1524.416730	-2.992200	3.483000	-10.421000	25.863179	0.000274	20.777890
1525.417919	-3.006300	3.481800	-10.466000	25.871478	0.000273	20.787175
1526.418496	-3.028400	3.481400	-10.542000	25.915518	0.000274	20.772622
1527.416318	-2.993000	3.483200	-10.424000	25.846311	0.000273	20.800774
1528.419382	-3.007500	3.481700	-10.471000	25.756974	0.000271	20.812030
1529.419393	-3.001400	3.481500	-10.449000	25.707704	0.000270	20.787671
1530.416692	-2.961000	3.482800	-10.312000	25.710512	0.000271	20.783379
1531.422758	-3.008200	3.480400	-10.469000	25.743208	0.000271	20.796306
1532.422358	-2.987000	3.479600	-10.393000	25.724150	0.000271	20.818888
1533.421923	-3.016300	3.480100	-10.496000	25.705939	0.000270	20.784951
1534.421854	-2.996300	3.479600	-10.425000	25.748000	0.000269	20.791636
1535.421905	-3.008800	3.481100	-10.472000	25.783603	0.000269	20.786147
1536.421359	-3.008200	3.478400	-10.462000	25.809216	0.000269	20.776788
1537.421155	-3.023100	3.477800	-10.513000	25.785115	0.000269	20.787192
1538.421174	-3.001400	3.478200	-10.438000	25.768073	0.000269	20.778608
1539.420606	-3.013900	3.476900	-10.478000	25.798730	0.000268	20.776212
1540.425044	-3.000700	3.477700	-10.435000	25.764818	0.000267	20.756846
1541.425820	-2.997200	3.477700	-10.423000	25.762880	0.000269	20.778608
1542.423076	-3.013300	3.476600	-10.475000	25.739525	0.000268	20.782649
1543.423199	-2.991300	3.476700	-10.399000	25.727624	0.000267	20.774015
1544.425399	-2.981800	3.476000	-10.363000	25.720840	0.000268	20.782848
1545.429335	-3.013300	3.475300	-10.471000	25.760742	0.000266	20.780728
1546.421524	-3.011300	3.475600	-10.465000	25.747426	0.000266	20.777309
1547.424682	-3.002700	3.475700	-10.436000	25.752144	0.000266	20.779677
1548.424566	-3.030300	3.473400	-10.524000	25.671149	0.000266	20.775611
1549.427539	-2.994800	3.474400	-10.404000	25.649010	0.000264	20.767126
1550.425509	-2.998400	3.473300	-10.413000	25.666625	0.000264	20.769171
1551.428364	-2.981300	3.474600	-10.358000	25.649529	0.000266	20.783294
1552.428513	-2.986000	3.473100	-10.369000	25.670970	0.000266	20.774010
1553.430687	-2.997600	3.473200	-10.410000	25.682202	0.000263	20.768695
1554.429455	-3.006800	3.472600	-10.441000	25.678922	0.000265	20.776306
1555.431164	-3.006100	3.472100	-10.437000	25.663093	0.000264	20.769891
1556.430131	-3.001000	3.472200	-10.420000	25.704139	0.000264	20.777927
1557.428607	-3.027100	3.471600	-10.508000	25.701628	0.000264	20.770663
1558.431349	-3.002900	3.471200	-10.423000	25.693729	0.000263	20.761781
1559.432070	-3.019600	3.470700	-10.479000	25.718672	0.000261	20.756488
1560.434175	-3.006500	3.470600	-10.433000	25.712834	0.000261	20.778126
1561.436636	-2.987600	3.470800	-10.368000	25.720264	0.000262	20.759035
1562.436012	-3.015700	3.470000	-10.464000	25.713156	0.000260	20.783664
1563.432842	-3.024500	3.469700	-10.493000	25.763888	0.000260	20.767766
1564.436494	-3.024900	3.468900	-10.492000	25.730894	0.000263	20.772557
1565.435590	-2.979800	3.469500	-10.337000	25.722792	0.000260	20.776747
1566.435606	-3.001700	3.468200	-10.409000	25.724930	0.000261	20.764196
1567.437089	-3.013000	3.469200	-10.452000	25.691811	0.000260	20.759380
1568.436873	-3.017100	3.467600	-10.461000	25.704181	0.000259	20.766589
1569.436055	-3.000500	3.467500	-10.403000	25.745599	0.000259	20.763620
1570.437531	-3.003000	3.467700	-10.413000	25.691161	0.000257	20.746872
1571.437274	-2.999100	3.467200	-10.397000	25.680426	0.000258	20.764541
1572.436059	-2.990700	3.468200	-10.372000	25.722861	0.000258	20.736512
1573.436959	-2.979200	3.468100	-10.331000	25.811608	0.000260	20.758801
1574.436822	-3.002400	3.465700	-10.404000	25.788874	0.000257	20.764414
1575.435662	-2.992400	3.465900	-10.370000	25.748204	0.000257	20.746321
1576.436483	-3.021700	3.465300	-10.470000	25.690187	0.000257	20.746842
1577.437081	-3.012200	3.465200	-10.437000	25.705740	0.000255	20.745869
1578.436330	-3.004400	3.465400	-10.410000	25.677366	0.000255	20.756725
1579.434964	-3.007900	3.464900	-10.421000	25.639846	0.000258	20.750809
1580.438323	-2.999700	3.464800	-10.392000	25.642306	0.000255	20.735735
1581.435941	-3.016800	3.462500	-10.445000	25.677537	0.000255	20.735559
1582.438386	-3.020000	3.463400	-10.459000	25.749491	0.000255	20.740502
1583.438993	-2.989300	3.464700	-10.356000	25.729489	0.000256	20.761189
1584.437782	-3.005400	3.464400	-10.410000	25.690703	0.000256	20.756844
1585.438628	-3.013900	3.462700	-10.435000	25.650005	0.000254	20.761487
1586.439680	-3.016600	3.461400	-10.441000	25.702777	0.000254	20.778455
1587.438210	-3.017700	3.462000	-10.446000	25.656115	0.000253	20.751976
1588.438367	-2.997800	3.460500	-10.373000	25.651616	0.000252	20.746035
1589.441450	-3.007700	3.462100	-10.412000	25.689012	0.000253	20.748508
1590.439495	-2.997400	3.461100	-10.373000	25.686422	0.000253	20.738793
1591.437912	-2.995000	3.460900	-10.364000	25.713259	0.000252	20.762904
1592.440302	-3.017100	3.461200	-10.442000	25.722151	0.000253	20.747654
1593.439029	-3.030100	3.459800	-10.482000	25.705601	0.000252	20.756161
1594.440245	-3.002300	3.458700	-10.384000	25.712806	0.000251	20.758656
1595.439324	-2.996700	3.460100	-10.368000	25.743240	0.000250	20.728058
1596.442544	-2.991500	3.460300	-10.350000	25.762743	0.000252	20.752390
1597.439562	-2.987500	3.460000	-10.336000	25.774470	0.000251	20.755161
1598.440843	-3.015500	3.458000	-10.427000	25.760605	0.000249	20.737914
1599.440930	-3.008400	3.458300	-10.404000	25.760328	0.000249	20.756129
1600.440693	-3.024300	3.457200	-10.454000	25.725843	0.000251	20.760846
1601.442201	-2.999800	3.458100	-10.372000	25.754859	0.000247	20.751583
1602.443320	-2.968300	3.457800	-10.263000	25.778290	0.000248	20.731971
1603.444131	-3.020500	3.454300	-10.432000	25.809491	0.000249	20.751933
1604.441563	-2.997500	3.456400	-10.360000	25.747157	0.000249	20.738157
1605.442603	-2.994200	3.456800	-10.349000	25.758385	0.000247	20.736633
1606.444378	-3.001000	3.457000	-10.373000	25.765938	0.000250	20.739004
1607.446719	-2.979200	3.457100	-10.299000	25.772715	0.000246	20.744389
1608.443276	-2.999800	3.454400	-10.362000	25.737511	0.000247	20.737477
1609.441077	-3.010500	3.455400	-10.401000	25.721337	0.000248	20.745414
1610.441918	-3.019000	3.454300	-10.428000	25.763721	0.000246	20.751951
1611.444986	-2.979600	3.454100	-10.291000	25.732467	0.000247	20.743316
1612.444029	-2.978900	3.454800	-10.291000	25.747422	0.000246	20.743165
1613.444789	-3.005600	3.452600	-10.375000	25.727469	0.000246	20.744461
1614.445783	-2.999600	3.453400	-10.358000	25.740536	0.000246	20.741938
1615.446970	-2.992700	3.453800	-10.335000	25.688409	0.000245	20.744582
1616.447372	-3.012600	3.450600	-10.394000	25.691219	0.000245	20.741241
1617.448859	-2.997300	3.452400	-10.347000	25.690319	0.000244	20.727060
1618.451531	-2.996800	3.451300	-10.342000	25.708134	0.000243	20.720297
1619.451602	-2.977900	3.453200	-10.282000	25.744557	0.000243	20.736020
1620.449956	-3.005300	3.451000	-10.370000	25.752604	0.000245	20.733197
1621.453339	-2.998600	3.450800	-10.347000	25.753917	0.000245	20.775294
1622.450455	-2.990800	3.450800	-10.320000	25.807185	0.000242	20.731124
1623.449520	-3.023300	3.450200	-10.430000	25.802888	0.000242	20.754783
1624.451194	-2.974700	3.450900	-10.264000	25.833443	0.000242	20.742328
1625.450378	-3.003900	3.449700	-10.362000	25.808969	0.000242	20.749512
1626.449975	-3.012900	3.449600	-10.392000	25.767082	0.000242	20.733989
1627.449822	-2.980200	3.449300	-10.279000	25.791724	0.000241	20.740724
1628.450763	-2.974000	3.449600	-10.258000	25.761739	0.000242	20.758020
1629.458291	-2.992800	3.448400	-10.320000	25.803028	0.000240	20.751131
1630.451670	-2.985900	3.447600	-10.293000	25.841235	0.000241	20.741620
1631.454975	-3.017800	3.446700	-10.400000	25.854775	0.000238	20.740049
1632.456985	-3.005300	3.446300	-10.356000	25.861131	0.000240	20.749753
1633.456377	-2.980700	3.447500	-10.274000	25.866397	0.000241	20.741767
1634.454459	-2.993300	3.446700	-10.316000	25.843019	0.000240	20.728713
1635.455918	-2.978400	3.447700	-10.267000	25.848557	0.000239	20.741864
1636.453447	-2.973100	3.445700	-10.244000	25.858096	0.000239	20.746231
1637.454987	-2.992300	3.445800	-10.310000	25.855711	0.000238	20.733403
1638.457511	-2.975200	3.447300	-10.256000	25.841872	0.000237	20.740838
1639.454582	-3.003600	3.445400	-10.348000	25.860058	0.000237	20.715957
1640.453907	-2.992300	3.445600	-10.309000	25.874688	0.000237	20.758157
1641.459713	-2.992100	3.445500	-10.308000	25.807188	0.000237	20.739662
1642.455318	-2.998900	3.444100	-10.328000	25.789149	0.000234	20.744302
1643.455466	-2.980300	3.444300	-10.264000	25.772504	0.000236	20.767886
1644.456846	-2.971900	3.445200	-10.238000	25.777123	0.000239	20.747869
1645.453379	-2.980100	3.442800	-10.260000	25.756005	0.000237	20.739932
1646.454751	-2.979600	3.443200	-10.258000	25.764873	0.000234	20.744572
1647.458090	-2.984000	3.443600	-10.274000	25.762512	0.000236	20.757849
1648.459733	-3.006300	3.442900	-10.349000	25.794460	0.000234	20.754378
1649.457890	-2.991900	3.443400	-10.301000	25.829664	0.000233	20.745645
1650.458073	-3.014100	3.441900	-10.374000	25.859423	0.000235	20.749935
1651.453987	-2.990900	3.441600	-10.292000	25.865087	0.000233	20.746616
1652.455603	-2.981700	3.441000	-10.259000	25.857558	0.000234	20.742844
1653.458415	-3.021400	3.441600	-10.397000	25.860362	0.000234	20.736179
1654.454872	-2.984300	3.440400	-10.265000	25.831770	0.000234	20.741122
1655.460440	-3.006800	3.440500	-10.344000	25.800839	0.000234	20.741345
1656.455736	-3.003100	3.439700	-10.329000	25.805458	0.000235	20.778228
1657.459396	-3.002000	3.439300	-10.324000	25.781856	0.000234	20.757839
1658.456716	-3.005900	3.438500	-10.335000	25.748413	0.000233	20.745109
1659.462340	-2.998900	3.438700	-10.311000	25.748238	0.000232	20.764848
1660.461851	-2.991900	3.438400	-10.287000	25.761628	0.000231	20.747477
1661.458437	-3.020700	3.437900	-10.384000	25.789377	0.000232	20.760178
1662.462609	-3.000900	3.437800	-10.315000	25.784481	0.000230	20.747199
1663.461139	-2.984700	3.437700	-10.259000	25.793648	0.000230	20.747872
1664.462528	-3.031400	3.435200	-10.411000	25.838564	0.000231	20.761698
1665.463278	-2.986500	3.437100	-10.264000	25.822090	0.000230	20.738036
1666.461834	-3.017300	3.435600	-10.365000	25.819728	0.000230	20.753207
1667.462966	-3.008900	3.435800	-10.337000	25.843005	0.000230	20.748140
1668.468431	-2.990300	3.436500	-10.275000	25.848121	0.000228	20.772246
1669.464167	-3.013200	3.435600	-10.352000	25.883817	0.000229	20.777286
1670.465827	-2.997100	3.435300	-10.295000	25.919139	0.000230	20.756346
1671.469980	-3.012800	3.434600	-10.346000	25.944801	0.000230	20.752254
1672.466171	-2.997200	3.435500	-10.296000	25.909226	0.000228	20.757292
1673.467428	-3.010300	3.434300	-10.337000	25.947230	0.000225	20.763230
1674.468600	-3.004600	3.434500	-10.318000	25.949141	0.000227	20.752821
1675.465003	-3.032500	3.434500	-10.414000	25.928273	0.000226	20.766944
1676.467150	-3.007500	3.434100	-10.327000	25.914039	0.000225	20.766869
1677.469267	-3.004700	3.433000	-10.315000	25.908771	0.000226	20.770586
1678.465205	-3.000400	3.432200	-10.297000	25.844031	0.000227	20.762922
1679.466369	-3.004600	3.432000	-10.311000	25.809772	0.000227	20.762647
1680.467476	-2.981200	3.433900	-10.236000	25.861019	0.000227	20.776668
1681.467535	-3.022800	3.430400	-10.368000	25.903323	0.000224	20.780286
1682.466623	-2.995800	3.431000	-10.278000	25.908040	0.000224	20.750411
1683.467165	-2.984500	3.432400	-10.243000	25.914349	0.000226	20.773345
1684.467931	-3.003400	3.429600	-10.299000	25.878177	0.000223	20.775413
1685.469787	-2.999400	3.429200	-10.285000	25.915812	0.000225	20.756796
1686.469755	-3.022000	3.429100	-10.361000	25.898695	0.000225	20.761885
1687.470168	-2.999200	3.431000	-10.290000	25.891736	0.000224	20.781922
1688.469605	-3.001100	3.429000	-10.289000	25.901673	0.000222	20.762980
1689.471783	-2.995000	3.429200	-10.269000	25.911036	0.000222	20.779025
1690.470748	-3.005000	3.430000	-10.306000	25.951225	0.000224	20.772459
1691.470383	-3.007400	3.428900	-10.312000	25.945186	0.000224	20.757383
1692.470623	-3.024100	3.427600	-10.364000	25.938977	0.000223	20.759679
1693.470682	-2.977100	3.429300	-10.208000	25.907253	0.000222	20.764319
1694.470075	-2.983900	3.428000	-10.228000	25.898607	0.000222	20.765116
1695.475360	-2.992800	3.427600	-10.257000	25.878134	0.000223	20.797181
1696.471458	-2.996800	3.426600	-10.268000	25.842210	0.000222	20.758247
1697.471614	-3.009700	3.427000	-10.313000	25.860569	0.000220	20.775742
1698.469796	-3.004800	3.426700	-10.296000	25.853936	0.000220	20.771450
1699.471184	-2.993500	3.426500	-10.257000	25.816370	0.000220	20.763585
1700.470635	-3.005100	3.426300	-10.295000	25.835698	0.000220	20.785846
1701.471360	-2.995300	3.424700	-10.257000	25.868860	0.000217	20.771269
1702.471793	-3.017300	3.424500	-10.332000	25.848015	0.000218	20.793952
1703.471439	-2.989900	3.426100	-10.242000	25.818429	0.000217	20.792681
1704.470866	-3.002600	3.424300	-10.281000	25.818180	0.000219	20.783421
1705.472133	-2.992200	3.425500	-10.249000	25.793906	0.000218	20.786065
1706.472253	-2.998700	3.424000	-10.267000	25.788437	0.000216	20.782942
1707.472286	-2.986300	3.423400	-10.221000	25.751121	0.000216	20.795720
1708.476284	-3.021600	3.421600	-10.338000	25.790051	0.000216	20.777451
1709.472733	-2.998700	3.422200	-10.262000	25.821924	0.000216	20.780070
1710.473815	-3.003100	3.423000	-10.278000	25.881049	0.000218	20.787781
1711.479893	-3.006200	3.421500	-10.285000	25.850166	0.000217	20.797535
1712.473699	-2.992800	3.421700	-10.239000	25.871281	0.000217	20.777020
1713.473339	-3.000700	3.422500	-10.269000	25.852302	0.000216	20.800154
1714.477267	-3.021900	3.420900	-10.337000	25.879527	0.000215	20.790046
1715.475218	-3.017500	3.420300	-10.320000	25.925161	0.000216	20.779465
1716.478960	-2.999800	3.420300	-10.259000	25.990339	0.000216	20.788047
1717.478236	-3.008900	3.419400	-10.287000	25.994658	0.000216	20.797603
1718.476544	-3.018000	3.419100	-10.318000	25.922199	0.000216	20.794033
1719.477042	-3.007400	3.418700	-10.281000	25.901827	0.000214	20.795853
1720.478963	-3.008300	3.417600	-10.280000	25.894548	0.000214	20.794704
1721.479299	-3.005500	3.418700	-10.274000	25.858202	0.000213	20.793279
1722.480390	-2.997700	3.417900	-10.245000	25.886744	0.000212	20.793503
1723.480598	-3.003000	3.418000	-10.264000	25.863789	0.000212	20.789883
1724.477503	-2.999900	3.418100	-10.253000	25.824984	0.000216	20.810170
1725.481099	-2.990600	3.417900	-10.221000	25.821679	0.000212	20.811593
1726.480200	-3.009500	3.416800	-10.282000	25.816060	0.000211	20.805948
1727.478230	-2.996500	3.417900	-10.241000	25.832232	0.000210	20.806546
1728.480000	-2.990300	3.417500	-10.219000	25.867856	0.000212	20.799184
1729.481872	-3.004000	3.416400	-10.262000	25.882982	0.000211	20.812008
1730.482078	-2.997200	3.415900	-10.237000	25.879255	0.000211	20.792618
1731.487566	-3.001900	3.416500	-10.255000	25.943640	0.000209	20.792340
1732.487501	-3.010000	3.415600	-10.280000	25.896366	0.000208	20.818816
1733.479215	-2.999800	3.414700	-10.242000	25.870182	0.000208	20.808633
1734.482248	-2.990600	3.415100	-10.212000	25.894923	0.000208	20.802194
1735.482193	-2.976700	3.415900	-10.167000	25.886848	0.000210	20.804987
1736.480883	-2.987800	3.413300	-10.197000	25.871717	0.000209	20.829615
1737.483791	-2.987000	3.414200	-10.198000	25.903141	0.000210	20.813768
1738.485784	-2.984100	3.414300	-10.186000	25.896758	0.000209	20.814467
1739.483338	-2.991900	3.413900	-10.213000	25.838252	0.000207	20.822076
1740.488261	-3.006800	3.412600	-10.260000	25.835517	0.000208	20.814113
1741.484070	-2.988400	3.412600	-10.198000	25.885720	0.000207	20.796741
1742.481742	-3.015700	3.412400	-10.289000	25.862246	0.000205	20.813937
1743.488365	-3.012100	3.411200	-10.273000	25.842368	0.000206	20.820995
1744.485583	-2.993700	3.411000	-10.211000	25.850840	0.000205	20.807694
1745.483134	-2.981100	3.411900	-10.170000	25.863955	0.000206	20.819446
1746.491838	-2.985300	3.411100	-10.181000	25.877643	0.000208	20.813283
1747.484729	-2.998300	3.409800	-10.223000	25.877418	0.000207	20.817798
1748.482763	-2.974100	3.412100	-10.147000	25.905787	0.000206	20.820219
1749.483276	-2.989900	3.409100	-10.191000	25.945329	0.000205	20.802097
1750.485301	-3.009400	3.408800	-10.257000	25.978515	0.000205	20.821687
1751.483756	-3.022700	3.409200	-10.304000	25.964154	0.000205	20.815794
1752.483614	-2.977500	3.408500	-10.148000	25.927341	0.000204	20.827173
1753.485917	-2.998200	3.409000	-10.220000	25.894997	0.000205	20.830242
1754.483424	-2.997900	3.408600	-10.217000	25.897355	0.000202	20.848731
1755.482978	-3.019300	3.408000	-10.289000	25.910595	0.000205	20.822678
1756.485852	-3.011400	3.407800	-10.262000	25.930888	0.000203	20.828366
1757.497237	-3.004100	3.407100	-10.235000	25.899933	0.000202	20.817183
1758.483879	-3.015700	3.407000	-10.273000	25.867691	0.000202	20.832683
1759.486798	-2.996600	3.406700	-10.208000	25.876706	0.000202	20.851696
1760.483447	-2.998400	3.405300	-10.209000	25.889844	0.000202	20.820324
1761.484053	-2.989400	3.406500	-10.183000	25.947998	0.000201	20.809046
1762.487203	-3.000800	3.406300	-10.221000	25.917864	0.000200	20.834248
1763.487584	-3.008100	3.404900	-10.242000	25.934208	0.000201	20.815106
1764.487379	-3.034000	3.402900	-10.323000	25.976136	0.000200	20.832573
1765.489210	-2.992700	3.405000	-10.190000	25.995189	0.000200	20.847921
1766.487214	-3.011800	3.403000	-10.248000	26.017492	0.000200	20.839983
1767.489394	-3.001700	3.404400	-10.218000	26.044565	0.000200	20.817872
1768.489311	-3.010000	3.403200	-10.242000	26.066792	0.000199	20.844472
1769.487362	-3.015700	3.402100	-10.259000	25.980701	0.000199	20.855176
1770.488661	-3.004300	3.402400	-10.220000	25.996152	0.000197	20.858845
1771.490067	-3.006300	3.403200	-10.230000	26.017461	0.000199	20.844693
1772.488856	-2.978200	3.403600	-10.136000	25.966066	0.000201	20.831465
1773.486724	-2.998700	3.403100	-10.204000	25.964352	0.000198	20.839225
1774.489282	-2.974100	3.401900	-10.117000	25.976622	0.000199	20.834010
1775.489442	-2.975500	3.402500	-10.123000	25.963158	0.000198	20.846087
1776.489440	-2.978000	3.401400	-10.129000	25.891169	0.000196	20.857689
1777.489803	-3.001500	3.401800	-10.209000	25.901056	0.000196	20.845811
1778.489206	-3.005600	3.400000	-10.218000	25.954560	0.000198	20.862104
1779.489540	-3.005600	3.401000	-10.221000	25.978156	0.000198	20.825593
1780.489115	-2.980500	3.399800	-10.132000	26.036726	0.000197	20.840341
1781.502202	-3.007100	3.399900	-10.223000	26.079445	0.000196	20.830159
1782.490097	-2.995600	3.399700	-10.183000	26.118089	0.000196	20.843383
1783.490812	-2.995600	3.400500	-10.186000	26.162397	0.000196	20.847600
1784.489494	-3.015000	3.398100	-10.245000	26.156186	0.000195	20.855110
1785.489499	-3.038200	3.397400	-10.321000	26.129240	0.000194	20.845577
1786.490054	-3.004800	3.396700	-10.205000	26.110189	0.000195	20.845876
1787.494009	-2.999700	3.399700	-10.196000	26.124020	0.000195	20.855031
1788.491708	-2.997300	3.397600	-10.183000	26.110607	0.000193	20.859098
1789.493102	-3.020100	3.396000	-10.255000	26.053185	0.000193	20.850714
1790.493248	-3.015200	3.397000	-10.241000	26.052039	0.000193	20.864735
1791.489759	-2.988100	3.396700	-10.149000	25.988327	0.000192	20.864733
1792.493310	-3.026000	3.395800	-10.275000	25.932015	0.000192	20.853205
1793.495010	-3.016500	3.396500	-10.245000	25.963212	0.000192	20.862735
1794.492687	-2.987700	3.395800	-10.145000	26.014257	0.000192	20.852379
1795.491259	-2.995100	3.396800	-10.173000	26.058492	0.000192	20.835184
1796.496387	-2.989100	3.395100	-10.147000	26.056256	0.000191	20.867549
1797.493322	-3.007000	3.394900	-10.208000	26.030624	0.000191	20.863133
1798.491079	-2.999300	3.395500	-10.183000	26.041078	0.000192	20.865102
1799.496218	-3.019900	3.393700	-10.248000	26.098699	0.000189	20.844288
1800.492395	-2.962300	3.395000	-10.056000	26.083699	0.000190	20.869044
1801.491556	-3.013400	3.393000	-10.224000	26.081014	0.000191	20.862079
1802.495735	-3.011400	3.391900	-10.214000	26.029153	0.000189	20.879197
1803.494727	-2.992100	3.392400	-10.150000	26.037794	0.000189	20.861802
1804.493440	-3.034700	3.390400	-10.288000	26.004884	0.000188	20.839644
1805.495431	-2.999800	3.391500	-10.173000	26.012235	0.000189	20.868839
1806.494615	-3.021900	3.391100	-10.247000	26.065785	0.000188	20.858632
1807.495606	-2.972500	3.392700	-10.083000	26.115831	0.000189	20.896113
1808.498864	-2.998000	3.392600	-10.170000	26.126434	0.000189	20.880214
1809.494037	-2.963900	3.392100	-10.053000	26.151940	0.000187	20.865067
1810.497484	-2.993300	3.391000	-10.150000	26.088484	0.000187	20.887601
1811.499791	-3.000900	3.390900	-10.174000	26.076114	0.000188	20.872328
1812.496055	-3.001600	3.389700	-10.173000	26.097869	0.000185	20.872376
1813.497463	-3.007800	3.388300	-10.190000	26.088109	0.000186	20.872053
1814.501071	-3.012400	3.390300	-10.212000	26.053782	0.000186	20.859848
1815.499974	-2.977800	3.389500	-10.092000	26.050678	0.000186	20.882332
1816.499974	-3.003900	3.389300	-10.180000	26.071166	0.000186	20.885374
1817.502464	-2.994600	3.388400	-10.146000	26.080207	0.000185	20.867906
1818.499240	-2.986700	3.388100	-10.119000	26.109116	0.000185	20.890788
1819.500485	-2.992400	3.387300	-10.136000	26.135690	0.000186	20.876239
1820.500574	-2.998500	3.387000	-10.154000	26.153547	0.000185	20.897500
1821.499296	-3.020300	3.387800	-10.231000	26.174631	0.000185	20.872695
1822.501186	-3.000400	3.387500	-10.163000	26.237659	0.000185	20.884821
1823.502198	-3.002100	3.386400	-10.165000	26.213299	0.000184	20.879782
1824.501009	-3.020500	3.385600	-10.224000	26.254172	0.000183	20.877708
1825.501042	-3.006100	3.386900	-10.180000	26.188635	0.000182	20.869697
1826.501768	-3.016000	3.385600	-10.210000	26.129179	0.000182	20.862111
1827.500536	-2.995300	3.384500	-10.137000	26.100567	0.000182	20.880776
1828.501119	-3.005500	3.385700	-10.175000	26.066165	0.000179	20.864704
1829.503184	-2.987100	3.386000	-10.113000	26.064377	0.000180	20.887087
1830.501672	-2.988200	3.384300	-10.112000	26.078035	0.000181	20.896068
1831.500391	-3.014300	3.384500	-10.201000	26.125845	0.000180	20.888157
1832.505186	-3.013700	3.383900	-10.197000	26.102995	0.000179	20.886060
1833.502276	-3.007200	3.384200	-10.176000	26.117226	0.000179	20.902729
1834.502613	-3.018000	3.382800	-10.209000	26.096314	0.000181	20.885037
1835.505057	-2.979100	3.383300	-10.079000	26.124924	0.000180	20.888180
1836.504741	-2.986000	3.382100	-10.099000	26.142483	0.000180	20.893969
1837.505619	-2.983500	3.383300	-10.093000	26.167093	0.000180	20.896412
1838.504618	-2.998800	3.381400	-10.139000	26.186936	0.000179	20.903549
1839.506169	-3.005500	3.382200	-10.165000	26.229130	0.000179	20.888578
1840.510950	-3.016600	3.382200	-10.202000	26.257885	0.000179	20.902300
1841.508132	-3.011300	3.380100	-10.178000	26.240403	0.000177	20.907491
1842.507669	-3.019900	3.380600	-10.208000	26.233624	0.000177	20.907791
1843.511154	-3.013000	3.380000	-10.183000	26.242265	0.000177	20.889924
1844.511897	-2.999700	3.379800	-10.138000	26.213780	0.000175	20.883110
1845.508879	-2.989700	3.379300	-10.102000	26.182986	0.000175	20.877296
1846.510949	-2.999300	3.380300	-10.137000	26.148861	0.000176	20.903222
1847.512484	-2.986000	3.379900	-10.092000	26.109495	0.000178	20.907288
1848.510644	-2.987000	3.379900	-10.095000	26.099461	0.000176	20.926128
1849.512720	-3.004000	3.378600	-10.148000	26.118632	0.000173	20.906986
1850.515712	-2.983300	3.378700	-10.078000	26.129240	0.000174	20.920488
1851.512946	-3.000600	3.378000	-10.136000	26.187799	0.000175	20.914847
1852.516842	-3.017200	3.377500	-10.190000	26.243999	0.000175	20.888346
1853.515747	-2.991900	3.377900	-10.106000	26.261456	0.000175	20.905414
1854.514153	-3.002200	3.377200	-10.138000	26.262598	0.000174	20.903717
1855.515542	-3.025300	3.377800	-10.218000	26.260461	0.000171	20.904889
1856.516062	-2.994700	3.376400	-10.111000	26.246059	0.000172	20.911278
1857.515237	-2.982700	3.376100	-10.068000	26.230163	0.000174	20.903365
1858.520172	-2.995800	3.376300	-10.114000	26.250030	0.000173	20.922379
1859.520679	-3.030600	3.374800	-10.226000	26.170213	0.000171	20.904288
1860.519077	-3.018100	3.375100	-10.186000	26.173689	0.000172	20.888817
1861.519204	-2.994300	3.374800	-10.104000	26.147810	0.000173	20.904537
1862.519583	-3.000800	3.375500	-10.128000	26.078420	0.000172	20.906885
1863.515981	-3.010800	3.374000	-10.158000	26.117091	0.000171	20.900696
1864.518895	-2.999600	3.373600	-10.119000	26.134099	0.000169	20.893132
1865.518677	-3.020900	3.373000	-10.188000	26.166683	0.000171	20.873718
1866.521195	-3.028900	3.372900	-10.215000	26.204756	0.000170	20.898223
1867.518120	-3.017700	3.373300	-10.178000	26.208702	0.000171	20.876585
1868.518258	-3.021200	3.371200	-10.184000	26.216249	0.000170	20.893652
1869.518143	-3.026300	3.372400	-10.205000	26.241259	0.000168	20.866629
1870.518531	-3.013300	3.372000	-10.160000	26.283548	0.000170	20.874987
1871.518077	-3.007200	3.372100	-10.139000	26.219155	0.000170	20.872865
1872.518347	-3.002700	3.370900	-10.121000	26.189900	0.000167	20.880451
1873.518450	-3.027800	3.371400	-10.207000	26.153292	0.000168	20.855995
1874.518365	-2.995900	3.371500	-10.100000	26.122892	0.000168	20.873811
1875.520772	-3.002200	3.370400	-10.118000	26.083377	0.000165	20.876780
1876.520342	-2.988000	3.370900	-10.070000	26.128427	0.000168	20.869890
1877.519939	-2.988000	3.370700	-10.071000	26.119638	0.000165	20.887136
1878.520954	-3.028400	3.369600	-10.203000	26.120630	0.000167	20.882443
1879.521173	-2.996600	3.369600	-10.097000	26.181077	0.000165	20.858785
1880.519977	-3.039700	3.368400	-10.237000	26.157334	0.000165	20.859582
1881.521808	-3.012500	3.369300	-10.149000	26.177923	0.000165	20.866994
1882.521030	-3.001700	3.367200	-10.105000	26.191557	0.000164	20.875953
1883.524601	-3.006900	3.367800	-10.126000	26.216712	0.000162	20.852868
1884.522276	-2.996300	3.367200	-10.088000	26.240502	0.000165	20.876773
1885.522597	-2.983800	3.367900	-10.048000	26.224634	0.000162	20.860354
1886.526555	-2.991100	3.367600	-10.072000	26.224111	0.000165	20.858406
1887.523498	-2.999200	3.366000	-10.095000	26.243704	0.000163	20.861500
1888.524772	-3.006400	3.366800	-10.120000	26.261310	0.000163	20.887725
1889.527106	-3.025800	3.366000	-10.184000	26.276580	0.000162	20.870355
1890.525645	-3.026400	3.365300	-10.183000	26.235852	0.000162	20.859299
1891.525924	-3.002900	3.365600	-10.106000	26.247028	0.000163	20.842555
1892.528697	-3.009300	3.364500	-10.124000	26.200835	0.000162	20.867258
1893.525214	-3.004300	3.365900	-10.112000	26.241735	0.000161	20.854306
1894.524857	-3.000300	3.364200	-10.092000	26.300540	0.000161	20.883527
1895.527049	-2.989800	3.364500	-10.058000	26.298502	0.000163	20.865834
1896.528160	-2.984100	3.363600	-10.037000	26.294353	0.000162	20.863561
1897.527183	-2.999900	3.363200	-10.088000	26.325094	0.000161	20.841351
1898.529287	-3.000700	3.363100	-10.091000	26.305030	0.000160	20.870497
1899.526946	-2.995000	3.363400	-10.072000	26.269841	0.000161	20.853627
1900.528206	-3.019500	3.362500	-10.152000	26.322956	0.000160	20.853901
1901.528786	-3.017200	3.361000	-10.140000	26.312700	0.000160	20.874886
1902.527802	-3.017000	3.362200	-10.143000	26.344210	0.000159	20.849656
1903.528299	-3.025500	3.361200	-10.168000	26.323774	0.000159	20.850930
1904.533167	-2.989300	3.361200	-10.047000	26.333159	0.000158	20.866050
1905.529863	-2.994500	3.360800	-10.063000	26.349744	0.000157	20.850477
1906.530506	-2.987200	3.362300	-10.043000	26.300776	0.000158	20.857214
1907.532354	-3.006700	3.361200	-10.105000	26.271151	0.000159	20.854469
1908.530229	-2.998200	3.360600	-10.075000	26.280686	0.000157	20.857413
1909.532346	-3.024100	3.358600	-10.155000	26.284360	0.000156	20.859682
1910.533734	-3.006600	3.360200	-10.102000	26.304747	0.000157	20.862627
1911.533367	-2.986400	3.360500	-10.035000	26.325158	0.000156	20.848053
1912.532072	-3.026000	3.358100	-10.160000	26.295284	0.000157	20.835574
1913.533824	-3.011700	3.357600	-10.111000	26.343554	0.000157	20.855635
1914.531746	-3.013600	3.357800	-10.117000	26.378516	0.000156	20.849521
1915.532683	-3.017200	3.356800	-10.126000	26.359394	0.000155	20.833623
1916.533080	-2.999000	3.357700	-10.069000	26.330070	0.000154	20.838765
1917.534172	-3.006000	3.358000	-10.093000	26.307173	0.000154	20.848470
1918.532382	-3.023100	3.355500	-10.143000	26.246506	0.000154	20.842979
1919.533805	-3.024200	3.356500	-10.150000	26.257805	0.000155	20.842480
1920.535235	-3.005200	3.356600	-10.086000	26.293485	0.000153	20.839930
1921.534586	-2.988000	3.355500	-10.025000	26.284771	0.000153	20.843976
1922.536408	-3.020500	3.354100	-10.131000	26.269921	0.000152	20.848017
1923.539686	-3.005400	3.356000	-10.085000	26.244787	0.000154	20.853579
1924.536510	-3.006800	3.354400	-10.084000	26.288765	0.000152	20.844196
1925.537105	-3.000300	3.354800	-10.064000	26.322636	0.000152	20.843622
1926.539263	-3.021500	3.353700	-10.132000	26.365419	0.000152	20.838256
1927.536385	-2.997900	3.352700	-10.050000	26.422750	0.000151	20.816694
1928.536387	-2.970100	3.354800	-9.963100	26.395786	0.000151	20.836059
1929.542170	-2.982800	3.355100	-10.007000	26.379669	0.000151	20.837405
1930.539496	-3.011200	3.353100	-10.096000	26.308726	0.000150	20.834385
1931.537036	-3.013300	3.353100	-10.103000	26.264672	0.000150	20.842743
1932.541173	-3.002700	3.351400	-10.063000	26.314458	0.000149	20.844413
1933.537244	-3.011200	3.353200	-10.095000	26.333481	0.000150	20.838400
1934.537517	-3.000600	3.352600	-10.058000	26.373383	0.000151	20.818759
1935.542124	-3.022500	3.350900	-10.127000	26.397616	0.000148	20.848804
1936.537599	-2.998000	3.352100	-10.049000	26.338370	0.000150	20.831934
1937.537697	-3.010000	3.352100	-10.088000	26.342542	0.000147	20.820954
1938.542273	-2.992600	3.351100	-10.028000	26.370351	0.000150	20.847479
1939.539065	-3.024000	3.350200	-10.130000	26.412338	0.000149	20.847479
1940.540044	-2.989600	3.350100	-10.014000	26.442976	0.000147	20.848401
1941.541439	-2.994400	3.348900	-10.027000	26.465123	0.000148	20.826092
1942.539690	-2.985700	3.351700	-10.006000	26.429394	0.000148	20.832380
1943.540436	-2.987000	3.349400	-10.004000	26.393911	0.000147	20.828011
1944.546594	-3.015100	3.349500	-10.098000	26.390360	0.000146	20.825390
1945.543760	-2.995100	3.349600	-10.032000	26.420303	0.000147	20.824666
1946.542638	-3.014200	3.349000	-10.093000	26.426832	0.000147	20.847348
1947.547127	-3.015700	3.347100	-10.093000	26.413870	0.000146	20.809191
1948.545284	-3.003500	3.348500	-10.056000	26.407414	0.000144	20.833522
1949.550075	-2.995800	3.346700	-10.025000	26.434553	0.000145	20.839936
1950.548245	-3.005900	3.347600	-10.062000	26.413098	0.000143	20.842079
1951.546666	-2.989200	3.346500	-10.003000	26.392166	0.000145	20.821990
1952.547561	-2.978800	3.347200	-9.969300	26.359065	0.000144	20.835664
1953.549730	-2.993400	3.345600	-10.014000	26.360901	0.000141	20.831819
1954.546019	-2.987700	3.347100	-9.998000	26.315063	0.000141	20.832219
1955.549114	-2.998000	3.345100	-10.028000	26.366835	0.000145	20.814075
1956.545969	-2.989300	3.346300	-10.002000	26.382900	0.000140	20.828799
1957.546690	-3.007800	3.344100	-10.057000	26.426698	0.000141	20.837257
1958.549651	-3.002000	3.344700	-10.039000	26.453264	0.000140	20.825078
1959.547707	-2.984000	3.345200	-9.979800	26.425331	0.000141	20.823555
1960.547511	-3.014200	3.343100	-10.076000	26.395931	0.000141	20.829094
1961.547733	-2.988400	3.343600	-9.990800	26.380114	0.000138	20.818412
1962.549771	-3.001100	3.343400	-10.032000	26.388307	0.000141	20.829017
1963.547728	-3.011100	3.342600	-10.064000	26.367425	0.000140	20.827471
1964.552922	-2.994400	3.341900	-10.006000	26.396129	0.000138	20.823603
1965.553217	-3.002800	3.341700	-10.034000	26.393196	0.000140	20.816388
1966.549914	-2.991000	3.340800	-9.991300	26.444816	0.000138	20.804259
1967.551074	-2.988700	3.341200	-9.985300	26.448017	0.000139	20.829762
1968.554357	-3.028000	3.340000	-10.113000	26.468226	0.000139	20.815461
1969.549489	-2.999600	3.340800	-10.020000	26.525282	0.000135	20.828714
1970.555863	-3.010000	3.340100	-10.053000	26.475702	0.000140	20.811121
1971.553061	-3.000700	3.338900	-10.018000	26.432623	0.000136	20.813341
1972.550838	-3.017700	3.338500	-10.074000	26.482403	0.000136	20.824969
1973.553450	-2.992400	3.339900	-9.993900	26.511551	0.000137	20.812542
1974.556060	-2.977900	3.340500	-9.946800	26.569993	0.000136	20.818182
1975.553689	-3.006600	3.338100	-10.035000	26.541143	0.000136	20.820950
1976.553188	-3.007600	3.338900	-10.040000	26.493624	0.000138	20.817756
1977.556131	-2.997300	3.337400	-10.001000	26.501246	0.000136	20.821149
1978.551877	-2.998800	3.339100	-10.012000	26.487218	0.000135	20.809420
1979.551693	-3.021700	3.336200	-10.080000	26.489725	0.000135	20.809569
1980.555426	-2.997300	3.338000	-10.004000	26.453400	0.000132	20.821895
1981.551143	-3.000600	3.337000	-10.012000	26.473686	0.000134	20.807198
1982.551050	-2.991300	3.337100	-9.980900	26.496651	0.000131	20.805151
1983.551213	-2.989300	3.337000	-9.974300	26.460548	0.000133	20.795890
1984.551166	-2.986400	3.335700	-9.960600	26.413175	0.000133	20.806596
1985.550290	-3.000900	3.335000	-10.007000	26.386806	0.000133	20.819448
1986.551781	-3.009100	3.334800	-10.034000	26.392467	0.000133	20.799534
1987.552555	-2.999200	3.334900	-10.001000	26.389013	0.000131	20.783260
1988.555487	-3.007600	3.333600	-10.025000	26.394651	0.000131	20.810738
1989.553713	-2.995700	3.335500	-9.991600	26.376450	0.000133	20.805721
1990.555667	-2.988600	3.333600	-9.962100	26.408379	0.000130	20.798931
1991.555410	-3.007700	3.334200	-10.028000	26.454239	0.000129	20.797135
1992.557294	-3.014200	3.332400	-10.044000	26.439663	0.000129	20.808089
1993.557422	-3.006600	3.332700	-10.018000	26.457167	0.000130	20.800552
1994.557034	-2.978000	3.333500	-9.925900	26.441822	0.000128	20.808362
1995.557645	-3.007400	3.331900	-10.019000	26.477699	0.000129	20.801749
1996.557446	-2.986900	3.332100	-9.951300	26.483307	0.000127	20.798377
1997.558736	-3.010500	3.330700	-10.027000	26.483233	0.000127	20.805889
1998.560656	-3.010900	3.331300	-10.029000	26.512379	0.000129	20.801994
1999.560422	-3.019800	3.331600	-10.060000	26.562009	0.000126	20.816794
2000.558396	-3.009400	3.329800	-10.020000	26.592865	0.000126	20.797077
2001.559384	-3.013200	3.330500	-10.035000	26.564887	0.000128	20.801195
2002.557560	-2.996000	3.330500	-9.977700	26.558034	0.000125	20.814221
2003.559937	-2.977900	3.330300	-9.916200	26.542219	0.000125	20.813023
2004.560228	-2.995400	3.330200	-9.974400	26.434964	0.000125	20.792460
2005.559958	-2.984100	3.330200	-9.936500	26.414279	0.000125	20.774989
2006.561185	-2.990800	3.329700	-9.957600	26.425476	0.000123	20.795252
2007.561559	-2.981500	3.329100	-9.924400	26.462520	0.000124	20.794078
2008.561272	-2.989400	3.329400	-9.952500	26.492885	0.000125	20.804211
2009.560995	-2.978700	3.327100	-9.910000	26.530647	0.000125	20.813245
2010.560255	-2.980900	3.328100	-9.919700	26.488663	0.000125	20.775785
2011.561491	-3.000500	3.326200	-9.978500	26.506910	0.000123	20.812144
2012.562677	-3.004500	3.327000	-9.994800	26.428056	0.000124	20.790259
2013.562698	-2.991300	3.326700	-9.950400	26.455393	0.000122	20.810622
2014.569035	-2.990700	3.327400	-9.948800	26.483347	0.000121	20.801736
2015.562877	-2.987400	3.327500	-9.938700	26.453479	0.000122	20.790681
2016.561760	-2.992600	3.326700	-9.954700	26.432797	0.000123	20.807825
2017.563259	-3.005200	3.324700	-9.989900	26.453949	0.000121	20.791154
2018.565270	-2.999700	3.325300	-9.973700	26.509265	0.000120	20.772786
2019.563629	-3.008500	3.326000	-10.005000	26.527685	0.000119	20.784189
2020.565405	-3.015300	3.323300	-10.020000	26.497223	0.000119	20.786286
2021.564226	-3.005800	3.325000	-9.993700	26.493821	0.000119	20.781444
2022.565351	-3.008000	3.323600	-9.995800	26.528431	0.000120	20.797267
2023.574776	-2.977500	3.323600	-9.895100	26.504893	0.000118	20.780245
2024.568343	-2.989700	3.324400	-9.937900	26.499058	0.000119	20.779121
2025.567262	-3.006300	3.323400	-9.989600	26.540643	0.000119	20.786782
2026.571259	-3.008200	3.321900	-9.990900	26.582152	0.000119	20.777299
2027.568238	-2.995900	3.323500	-9.956000	26.586992	0.000120	20.787381
2028.572484	-2.999800	3.322100	-9.964200	26.615714	0.000119	20.782114
2029.570536	-2.982400	3.323100	-9.910200	26.587339	0.000118	20.769237
2030.569015	-2.991500	3.321300	-9.934200	26.578848	0.000118	20.773504
2031.568141	-2.988400	3.320800	-9.923000	26.585450	0.000116	20.800055
2032.571085	-3.018900	3.320500	-10.022000	26.595380	0.000117	20.766415
2033.571966	-3.007600	3.320600	-9.986100	26.558764	0.000116	20.788876
2034.568069	-3.004200	3.319600	-9.971400	26.550768	0.000117	20.773252
2035.569848	-2.999300	3.319600	-9.955500	26.533018	0.000117	20.783385
2036.570360	-3.006600	3.319100	-9.978600	26.540292	0.000113	20.782162
2037.568015	-3.010000	3.318800	-9.988500	26.532518	0.000115	20.743527
2038.573925	-3.012200	3.319000	-9.996100	26.542376	0.000116	20.784258
2039.569473	-3.003400	3.319000	-9.967100	26.637903	0.000113	20.779765
2040.570465	-2.996500	3.316700	-9.937700	26.701723	0.000112	20.765213
2041.572798	-2.997200	3.318000	-9.943900	26.682410	0.000115	20.774247
2042.568744	-3.012400	3.315800	-9.987700	26.729474	0.000116	20.782683
2043.569364	-3.018600	3.314300	-10.004000	26.739154	0.000114	20.764913
2044.573432	-3.011600	3.316500	-9.987500	26.701919	0.000112	20.780110
2045.571354	-2.963500	3.317600	-9.830600	26.725152	0.000112	20.775967
2046.571208	-2.996200	3.315400	-9.932700	26.692684	0.000113	20.784576
2047.573645	-2.992300	3.314500	-9.917400	26.689381	0.000111	20.781256
2048.569937	-2.994100	3.314700	-9.923400	26.713235	0.000112	20.764934
2049.571920	-2.989100	3.314900	-9.907700	26.713733	0.000111	20.761167
2050.574835	-2.967600	3.315100	-9.836900	26.696852	0.000111	20.781179
2051.573714	-3.002500	3.314300	-9.950400	26.664381	0.000111	20.784097
2052.576180	-2.995500	3.313200	-9.924200	26.687540	0.000109	20.763757
2053.575106	-3.022100	3.313100	-10.011000	26.648741	0.000109	20.770271
2054.573531	-2.999900	3.313700	-9.939600	26.670015	0.000108	20.774114
2055.576550	-3.013000	3.312100	-9.978400	26.692182	0.000111	20.756570
2056.581845	-2.997100	3.312600	-9.926700	26.668052	0.000108	20.760287
2057.576733	-3.031700	3.311200	-10.037000	26.721570	0.000106	20.759562
2058.577772	-3.017900	3.312200	-9.995000	26.728941	0.000106	20.743739
2059.581339	-2.999900	3.310800	-9.931000	26.745870	0.000106	20.769294
2060.577397	-3.026000	3.310700	-10.017000	26.727030	0.000109	20.762681
2061.580138	-3.003800	3.310300	-9.941500	26.740036	0.000108	20.767696
2062.581120	-2.983700	3.309700	-9.874400	26.693592	0.000107	20.768419
2063.578976	-3.002800	3.309400	-9.936200	26.675047	0.000108	20.773957
2064.581032	-2.995800	3.308700	-9.911500	26.618423	0.000107	20.779148
2065.580993	-2.978400	3.310600	-9.859800	26.626590	0.000107	20.755589
2066.581132	-2.977800	3.308900	-9.852400	26.616062	0.000105	20.768713
2067.583601	-2.982800	3.310900	-9.874800	26.626290	0.000104	20.758606
2068.581449	-3.008100	3.308500	-9.951800	26.649921	0.000106	20.760551
2069.579255	-2.990200	3.308500	-9.892500	26.670126	0.000105	20.768536
2070.579974	-3.006600	3.308200	-9.945300	26.748763	0.000105	20.766039
2071.582959	-2.993800	3.306600	-9.898800	26.791456	0.000104	20.760600
2072.580869	-2.983500	3.306700	-9.864000	26.756805	0.000104	20.765590
2073.583840	-2.996300	3.306500	-9.906100	26.807910	0.000103	20.760547
2074.589390	-3.014400	3.306200	-9.965500	26.821312	0.000103	20.758375
2075.582502	-3.002900	3.306000	-9.926800	26.834268	0.000104	20.749117
2076.583444	-2.990200	3.306900	-9.887900	26.885170	0.000104	20.748615
2077.583612	-3.012900	3.305200	-9.957400	26.890307	0.000102	20.772748
2078.580848	-2.982600	3.305300	-9.857700	26.890157	0.000103	20.781606
2079.584889	-3.000500	3.303800	-9.912100	26.825751	0.000101	20.753830
2080.586630	-2.987000	3.305500	-9.872400	26.728701	0.000100	20.764835
2081.581854	-3.004100	3.304100	-9.924800	26.728353	9.998083E-5	20.755950
2082.584906	-3.000000	3.303000	-9.908400	26.701370	0.000103	20.774342
2083.585778	-2.983300	3.303600	-9.854900	26.729444	9.958480E-5	20.768902
2084.582496	-3.004400	3.302700	-9.921300	26.751881	0.000101	20.771545
2085.585520	-2.967600	3.303400	-9.801800	26.804080	9.928778E-5	20.759067
2086.587486	-2.991900	3.302100	-9.878400	26.854614	9.994783E-5	20.778584
2087.584884	-2.995400	3.301300	-9.887700	26.868834	9.922178E-5	20.762536
2088.586339	-2.999000	3.300200	-9.896900	26.843046	9.879274E-5	20.754624
2089.590474	-3.013200	3.300500	-9.944600	26.851162	9.932078E-5	20.773690
2090.585089	-2.991400	3.300500	-9.872600	26.852229	9.902376E-5	20.745839
2091.586647	-2.998100	3.300400	-9.893900	26.786529	9.773667E-5	20.763707
2092.589763	-3.009500	3.300000	-9.930400	26.741453	9.648258E-5	20.763432
2093.587968	-2.993000	3.300500	-9.877200	26.778090	9.958480E-5	20.740996
2094.587586	-2.985500	3.299600	-9.849400	26.769924	9.720863E-5	20.756495
2095.587526	-2.996100	3.298800	-9.882300	26.820855	9.866073E-5	20.750329
2096.588449	-2.992400	3.298800	-9.870600	26.868831	9.697761E-5	20.769645
2097.589943	-3.001000	3.299000	-9.898700	26.858158	9.569052E-5	20.748482
2098.591788	-2.980100	3.298200	-9.828000	26.856643	9.516248E-5	20.753123
2099.588470	-2.992600	3.297500	-9.866900	26.884093	9.486546E-5	20.747532
2100.591555	-2.983100	3.297400	-9.834900	26.879179	9.720863E-5	20.772464
2101.592705	-2.999500	3.297000	-9.888300	26.809511	9.427141E-5	20.755993
2102.589218	-2.979200	3.298000	-9.823900	26.823683	9.526149E-5	20.745586
2103.590231	-2.978300	3.296000	-9.815400	26.772577	9.390839E-5	20.762955
2104.592314	-2.995800	3.295300	-9.871000	26.810428	9.578952E-5	20.770666
2105.588259	-3.003800	3.296700	-9.901600	26.788385	9.341335E-5	20.775056
2106.590574	-3.007000	3.294600	-9.905600	26.743360	9.453543E-5	20.748753
2107.592545	-2.991200	3.295900	-9.857200	26.790644	9.374338E-5	20.756938
2108.588551	-3.020200	3.293900	-9.947800	26.831944	9.113618E-5	20.761479
2109.591418	-2.998300	3.294200	-9.876900	26.853140	9.453543E-5	20.750549
2110.591589	-2.985200	3.294700	-9.834000	26.857656	9.255529E-5	20.745606
2111.588291	-2.983500	3.293300	-9.825100	26.876145	9.503047E-5	20.768939
2112.591334	-3.016100	3.291400	-9.925800	26.835814	9.367737E-5	20.788131
2113.590656	-3.016700	3.292300	-9.930700	26.755247	9.093817E-5	20.757859
2114.589343	-2.996200	3.292500	-9.864300	26.782748	9.130120E-5	20.766069
2115.592066	-3.020500	3.292000	-9.941400	26.826431	9.120219E-5	20.789127
2116.590690	-2.987300	3.292600	-9.835500	26.858918	9.281931E-5	20.762049
2117.589520	-3.014400	3.290300	-9.917400	26.877804	9.130120E-5	20.749270
2118.590515	-3.013600	3.289500	-9.912800	26.850206	8.984909E-5	20.770359
2119.592862	-3.001200	3.290000	-9.872600	26.826700	8.912304E-5	20.766164
2120.590481	-3.006500	3.289000	-9.887700	26.809425	8.819897E-5	20.774399
2121.591262	-3.032100	3.288900	-9.971300	26.846480	9.054214E-5	20.778466
2122.591919	-2.999400	3.291000	-9.870100	26.909990	8.694488E-5	20.782109
2123.589635	-2.990600	3.289900	-9.838200	26.921355	8.644984E-5	20.759397
2124.592668	-3.007200	3.288500	-9.888000	26.915128	8.971708E-5	20.759773
2125.590422	-2.995600	3.288000	-9.848600	26.985111	8.727490E-5	20.759972
2126.592245	-3.008400	3.287300	-9.888800	26.961437	8.691188E-5	20.785004
2127.591430	-2.994600	3.288900	-9.847800	26.941755	8.440369E-5	20.758099
2128.592099	-3.014200	3.287400	-9.908200	26.884178	8.602081E-5	20.768007
2129.590477	-3.013700	3.286400	-9.903500	26.883532	8.783594E-5	20.767357
2130.592282	-3.015400	3.286200	-9.908300	26.845261	8.833098E-5	20.766334
2131.592083	-3.005100	3.285100	-9.871300	26.831981	8.753892E-5	20.784751
2132.593171	-3.005400	3.286000	-9.875400	26.894673	8.470071E-5	20.773344
2133.600381	-2.988900	3.285800	-9.819300	26.954508	8.628483E-5	20.785149
2134.592886	-3.030700	3.284400	-9.953200	27.018608	8.654885E-5	20.779908
2135.591418	-2.995400	3.285000	-9.839200	26.989598	8.608682E-5	20.799098
2136.592528	-3.003400	3.285300	-9.866800	26.963912	8.344662E-5	20.786071
2137.593367	-3.020300	3.284000	-9.918400	26.957112	8.420568E-5	20.795353
2138.593830	-2.995400	3.284700	-9.837900	26.953910	8.453570E-5	20.777435
2139.591801	-3.015400	3.282900	-9.898400	26.975649	8.407367E-5	20.776062
2140.594824	-2.962900	3.283400	-9.727000	26.964010	8.344662E-5	20.773841
2141.594108	-2.942600	3.284500	-9.663200	26.940607	8.453570E-5	20.766903
2142.594433	-2.983900	3.282000	-9.792400	26.944652	8.232454E-5	20.789462
2143.596961	-2.993000	3.282200	-9.822300	26.944874	8.288558E-5	20.793953
2144.595155	-2.982900	3.282100	-9.788800	26.923830	8.202752E-5	20.795077
2145.594726	-2.994200	3.279700	-9.819600	26.929561	8.291858E-5	20.794676
2146.602926	-2.986600	3.282500	-9.803300	26.976986	8.113645E-5	20.795898
2147.594748	-2.990400	3.279300	-9.805500	27.012149	8.050941E-5	20.784318
2148.593668	-2.999000	3.280700	-9.837800	27.020240	8.192851E-5	20.773963
2149.597021	-2.996300	3.280100	-9.826600	27.044881	8.041040E-5	20.781674
2150.595631	-3.002500	3.279900	-9.847200	27.046988	8.014638E-5	20.784741
2151.595671	-3.001200	3.279100	-9.840100	27.014134	8.067442E-5	20.769719
2152.596019	-3.020600	3.278300	-9.900900	26.968819	8.215953E-5	20.770616
2153.596350	-3.005600	3.278800	-9.853900	26.997383	7.998137E-5	20.770417
2154.597691	-3.012700	3.277300	-9.872600	26.992741	7.895829E-5	20.800362
2155.595585	-3.006100	3.276800	-9.849700	27.064532	8.008038E-5	20.780573
2156.595123	-2.994700	3.276900	-9.812100	27.044257	8.037740E-5	20.779149
2157.597741	-3.005600	3.278300	-9.852600	27.103958	7.912331E-5	20.781343
2158.597075	-3.009800	3.275700	-9.857600	27.162418	7.780321E-5	20.796044
2159.596410	-3.011600	3.275800	-9.864400	27.162093	7.829825E-5	20.797614
2160.596493	-2.990800	3.275200	-9.794200	27.173134	7.872728E-5	20.784063
2161.595913	-3.006000	3.274000	-9.840800	27.164103	7.816624E-5	20.800109
2162.596093	-3.008200	3.274200	-9.849000	27.109663	7.790222E-5	20.793720
2163.597435	-3.014300	3.274000	-9.868100	27.035989	7.730817E-5	20.779844
2164.596578	-2.996200	3.273700	-9.807600	27.079935	7.628510E-5	20.793694
2165.597636	-3.018800	3.274100	-9.882900	26.967721	7.522902E-5	20.784211
2166.598003	-2.987100	3.273700	-9.777600	27.029263	7.618609E-5	20.775924
2167.597654	-2.986000	3.274700	-9.777200	27.093755	7.420595E-5	20.781514
2168.597190	-2.994700	3.271400	-9.796300	27.182534	7.305086E-5	20.773602
2169.599180	-3.005000	3.272600	-9.833500	27.240865	7.612009E-5	20.784383
2170.597647	-3.007000	3.271100	-9.835900	27.255054	7.734118E-5	20.782061
2171.598473	-3.004500	3.271700	-9.829200	27.164840	7.460198E-5	20.802747
2172.598234	-3.000700	3.271100	-9.814300	27.129582	7.503101E-5	20.806167
2173.598927	-3.006300	3.270100	-9.829500	27.171117	7.612009E-5	20.786301
2174.596913	-3.007600	3.269200	-9.831700	27.147074	7.446997E-5	20.801000
2175.600141	-3.010700	3.268700	-9.839700	27.238329	7.433796E-5	20.799377
2176.599038	-2.996900	3.268700	-9.794800	27.268324	7.341389E-5	20.796357
2177.603796	-2.998500	3.269100	-9.801500	27.297374	7.255583E-5	20.799974
2178.599399	-3.013400	3.268100	-9.847300	27.303130	7.278684E-5	20.803393
2179.598890	-2.983300	3.267800	-9.748000	27.274351	7.318287E-5	20.796730
2180.602971	-3.007400	3.267100	-9.825400	27.233364	7.255583E-5	20.800547
2181.598543	-3.011000	3.265800	-9.832600	27.225177	7.338089E-5	20.801321
2182.599314	-3.005800	3.267000	-9.819200	27.256908	7.212679E-5	20.802891
2183.599455	-3.003500	3.265600	-9.807300	27.225151	7.001464E-5	20.822157
2184.600895	-3.030800	3.264800	-9.894200	27.206443	6.922258E-5	20.806660
2185.604420	-3.000400	3.264700	-9.794700	27.179423	7.011365E-5	20.808406
2186.601765	-3.003700	3.265600	-9.808300	27.145677	6.984963E-5	20.805759
2187.601157	-2.986400	3.265600	-9.751500	27.096722	6.859554E-5	20.802041
2188.602043	-2.993500	3.263700	-9.767600	27.059872	7.060868E-5	20.807655
2189.601183	-2.986300	3.264800	-9.748500	27.051036	6.915658E-5	20.811097
2190.601189	-2.996900	3.263300	-9.778900	27.059324	6.829851E-5	20.807578
2191.601526	-3.002600	3.263400	-9.797500	27.106544	6.942060E-5	20.799118
2192.602633	-3.004800	3.262800	-9.803100	27.133315	6.862854E-5	20.824620
2193.603621	-2.997000	3.262100	-9.775700	27.186315	6.631837E-5	20.808699
2194.604439	-3.001300	3.261600	-9.788400	27.186488	6.975062E-5	20.815986
2195.602727	-2.994200	3.261900	-9.765700	27.177158	6.753946E-5	20.809447
2196.603299	-2.992200	3.262800	-9.762000	27.249630	6.579033E-5	20.818804
2197.603723	-2.993400	3.260200	-9.758000	27.259330	6.790249E-5	20.818604
2198.604501	-2.992500	3.261300	-9.758400	27.271113	6.945360E-5	20.817180
2199.604374	-2.996800	3.261200	-9.772100	27.296642	6.796849E-5	20.859927
2200.604038	-3.026300	3.258400	-9.859700	27.314750	6.737445E-5	20.815556
2201.607051	-3.008500	3.258600	-9.802800	27.332017	6.496527E-5	20.830555
2202.606380	-2.992200	3.258000	-9.747800	27.305645	6.654939E-5	20.818251
2203.607018	-2.999800	3.256400	-9.767600	27.295276	6.463525E-5	20.819200
2204.606023	-2.987400	3.258900	-9.734300	27.347446	6.542730E-5	20.819997
2205.607021	-2.986200	3.257500	-9.727200	27.365654	6.542730E-5	20.829304
2206.607773	-2.996400	3.256300	-9.756300	27.279394	6.592234E-5	20.798957
2207.610348	-3.015600	3.255900	-9.818100	27.239003	6.687941E-5	20.820443
2208.615173	-3.011900	3.257200	-9.809000	27.263316	6.460224E-5	20.819295
2209.608222	-3.006100	3.257200	-9.790600	27.331937	6.453624E-5	20.817198
2210.607548	-3.008000	3.256500	-9.794400	27.361433	6.480026E-5	20.834541
2211.608685	-3.004700	3.254700	-9.778600	27.357960	6.447023E-5	20.834367
2212.608262	-2.993300	3.255500	-9.743900	27.328537	6.321614E-5	20.829425
2213.609658	-3.007200	3.254200	-9.785200	27.344538	6.400820E-5	20.819916
2214.609258	-3.002400	3.254700	-9.771100	27.330571	6.338115E-5	20.830522
2215.608740	-2.998400	3.254500	-9.758100	27.334466	6.417321E-5	20.832069
2216.610919	-3.011300	3.253800	-9.797900	27.346151	6.344716E-5	20.825806
2217.612754	-3.012100	3.251700	-9.793800	27.414864	6.285312E-5	20.846566
2218.610654	-2.984400	3.253700	-9.709500	27.408116	6.163203E-5	20.816071
2219.610784	-2.994800	3.251500	-9.736900	27.402089	6.272111E-5	20.836559
2220.610573	-2.979300	3.251500	-9.686600	27.359246	6.331515E-5	20.830444
2221.612214	-3.018800	3.251300	-9.814400	27.397399	6.265510E-5	20.827574
2222.611757	-2.987600	3.252200	-9.715600	27.395167	6.288612E-5	20.841924
2223.616530	-3.011400	3.250300	-9.786100	27.389485	6.235808E-5	20.833838
2224.612003	-3.018700	3.251300	-9.814200	27.420568	6.011392E-5	20.850408
2225.612292	-3.017800	3.250400	-9.807400	27.381795	6.268810E-5	20.849334
2226.612006	-2.987900	3.250300	-9.710800	27.418235	6.202806E-5	20.819138
2227.611945	-2.991000	3.249400	-9.717900	27.442470	6.255609E-5	20.845889
2228.613840	-2.993000	3.248800	-9.722600	27.344483	6.136801E-5	20.845939
2229.615166	-2.964600	3.249600	-9.632700	27.349469	5.915684E-5	20.853325
2230.611549	-3.001600	3.248400	-9.749700	27.358349	6.050994E-5	20.838551
2231.612683	-2.982200	3.246700	-9.681700	27.374474	5.912384E-5	20.838650
2232.614230	-3.014200	3.246600	-9.784700	27.338528	5.882682E-5	20.842793
2233.612484	-3.014400	3.246500	-9.785700	27.306376	6.031193E-5	20.840323
2234.613772	-3.026200	3.246500	-9.823700	27.376407	6.001491E-5	20.837277
2235.613101	-3.009500	3.245300	-9.765800	27.396427	5.981689E-5	20.854571
2236.612838	-3.034000	3.243800	-9.840500	27.404217	6.054295E-5	20.860036
2237.614977	-2.992200	3.246000	-9.711600	27.430510	5.829878E-5	20.839074
2238.613452	-2.966700	3.245000	-9.626100	27.403619	5.796876E-5	20.850427
2239.613052	-2.977900	3.244700	-9.661500	27.332622	5.730871E-5	20.859136
2240.617343	-3.005100	3.243200	-9.745300	27.334852	5.651665E-5	20.856165
2241.614655	-3.000500	3.243100	-9.730000	27.325203	5.925585E-5	20.884388
2242.613988	-2.994800	3.241900	-9.708200	27.402898	5.704469E-5	20.848279
2243.614805	-3.002800	3.244200	-9.740300	27.390372	5.777074E-5	20.866496
2244.613291	-3.010500	3.241800	-9.757600	27.416542	5.704469E-5	20.845409
2245.615013	-3.012300	3.242100	-9.765000	27.425843	5.612062E-5	20.869938
2246.614941	-3.009400	3.240200	-9.750600	27.455660	5.737471E-5	20.870538
2247.614933	-3.012500	3.240000	-9.759300	27.390494	5.476752E-5	20.852870
2248.615126	-2.998400	3.239600	-9.712300	27.387889	5.602162E-5	20.854042
2249.616512	-2.986900	3.240300	-9.677400	27.381588	5.552658E-5	20.840118
2250.615573	-2.991200	3.239900	-9.690700	27.411256	5.559258E-5	20.862376
2251.654015	-2.992500	3.240500	-9.695500	27.444174	5.460251E-5	20.864198
2252.623187	-2.990800	3.239100	-9.686000	27.408056	5.684668E-5	20.864372
2253.623032	-3.002000	3.238800	-9.722700	27.406344	5.328241E-5	20.853641
2254.625875	-3.010700	3.238400	-9.748700	27.436954	5.592261E-5	20.882538
2255.623261	-2.998100	3.237000	-9.704500	27.461635	5.463551E-5	20.867540
2256.623766	-2.986900	3.236600	-9.666800	27.481032	5.344743E-5	20.842960
2257.623647	-2.982700	3.236200	-9.651300	27.503927	5.493254E-5	20.875950
2258.625420	-2.993300	3.236000	-9.685700	27.517123	5.437149E-5	20.857933
2259.622690	-2.992900	3.235800	-9.683200	27.551127	5.516355E-5	20.882661
2260.625055	-3.002200	3.234500	-9.709800	27.509854	5.460251E-5	20.871956
2261.626491	-3.003900	3.234000	-9.713500	27.499883	5.341442E-5	20.871407
2262.626698	-3.010900	3.234800	-9.738700	27.448016	5.239135E-5	20.866641
2263.627216	-2.996500	3.236400	-9.696000	27.396196	5.232534E-5	20.862873
2264.627885	-2.984700	3.233500	-9.649700	27.455085	5.051021E-5	20.862374
2265.627831	-2.978500	3.233400	-9.630000	27.543264	5.054321E-5	20.895138
2266.626243	-2.999900	3.231800	-9.694600	27.496360	5.179731E-5	20.880190
2267.627925	-2.994000	3.231800	-9.675600	27.552490	5.067522E-5	20.864594
2268.627538	-2.988100	3.231300	-9.655100	27.632403	5.146728E-5	20.874351
2269.627007	-3.004900	3.230400	-9.706200	27.625234	5.087324E-5	20.875199
2270.628569	-3.000300	3.230700	-9.692100	27.599267	5.110425E-5	20.877994
2271.631662	-3.013000	3.229100	-9.728100	27.587808	4.975116E-5	20.874999
2272.628299	-3.000300	3.230700	-9.691700	27.584064	5.212733E-5	20.878818
2273.627586	-2.979400	3.229800	-9.622300	27.571041	4.932212E-5	20.876620
2274.627446	-3.001500	3.229100	-9.691000	27.556706	4.919011E-5	20.873576
2275.626963	-3.040700	3.227600	-9.813600	27.551844	4.909111E-5	20.886701
2276.627784	-2.996000	3.227500	-9.668300	27.565361	5.027919E-5	20.881811
2277.627643	-3.015800	3.225900	-9.726900	27.535648	4.994917E-5	20.895535
2278.628022	-3.004400	3.227700	-9.696000	27.567371	5.100525E-5	20.889048
2279.627714	-3.004400	3.225600	-9.690400	27.647257	4.810103E-5	20.880763
2280.626987	-2.994900	3.224600	-9.656300	27.667890	4.886009E-5	20.880188
2281.627154	-3.007700	3.224700	-9.698200	27.697030	4.905810E-5	20.882010
2282.629401	-3.019800	3.224200	-9.735500	27.692318	4.734198E-5	20.872527
2283.629779	-3.030500	3.225300	-9.773400	27.623222	4.882709E-5	20.887398
2284.629810	-3.009200	3.223700	-9.700100	27.610625	4.526283E-5	20.893214
2285.629061	-2.988300	3.226800	-9.642200	27.613228	4.664893E-5	20.899625
2286.628286	-2.975300	3.223500	-9.590600	27.599488	4.621990E-5	20.901447
2287.627921	-3.010100	3.223000	-9.700900	27.645916	4.658292E-5	20.872776
2288.628775	-3.000000	3.222500	-9.666800	27.666227	4.631890E-5	20.890841
2289.627877	-2.984900	3.223100	-9.620100	27.679916	4.773801E-5	20.895607
2290.628406	-3.015900	3.221500	-9.715000	27.732367	4.575786E-5	20.885800
2291.629736	-2.994800	3.221400	-9.646000	27.691795	4.777101E-5	20.897603
2292.634748	-3.016300	3.220000	-9.710900	27.631579	4.496580E-5	20.904814
2293.633888	-2.997600	3.220900	-9.653900	27.602041	4.569186E-5	20.898801
2294.635289	-2.999800	3.219700	-9.657700	27.666201	4.470179E-5	20.899349
2295.631046	-3.007600	3.218400	-9.679100	27.701466	4.744099E-5	20.886000
2296.635311	-2.991400	3.219200	-9.629300	27.732837	4.542784E-5	20.915668
2297.631728	-3.012600	3.218300	-9.694700	27.689958	4.423975E-5	20.902866
2298.632441	-3.005600	3.217400	-9.668700	27.673367	4.262263E-5	20.912249
2299.634062	-2.999500	3.218800	-9.654100	27.706797	4.476779E-5	20.904164
2300.633846	-3.005000	3.218000	-9.669500	27.714410	4.334869E-5	20.894282
2301.633090	-2.998400	3.218600	-9.649600	27.688048	4.192958E-5	20.910901
2302.635718	-2.999100	3.216800	-9.646800	27.730084	4.493280E-5	20.890141
2303.635225	-2.996900	3.215800	-9.636800	27.717732	4.268864E-5	20.916115
2304.634894	-2.999100	3.215200	-9.642100	27.755302	4.334869E-5	20.893234
2305.635779	-2.998000	3.215300	-9.638800	27.746920	4.351370E-5	20.894755
2306.638103	-3.000200	3.213300	-9.640300	27.790862	4.232561E-5	20.903888
2307.635962	-2.985000	3.214200	-9.593700	27.803185	4.275464E-5	20.886894
2308.639816	-2.990500	3.214800	-9.613100	27.834677	4.321668E-5	20.897249
2309.636832	-3.007600	3.214300	-9.666400	27.847074	4.308467E-5	20.899295
2310.637928	-3.007900	3.214100	-9.666300	27.899442	4.344769E-5	20.905059
2311.639183	-3.018000	3.211000	-9.690000	27.924509	4.179757E-5	20.904211
2312.638684	-2.993600	3.212300	-9.615800	27.886300	4.285365E-5	20.901315
2313.639742	-3.009900	3.210400	-9.662500	27.851313	4.232561E-5	20.884597
2314.638597	-3.025900	3.210200	-9.712500	27.827261	4.014745E-5	20.890261
2315.640193	-3.013900	3.209400	-9.672400	27.818384	4.387672E-5	20.893655
2316.640308	-3.000200	3.208400	-9.624800	27.817837	4.120353E-5	20.885519
2317.641096	-3.008200	3.209600	-9.654100	27.750487	4.120353E-5	20.882699
2318.640515	-3.044100	3.209700	-9.769700	27.764548	4.057648E-5	20.894477
2319.641160	-3.007200	3.208200	-9.646700	27.782427	4.054348E-5	20.884022
2320.640687	-2.994300	3.208600	-9.607200	27.723258	4.199559E-5	20.871894
2321.640417	-2.995300	3.208300	-9.609600	27.774441	3.981743E-5	20.890209
2322.642864	-2.983500	3.207700	-9.568700	27.807348	4.093951E-5	20.902935
2323.641001	-3.001000	3.206600	-9.621800	27.855080	4.169856E-5	20.879379
2324.643188	-2.992900	3.206500	-9.596000	27.776426	4.004844E-5	20.880827
2325.641031	-3.000100	3.206900	-9.620200	27.766778	4.070849E-5	20.864955
2326.640963	-2.980500	3.206200	-9.555100	27.788030	4.225961E-5	20.874014
2327.640750	-3.020400	3.205000	-9.680000	27.820662	3.909137E-5	20.885043
2328.641746	-2.995000	3.204100	-9.594400	27.809926	3.985043E-5	20.864282
2329.640798	-2.970300	3.204200	-9.516400	27.745279	4.004844E-5	20.876509
2330.641604	-3.000900	3.201900	-9.607200	27.733449	4.044447E-5	20.863183
2331.641706	-2.984500	3.203800	-9.561400	27.772976	4.018045E-5	20.869296
2332.641442	-3.011200	3.201400	-9.639300	27.815504	3.836532E-5	20.862784
2333.639767	-3.040300	3.200300	-9.728700	27.860385	3.763927E-5	20.873339
2334.642316	-3.011400	3.199700	-9.635100	27.869807	3.859634E-5	20.871441
2335.640168	-2.986300	3.200500	-9.556400	27.855203	3.833232E-5	20.859115
2336.640218	-3.006900	3.199300	-9.618600	27.880940	3.773827E-5	20.848035
2337.641024	-3.010000	3.199600	-9.630200	27.901445	3.876135E-5	20.857292
2338.640694	-2.975100	3.198300	-9.514200	27.902485	3.981743E-5	20.861658
2339.640164	-3.003500	3.197800	-9.603900	27.926560	3.803530E-5	20.855070
2340.640598	-3.004300	3.198900	-9.609600	27.933974	3.704522E-5	20.857316
2341.640243	-3.016700	3.197000	-9.643700	27.851506	3.645118E-5	20.858714
2342.640813	-2.978200	3.197200	-9.521400	27.842852	3.763927E-5	20.868969
2343.640367	-3.012100	3.197300	-9.629300	27.852993	3.460304E-5	20.848830
2344.643292	-3.007800	3.194800	-9.608500	27.856885	3.750726E-5	20.861282
2345.641818	-3.012200	3.196400	-9.626600	27.899558	3.641818E-5	20.863454
2346.643147	-2.976600	3.197000	-9.515400	27.848629	3.483406E-5	20.847758
2347.642823	-3.021500	3.192900	-9.646500	27.785471	3.760626E-5	20.849155
2348.642740	-2.991900	3.194000	-9.555100	27.820732	3.674820E-5	20.853347
2349.643802	-2.991500	3.193900	-9.553600	27.843024	3.334895E-5	20.851125
2350.642720	-3.007700	3.191600	-9.597900	27.845355	3.539510E-5	20.826920
2351.644920	-2.995300	3.191400	-9.557600	27.835238	3.506508E-5	20.838075
2352.643580	-2.999500	3.191100	-9.570500	27.823012	3.493307E-5	20.850426
2353.646371	-2.994300	3.192400	-9.558600	27.771609	3.697922E-5	20.868394
2354.643778	-3.009600	3.189900	-9.599400	27.793629	3.539510E-5	20.840770
2355.645970	-3.008400	3.190000	-9.596200	27.772600	3.483406E-5	20.852323
2356.646222	-3.028600	3.188200	-9.655000	27.848801	3.394300E-5	20.849827
2357.653265	-3.011200	3.189000	-9.601800	27.889068	3.486706E-5	20.844362
2358.645013	-3.013300	3.186800	-9.601900	27.858149	3.387699E-5	20.849753
2359.645847	-2.994900	3.187300	-9.544700	27.843915	3.433902E-5	20.878574
2360.648110	-3.002100	3.188000	-9.569700	27.859041	3.315094E-5	20.858236
2361.645813	-2.990100	3.186800	-9.528000	27.893259	3.209486E-5	20.819657
2362.649141	-3.000300	3.187100	-9.561600	27.858297	3.239188E-5	20.840893
2363.650573	-2.987900	3.185700	-9.517600	27.817657	3.433902E-5	20.819907
2364.646794	-2.983500	3.186400	-9.505300	27.803001	3.249089E-5	20.841667
2365.647561	-2.991600	3.184600	-9.526000	27.879870	3.414101E-5	20.825622
2366.650307	-2.978700	3.183200	-9.480800	27.925343	3.117079E-5	20.847681
2367.647764	-3.020600	3.182500	-9.612900	27.966401	3.235888E-5	20.834954
2368.648254	-2.991200	3.182300	-9.517800	27.998707	3.143481E-5	20.827169
2369.650445	-2.997500	3.182000	-9.537000	27.980931	3.140181E-5	20.832035
2370.647089	-3.017600	3.180800	-9.596500	27.953906	3.186384E-5	20.846084
2371.648359	-2.986200	3.181100	-9.498900	27.920558	3.123680E-5	20.825796
2372.652324	-3.005800	3.179900	-9.556700	27.971980	3.070876E-5	20.825396
2373.650604	-3.011600	3.179800	-9.575400	28.011723	2.991670E-5	20.835529
2374.652545	-3.029600	3.177500	-9.625700	28.010111	2.988370E-5	20.824897
2375.654023	-3.008200	3.178400	-9.560300	28.027887	3.074176E-5	20.850376
2376.651629	-2.975500	3.177400	-9.453700	28.058876	3.110479E-5	20.824198
2377.653241	-3.005700	3.176600	-9.547000	28.015839	3.120379E-5	20.839671
2378.658721	-2.986300	3.177600	-9.488400	27.997814	2.968568E-5	20.822477
2379.659687	-2.987300	3.175900	-9.486600	28.041299	3.008171E-5	20.831635
2380.653141	-2.977300	3.176400	-9.456600	28.086518	3.004871E-5	20.817885
2381.655882	-2.997500	3.175200	-9.517100	28.066040	2.994970E-5	20.827617
2382.654562	-3.009400	3.173800	-9.550500	28.095839	2.882762E-5	20.821578
2383.653366	-3.003300	3.173400	-9.529700	28.108011	3.011471E-5	20.829564
2384.663242	-2.978100	3.172900	-9.448700	28.105829	2.948767E-5	20.831635
2385.656594	-2.988200	3.172100	-9.476300	28.020647	2.879462E-5	20.829339
2386.655227	-3.015300	3.170500	-9.558600	27.992556	2.760653E-5	20.826667
2387.672274	-2.994200	3.171900	-9.496100	28.014473	2.820057E-5	20.820279
2388.655385	-2.997400	3.169900	-9.500500	28.038942	2.803556E-5	20.814564
2389.655904	-2.966600	3.171600	-9.408000	28.061180	2.730951E-5	20.820828
2390.659468	-2.984700	3.169600	-9.459600	28.049280	2.711149E-5	20.820229
2391.657552	-2.981900	3.168000	-9.446000	28.018093	2.615442E-5	20.817285
2392.658117	-2.981100	3.167900	-9.443200	27.995952	2.810157E-5	20.814912
2393.660026	-3.019400	3.165800	-9.557300	27.926184	2.763953E-5	20.820553
2394.658005	-3.001100	3.165600	-9.499600	27.917927	2.754053E-5	20.822674
2395.658294	-3.009000	3.165900	-9.525300	27.919737	2.651745E-5	20.810746
2396.662335	-3.025500	3.162400	-9.567100	27.944804	2.704549E-5	20.811794
2397.659690	-2.999700	3.163700	-9.489200	27.975969	2.539537E-5	20.811394
2398.661449	-2.996900	3.162500	-9.477200	28.033189	2.678147E-5	20.824894
2399.664066	-3.006300	3.161400	-9.502900	28.026744	2.513135E-5	20.795173
2400.659941	-2.982900	3.161800	-9.430100	28.051436	2.565939E-5	20.808175
2401.666124	-2.982200	3.162100	-9.429200	28.086143	2.552738E-5	20.814188
2402.662347	-2.991500	3.160600	-9.454100	28.050567	2.424028E-5	20.816309
2403.661822	-3.025600	3.159400	-9.558300	27.987646	2.575839E-5	20.806078
2404.659820	-3.000700	3.159100	-9.478200	28.063336	2.658346E-5	20.798816
2405.661951	-2.972400	3.157000	-9.382200	28.105902	2.631944E-5	20.799940
2406.663019	-3.016300	3.156500	-9.520400	28.155009	2.519735E-5	20.806228
2407.661547	-3.005400	3.156200	-9.484400	28.116015	2.476832E-5	20.803009
2408.667007	-2.956500	3.155800	-9.329200	28.044023	2.212813E-5	20.803084
2409.665391	-3.005000	3.154700	-9.478000	28.028156	2.589040E-5	20.785689
2410.662342	-2.959600	3.155900	-9.339700	28.037157	2.321721E-5	20.803758
2411.661213	-3.000900	3.153300	-9.461700	27.964390	2.305220E-5	20.800688
2412.665115	-3.001200	3.152800	-9.461000	27.957497	2.265617E-5	20.807500
2413.663521	-3.016500	3.152000	-9.507100	28.016726	2.371224E-5	20.806426
2414.664508	-3.007400	3.151600	-9.476800	28.068368	2.410827E-5	20.794874
2415.663786	-3.016200	3.150900	-9.502000	28.062690	2.061002E-5	20.796270
2416.668148	-2.977400	3.151200	-9.381400	28.056395	2.278818E-5	20.801787
2417.663877	-2.957900	3.151400	-9.320600	28.099481	2.169910E-5	20.797743
2418.664874	-2.973900	3.149200	-9.364300	28.145936	2.288718E-5	20.803258
2419.664306	-3.000500	3.148500	-9.446500	28.067700	2.136907E-5	20.816011
2420.668082	-2.996200	3.147300	-9.428700	28.053221	1.955394E-5	20.817558
2421.664908	-2.969600	3.146400	-9.342300	28.001382	2.041200E-5	20.803309
2422.663683	-3.001300	3.146600	-9.443300	28.034529	2.199612E-5	20.806329
2423.668617	-3.015800	3.145000	-9.484200	28.053890	2.127006E-5	20.812067
2424.665367	-3.009000	3.144100	-9.459600	27.994810	2.047801E-5	20.795746
2425.668475	-2.955400	3.145100	-9.292200	28.019084	1.998297E-5	20.809748
2426.667660	-3.020100	3.141100	-9.485600	28.049974	2.021399E-5	20.808599
2427.672314	-3.001000	3.141800	-9.427100	28.030338	1.912491E-5	20.802584
2428.666955	-2.981200	3.140000	-9.359900	27.999596	2.262316E-5	20.799141
2429.673007	-2.974500	3.140700	-9.340700	28.025330	2.080803E-5	20.817932
2430.666714	-3.002500	3.139600	-9.425700	27.982240	2.169910E-5	20.805853
2431.668818	-3.008800	3.139100	-9.444300	28.012414	2.087404E-5	20.796396
2432.671396	-3.005600	3.138600	-9.432500	28.007231	1.892689E-5	20.793550
2433.666847	-2.992300	3.138000	-9.388400	27.940414	2.097304E-5	20.786986
2434.670283	-3.007300	3.135100	-9.426900	27.884254	1.905890E-5	20.795896
2435.672529	-3.015800	3.134000	-9.450400	27.917479	1.839885E-5	20.810843
2436.669875	-2.984600	3.133700	-9.351800	27.920083	2.047801E-5	20.786437
2437.669475	-3.001000	3.133600	-9.402900	27.968034	1.915791E-5	20.787286
2438.673702	-3.007400	3.133500	-9.421800	27.970314	1.895989E-5	20.794323
2439.672742	-3.014100	3.132500	-9.440900	28.016999	1.820084E-5	20.786312
2440.675403	-3.001900	3.130500	-9.396000	28.119459	1.866287E-5	20.790354
2441.674286	-2.990200	3.130800	-9.360900	28.142315	1.935592E-5	20.804355
2442.673130	-2.984100	3.131000	-9.341300	28.101559	1.839885E-5	20.779447
2443.672507	-2.998300	3.128800	-9.380300	28.144545	1.631970E-5	20.784789
2444.676942	-3.012100	3.126800	-9.417100	28.185396	1.681474E-5	20.770912
2445.679713	-3.020600	3.126200	-9.441600	28.114797	1.849786E-5	20.778075
2446.675026	-2.998700	3.126600	-9.373400	28.090578	1.793682E-5	20.779772
2447.675888	-2.980100	3.125900	-9.314700	28.155278	1.655072E-5	20.792749
2448.677114	-2.997000	3.122600	-9.357900	28.119358	1.744178E-5	20.782666
2449.676635	-3.004900	3.122300	-9.380300	28.122134	1.820084E-5	20.779297
2450.674797	-2.994700	3.121600	-9.347000	28.132174	1.628670E-5	20.779920
2451.678330	-3.003400	3.122000	-9.375900	28.129422	1.592367E-5	20.770512
2452.674597	-3.001500	3.120400	-9.365000	28.234673	1.589067E-5	20.795868
2453.676754	-2.999200	3.119900	-9.356200	28.296613	1.711176E-5	20.766243
2454.677791	-3.026600	3.116700	-9.431900	28.251949	1.684774E-5	20.768690
2455.676162	-3.011600	3.117000	-9.386600	28.244363	1.740878E-5	20.792347
2456.677845	-2.995500	3.116000	-9.333400	28.242157	1.889389E-5	20.779694
2457.676458	-3.009000	3.115800	-9.374700	28.228946	1.635270E-5	20.794842
2458.677205	-3.013600	3.115500	-9.388000	28.237571	1.661672E-5	20.778396
2459.680329	-3.020800	3.113300	-9.403500	28.288110	1.615469E-5	20.764321
2460.679750	-2.980900	3.112800	-9.277300	28.343901	1.529663E-5	20.775451
2461.676371	-2.980200	3.112400	-9.274800	28.396666	1.546164E-5	20.784959
2462.680137	-3.014300	3.110800	-9.375600	28.442092	1.694675E-5	20.771432
2463.679396	-3.010200	3.110700	-9.362200	28.409033	1.631970E-5	20.790300
2464.679747	-3.010000	3.108800	-9.356500	28.294058	1.288745E-5	20.770784
2465.679484	-3.002700	3.108600	-9.333000	28.241757	1.513161E-5	20.774550
2466.680083	-3.005200	3.106500	-9.334900	28.248352	1.678173E-5	20.761749
2467.684665	-3.020300	3.106000	-9.380100	28.238039	1.615469E-5	20.769384
2468.681666	-3.003700	3.105900	-9.328000	28.212061	1.443856E-5	20.777844
2469.686906	-2.998100	3.105600	-9.309300	28.235114	1.509861E-5	20.770232
2470.687438	-3.006200	3.102800	-9.326800	28.307686	1.364650E-5	20.774074
2471.684839	-3.008400	3.102400	-9.332200	28.357454	1.589067E-5	20.789572
2472.687018	-3.003700	3.100800	-9.312800	28.427491	1.542864E-5	20.786602
2473.687986	-2.979200	3.101200	-9.238400	28.411481	1.575866E-5	20.793713
2474.686323	-3.014700	3.098300	-9.339700	28.404120	1.387752E-5	20.783456
2475.689969	-2.991900	3.098000	-9.268400	28.348504	1.325048E-5	20.763490
2476.688225	-3.006500	3.097100	-9.310000	28.268349	1.344849E-5	20.778564
2477.686665	-3.002600	3.097000	-9.298100	28.236919	1.321747E-5	20.774421
2478.685837	-2.982400	3.096700	-9.235000	28.282104	1.374551E-5	20.757799
2479.688167	-2.989300	3.095000	-9.250600	28.288473	1.364650E-5	20.758997
2480.687771	-3.013200	3.094200	-9.322000	28.365033	1.354750E-5	20.787720
2481.685883	-2.981500	3.093700	-9.223300	28.347040	1.579166E-5	20.773870
2482.688089	-2.992000	3.091400	-9.247900	28.333260	1.325048E-5	20.767581
2483.685536	-3.006600	3.089100	-9.286900	28.263537	1.232641E-5	20.764235
2484.688174	-3.008900	3.089000	-9.293700	28.267404	1.655072E-5	20.775242
2485.688702	-3.001200	3.089100	-9.270100	28.220531	1.318447E-5	20.774517
2486.688075	-3.022800	3.086900	-9.330400	28.268171	1.245842E-5	20.754676
2487.689472	-2.997900	3.085600	-9.249500	28.282969	1.160035E-5	20.778585
2488.691379	-2.987300	3.085500	-9.216400	28.306712	1.272244E-5	20.767877
2489.691832	-2.997800	3.084900	-9.245900	28.268145	1.196338E-5	20.762711
2490.691185	-2.996800	3.082600	-9.237200	28.356678	1.374551E-5	20.763660
2491.690995	-3.022400	3.081600	-9.313200	28.456157	1.252442E-5	20.768526
2492.694479	-2.982200	3.081000	-9.186700	28.486588	1.173236E-5	20.773566
2493.690306	-2.989600	3.079700	-9.205800	28.485819	1.100631E-5	20.761412
2494.690667	-2.987500	3.078000	-9.193900	28.501157	1.193038E-5	20.756944
2495.694241	-2.988100	3.078000	-9.196400	28.488444	1.569265E-5	20.780652
2496.692041	-2.997800	3.077000	-9.223700	28.408845	1.206239E-5	20.769247
2497.693331	-3.008800	3.075400	-9.252500	28.332113	1.341549E-5	20.752201
2498.693251	-2.996300	3.073600	-9.207900	28.315333	1.305246E-5	20.765652
2499.696071	-2.980100	3.074200	-9.160200	28.331890	1.004924E-5	20.773315
2500.694818	-3.016300	3.070700	-9.261000	28.387182	1.041227E-5	20.755495
2501.694760	-3.010200	3.071200	-9.243700	28.393404	1.358050E-5	20.748957
2502.700901	-3.014200	3.069400	-9.250400	28.479421	1.150135E-5	20.763505
2503.696830	-2.982100	3.068600	-9.150600	28.533369	1.328348E-5	20.744813
2504.694874	-2.969100	3.068400	-9.109500	28.530594	1.014825E-5	20.770468
2505.698188	-3.028700	3.065300	-9.282800	28.492653	1.153435E-5	20.768769
2506.697500	-2.981400	3.066600	-9.142100	28.541074	1.259043E-5	20.781022
2507.698163	-3.001900	3.063700	-9.195800	28.586444	1.219440E-5	20.756540
2508.695064	-3.007300	3.063100	-9.210700	28.575813	1.120432E-5	20.770015
2509.695806	-3.026300	3.060400	-9.260600	28.482541	1.196338E-5	20.761904
2510.697082	-3.016300	3.060500	-9.230300	28.457759	1.074229E-5	20.782468
2511.698090	-2.980700	3.060000	-9.119700	28.463086	1.057728E-5	20.767917
2512.695263	-3.017600	3.057200	-9.223900	28.476121	1.130333E-5	20.770138
2513.695577	-2.993800	3.056400	-9.149000	28.502884	9.752218E-6	20.760579
2514.701321	-3.005400	3.055200	-9.181200	28.518792	9.224179E-6	20.760953
2515.699450	-2.988400	3.053300	-9.123400	28.508831	9.752218E-6	20.771784
2516.699333	-3.043000	3.051700	-9.284300	28.493516	1.014825E-5	20.761577
2517.699831	-3.013500	3.051900	-9.196000	28.433518	8.828150E-6	20.763272
2518.700546	-2.988400	3.051000	-9.116500	28.395352	1.179837E-5	20.767041
2519.701182	-2.995600	3.050100	-9.135800	28.365587	9.851225E-6	20.766466
2520.699236	-2.988300	3.049500	-9.111100	28.414459	9.422193E-6	20.765891
2521.700659	-2.953400	3.048900	-9.003900	28.524910	8.069094E-6	20.781340
2522.700551	-2.981900	3.046500	-9.083800	28.507711	1.021425E-5	20.769235
2523.699408	-2.987600	3.044800	-9.095400	28.479040	9.356189E-6	20.766914
2524.699434	-2.996200	3.043900	-9.119000	28.467763	1.001624E-5	20.767412
2525.704093	-3.002100	3.041300	-9.129700	28.457801	9.554203E-6	20.767811
2526.703604	-2.998100	3.042400	-9.119700	28.486546	9.257181E-6	20.792491
2527.703209	-3.008500	3.038900	-9.141100	28.548571	9.257181E-6	20.761072
2528.708501	-2.999800	3.039000	-9.115600	28.588416	1.087430E-5	20.753310
2529.704443	-3.009400	3.037800	-9.141100	28.539451	9.521201E-6	20.786026
2530.705127	-3.012900	3.035500	-9.145400	28.494004	9.455196E-6	20.756853
2531.705416	-3.001500	3.035200	-9.108600	28.509788	9.653210E-6	20.774645
2532.709515	-2.993500	3.033500	-9.079600	28.479927	8.102096E-6	20.761169
2533.710597	-2.999200	3.032200	-9.093000	28.546983	8.696140E-6	20.767059
2534.705399	-2.991200	3.030500	-9.063400	28.520517	1.031326E-5	20.761742
2535.708273	-2.991400	3.029800	-9.061700	28.498289	9.620208E-6	20.755478
2536.707397	-3.008500	3.027500	-9.107000	28.516378	7.904082E-6	20.756626
2537.706722	-2.994900	3.026500	-9.063500	28.564401	1.021425E-5	20.779385
2538.710675	-3.013000	3.025200	-9.114000	28.629147	8.729143E-6	20.764935
2539.707752	-2.975400	3.024500	-8.998400	28.692774	8.366116E-6	20.784924
2540.709031	-3.055100	3.021600	-9.230300	28.709745	8.861152E-6	20.756973
2541.711660	-2.990800	3.022400	-9.038100	28.728846	6.947011E-6	20.774791
2542.709686	-2.990800	3.021700	-9.037000	28.677288	8.861152E-6	20.763636
2543.711133	-3.004800	3.018900	-9.070100	28.606448	8.531128E-6	20.778109
2544.711327	-2.994800	3.018800	-9.040300	28.582191	7.475050E-6	20.791611
2545.710892	-2.997500	3.016400	-9.040800	28.540784	7.046019E-6	20.784049
2546.716699	-3.011300	3.015200	-9.078800	28.498459	6.253960E-6	20.774141
2547.719082	-2.988400	3.015200	-9.009800	28.539792	8.498126E-6	20.764084
2548.714350	-2.979700	3.012400	-8.975300	28.596931	7.211031E-6	20.766628
2549.713278	-2.998600	3.012100	-9.031300	28.594826	1.080830E-5	20.762610
2550.720436	-2.984600	3.010200	-8.983800	28.599111	8.795147E-6	20.780204
2551.715624	-3.002800	3.007500	-9.030300	28.577752	1.070929E-5	20.764381
2552.712681	-3.036800	3.007900	-9.133300	28.643116	8.399118E-6	20.760986
2553.717994	-3.006000	3.005900	-9.035800	28.646485	9.092169E-6	20.766276
2554.716426	-3.008200	3.005200	-9.038900	28.690686	7.904082E-6	20.781399
2555.716265	-3.005600	3.002800	-9.024700	28.731467	8.861152E-6	20.771267
2556.716599	-2.997300	3.001800	-8.996000	28.709390	7.178028E-6	20.784592
2557.717431	-3.003400	3.000700	-9.011800	28.662711	7.871079E-6	20.787835
2558.717181	-3.008900	2.998500	-9.021600	28.634885	7.937084E-6	20.788259
2559.716977	-2.979000	2.999100	-8.933800	28.692962	7.937084E-6	20.788907
2560.718580	-3.002500	2.996100	-8.994800	28.659934	7.607060E-6	20.786934
2561.716188	-3.019700	2.993800	-9.039300	28.614665	6.914009E-6	20.778799
2562.717221	-2.999900	2.994800	-8.983700	28.589886	8.366116E-6	20.795094
2563.718636	-2.985000	2.992900	-8.932800	28.611765	1.100631E-5	20.761179
2564.716280	-2.990800	2.991400	-8.945500	28.588323	7.475050E-6	20.792572
2565.715654	-3.020400	2.988200	-9.025200	28.635847	7.970087E-6	20.793969
2566.718923	-3.015000	2.986900	-9.004200	28.701580	8.234106E-6	20.802329
2567.716510	-3.015500	2.986600	-9.005400	28.714091	6.881007E-6	20.771783
2568.716048	-3.038300	2.984000	-9.065400	28.746125	6.980014E-6	20.799782
2569.717568	-2.986500	2.983900	-8.910800	28.659111	6.947011E-6	20.811711
2570.716783	-2.991400	2.982300	-8.920000	28.645459	9.521201E-6	20.784684
2571.717413	-2.995000	2.981200	-8.928000	28.642238	6.319965E-6	20.798035
2572.719578	-3.007800	2.977800	-8.956000	28.624992	8.234106E-6	20.790148
2573.722167	-3.030800	2.976700	-9.020600	28.528650	5.428900E-6	20.800753
2574.716640	-3.017100	2.975600	-8.976400	28.570403	6.352968E-6	20.797284
2575.720687	-3.032500	2.974600	-9.019700	28.627865	7.112024E-6	20.788300
2576.716730	-2.988600	2.973500	-8.885000	28.703136	7.508053E-6	20.784930
2577.723762	-2.952700	2.973200	-8.777000	28.719414	7.739070E-6	20.797059
2578.720583	-2.992600	2.970700	-8.889400	28.686511	6.715994E-6	20.786202
2579.719746	-2.994000	2.969300	-8.888600	28.669290	9.389191E-6	20.802522
2580.723449	-2.994200	2.966700	-8.881900	28.617753	6.451975E-6	20.803246
2581.719254	-2.998300	2.965500	-8.890400	28.648229	7.739070E-6	20.784629
2582.721113	-3.036000	2.963000	-8.994100	28.633264	6.088948E-6	20.801798
2583.727065	-3.000600	2.964400	-8.893600	28.635245	7.739070E-6	20.804268
2584.720581	-2.992400	2.960800	-8.859200	28.713614	7.442048E-6	20.811131
2585.729229	-3.011400	2.959200	-8.910200	28.697832	9.224179E-6	20.816571
2586.726480	-3.016100	2.959000	-8.923300	28.679645	7.739070E-6	20.784977
2587.723802	-2.985700	2.957700	-8.829700	28.657866	6.881007E-6	20.804292
2588.724307	-2.999000	2.954400	-8.859500	28.695626	5.692919E-6	20.812927
2589.727049	-2.979100	2.955000	-8.802300	28.696740	7.178028E-6	20.824481
2590.722477	-3.016000	2.951400	-8.900500	28.690323	5.428900E-6	20.802844
2591.722287	-2.989000	2.950500	-8.818800	28.746811	7.046019E-6	20.803318
2592.722530	-3.015500	2.948700	-8.890200	28.846179	6.088948E-6	20.797204
2593.723943	-2.995800	2.947300	-8.828500	28.843032	4.141805E-6	20.797353
2594.722695	-3.003600	2.946500	-8.848900	28.800595	5.923936E-6	20.822882
2595.722223	-2.972000	2.946700	-8.756600	28.735587	6.154953E-6	20.806237
2596.722856	-3.000300	2.943500	-8.830500	28.700430	5.527907E-6	20.801171
2597.723473	-2.969100	2.942300	-8.734300	28.651224	5.560909E-6	20.805663
2598.725188	-2.985900	2.939400	-8.775800	28.651967	8.069094E-6	20.806885
2599.728137	-3.000200	2.938900	-8.816800	28.692229	7.178028E-6	20.802868
2600.723877	-2.981700	2.937200	-8.756900	28.737916	6.517980E-6	20.818540
2601.725437	-2.990000	2.935400	-8.775500	28.743068	5.626914E-6	20.811876
2602.727934	-3.001100	2.934600	-8.806200	28.756942	6.881007E-6	20.827273
2603.725451	-2.986800	2.931900	-8.755900	28.739303	4.405824E-6	20.830842
2604.727416	-3.001500	2.929500	-8.791000	28.813922	7.343041E-6	20.820660
2605.730314	-2.987700	2.929300	-8.750800	28.849794	5.494905E-6	20.821234
2606.725988	-2.985700	2.927800	-8.740600	28.908924	5.692919E-6	20.807308
2607.729405	-2.997400	2.925200	-8.767200	28.925694	5.263888E-6	20.800496
2608.731485	-3.001100	2.922500	-8.769200	28.899089	7.541055E-6	20.832014
2609.730562	-2.974500	2.923700	-8.695700	28.939565	6.914009E-6	20.813048
2610.728878	-3.008500	2.920300	-8.784500	28.984994	5.791926E-6	20.822307
2611.732976	-2.990800	2.919000	-8.729200	28.990566	6.319965E-6	20.821757
2612.728826	-2.999900	2.916500	-8.747400	28.951851	6.253960E-6	20.809779
2613.727503	-2.994400	2.915100	-8.727700	28.911351	6.352968E-6	20.805961
2614.728763	-2.974300	2.915200	-8.669800	28.867282	7.970087E-6	20.807558
2615.728910	-2.998700	2.912700	-8.733900	28.820015	7.937084E-6	20.828694
2616.729709	-2.991900	2.911500	-8.710400	28.848802	8.366116E-6	20.830192
2617.728220	-3.010800	2.908700	-8.756000	28.908824	6.748997E-6	20.829967
2618.727942	-2.972500	2.907800	-8.642000	28.986132	8.597133E-6	20.804014
2619.728601	-3.002200	2.905300	-8.721300	29.029056	7.640062E-6	20.812648
2620.736235	-2.998100	2.902600	-8.701900	29.036833	6.848004E-6	20.832811
2621.731864	-3.034800	2.900400	-8.801500	29.063359	7.805075E-6	20.828244
2622.732135	-3.011400	2.899300	-8.730700	28.996782	9.455196E-6	20.824700
2623.734907	-2.993400	2.898300	-8.674800	28.949447	7.112024E-6	20.804037
2624.732449	-3.006700	2.895600	-8.705700	28.997179	7.409045E-6	20.821307
2625.730666	-3.008000	2.893400	-8.702100	28.964531	8.894155E-6	20.825398
2626.733629	-3.021400	2.891500	-8.735000	28.887667	5.692919E-6	20.812921
2627.730503	-2.983100	2.890500	-8.620700	28.880236	7.904082E-6	20.828193
2628.733459	-3.018000	2.888400	-8.716300	28.873275	6.781999E-6	20.860060
2629.730931	-3.001500	2.887100	-8.664400	28.865719	6.286963E-6	20.829690
2630.731027	-3.006400	2.884400	-8.670900	28.838296	6.352968E-6	20.835255
2631.732899	-2.992400	2.883300	-8.626600	28.867180	7.475050E-6	20.838748
2632.731898	-3.016000	2.879500	-8.683800	28.884471	6.022943E-6	20.822029
2633.732738	-3.003000	2.879700	-8.646900	28.884372	7.046019E-6	20.858437
2634.731555	-2.998400	2.878200	-8.629300	28.862077	6.022943E-6	20.840719
2635.731573	-2.951500	2.876200	-8.487400	28.866734	1.057728E-5	20.827868
2636.737632	-2.998900	2.873600	-8.616400	28.896361	6.253960E-6	20.815989
2637.733068	-2.961600	2.874000	-8.510900	28.972654	8.597133E-6	20.836427
2638.732293	-2.985700	2.869800	-8.567800	28.959452	8.630135E-6	20.847307
2639.732851	-3.029400	2.866700	-8.682800	28.989621	5.494905E-6	20.848779
2640.736407	-3.019600	2.866000	-8.653300	28.991925	5.824929E-6	20.856315
2641.734750	-3.033100	2.864000	-8.685600	29.037128	7.574058E-6	20.834530
2642.734887	-3.027500	2.862100	-8.664300	29.040570	5.758924E-6	20.848430
2643.735543	-3.048000	2.859200	-8.714200	29.094563	8.762145E-6	20.830287
2644.735136	-2.960900	2.860100	-8.467500	29.119602	6.748997E-6	20.849826
2645.733238	-2.985100	2.857000	-8.527700	29.119801	7.673065E-6	20.831062
2646.740265	-2.994200	2.854700	-8.546700	29.109398	5.659917E-6	20.833856
2647.738875	-2.980900	2.853400	-8.505100	29.013795	7.673065E-6	20.841841
2648.736144	-2.986800	2.850800	-8.513600	29.055579	5.263888E-6	20.846008
2649.735876	-3.002400	2.847900	-8.549400	29.112766	6.881007E-6	20.837723
2650.735666	-3.000500	2.845700	-8.537700	29.178742	9.686213E-6	20.858211
2651.735874	-2.988700	2.845400	-8.503300	29.166285	8.828150E-6	20.842340
2652.735094	-2.977800	2.841300	-8.460200	29.174334	5.824929E-6	20.846183
2653.739382	-3.014600	2.840200	-8.561100	29.203283	8.762145E-6	20.837898
2654.739416	-2.986000	2.837400	-8.471000	29.207245	7.508053E-6	20.879820
2655.740324	-3.012500	2.835900	-8.541800	29.214749	6.154953E-6	20.855141
2656.738472	-2.990700	2.833600	-8.473200	29.198305	9.158174E-6	20.867967
2657.735186	-2.999900	2.832200	-8.495700	29.140577	7.706067E-6	20.853892
2658.737781	-2.983400	2.829100	-8.439000	29.169306	5.065873E-6	20.860556
2659.736905	-3.015100	2.826200	-8.520200	29.175175	7.145026E-6	20.858883
2660.735721	-2.979500	2.825500	-8.417300	29.166978	6.286963E-6	20.857262
2661.734987	-2.978900	2.823300	-8.409500	29.240477	5.263888E-6	20.863999
2662.742760	-3.013600	2.819900	-8.497400	29.214971	7.871079E-6	20.855839
2663.741635	-2.991700	2.817500	-8.428600	29.300527	5.131878E-6	20.873781
2664.737611	-2.974100	2.815700	-8.373700	29.302236	7.607060E-6	20.859383
2665.745408	-3.013500	2.812800	-8.475100	29.347995	6.187956E-6	20.860930
2666.739398	-3.013200	2.810500	-8.467400	29.378029	7.409045E-6	20.868440
2667.738604	-3.016100	2.807500	-8.466500	29.391648	6.253960E-6	20.846132
2668.744442	-2.995100	2.805200	-8.400800	29.379985	7.079021E-6	20.867093
2669.743769	-2.972400	2.803200	-8.331400	29.322812	7.673065E-6	20.862102
2670.739079	-2.988700	2.800300	-8.368400	29.290423	5.989941E-6	20.874029
2671.742118	-3.007900	2.796800	-8.411200	29.292999	6.748997E-6	20.856712
2672.745919	-2.999300	2.795500	-8.383700	29.255013	5.725922E-6	20.860155
2673.742968	-3.005500	2.791700	-8.389700	29.234831	6.914009E-6	20.860205
2674.742483	-3.007600	2.789800	-8.389600	29.170691	6.914009E-6	20.873805
2675.742423	-3.027900	2.786900	-8.437100	29.124949	6.583985E-6	20.867541
2676.745570	-2.976400	2.783700	-8.284200	29.165639	7.904082E-6	20.845482
2677.743551	-2.988800	2.781600	-8.312000	29.266057	9.917230E-6	20.867491
2678.746382	-3.017600	2.776800	-8.378500	29.314269	6.484977E-6	20.872457
2679.750922	-3.033000	2.773300	-8.410400	29.245701	1.064328E-5	20.875900
2680.746631	-3.005900	2.771600	-8.330400	29.212517	7.376043E-6	20.878021
2681.747495	-2.984200	2.769300	-8.263700	29.242581	7.046019E-6	20.864696
2682.748479	-3.007200	2.766800	-8.319200	29.329175	5.164880E-6	20.877996
2683.747298	-2.995300	2.763500	-8.276900	29.285074	7.508053E-6	20.881440
2684.744011	-3.019300	2.759300	-8.330900	29.276357	8.003089E-6	20.872656
2685.744948	-3.008700	2.758100	-8.297500	29.303571	6.253960E-6	20.887279
2686.746347	-2.972000	2.754500	-8.185100	29.339673	9.917230E-6	20.859655
2687.744349	-2.986800	2.752900	-8.222000	29.393255	7.277036E-6	20.870036
2688.745002	-3.001900	2.747100	-8.245400	29.434107	7.541055E-6	20.875176
2689.746008	-2.962000	2.745800	-8.131900	29.422074	6.781999E-6	20.862100
2690.745218	-3.002300	2.739900	-8.225200	29.449977	7.013016E-6	20.878369
2691.745657	-2.986000	2.738300	-8.175500	29.486843	7.244033E-6	20.916948
2692.746787	-2.997900	2.734800	-8.198100	29.500731	7.244033E-6	20.882587
2693.747421	-2.998200	2.731600	-8.188700	29.485233	7.343041E-6	20.879293
2694.749647	-3.019900	2.727200	-8.234500	29.509347	8.300111E-6	20.888900
2695.747023	-2.962400	2.725600	-8.073100	29.541678	8.234106E-6	20.873603
2696.746292	-3.005000	2.721400	-8.177000	29.575199	3.811781E-6	20.887478
2697.749018	-3.008000	2.716800	-8.170800	29.579754	6.914009E-6	20.907715
2698.746842	-3.003200	2.714400	-8.151200	29.602998	5.197883E-6	20.882786
2699.745325	-2.973600	2.711900	-8.062500	29.603394	8.894155E-6	20.899305
2700.747078	-3.028200	2.707200	-8.197400	29.566954	6.484977E-6	20.872529
2701.748967	-2.981000	2.702300	-8.054900	29.496992	7.046019E-6	20.884507
2702.743977	-3.028500	2.698300	-8.170600	29.427396	5.989941E-6	20.895437
2703.747477	-2.965000	2.695800	-7.992500	29.476592	8.267109E-6	20.875798
2704.750748	-2.975200	2.691400	-8.006500	29.518530	6.550982E-6	20.894364
2705.746631	-2.941600	2.687400	-7.904700	29.588887	6.286963E-6	20.900327
2706.749959	-3.029900	2.682700	-8.127100	29.641540	6.649990E-6	20.895561
2707.751221	-3.008900	2.677800	-8.056600	29.642654	8.663138E-6	20.892891
2708.748442	-2.974300	2.674900	-7.955100	29.593071	7.541055E-6	20.890795
2709.750246	-3.024000	2.668600	-8.068900	29.546753	6.154953E-6	20.893415
2710.751767	-2.975700	2.667200	-7.936000	29.488573	8.135099E-6	20.896883
2711.754527	-2.999800	2.661000	-7.981700	29.435369	6.583985E-6	20.893989
2712.751975	-3.010000	2.656300	-7.994300	29.439874	5.791926E-6	20.908487
2713.752623	-2.990900	2.651800	-7.930600	29.399592	5.758924E-6	20.910084
2714.750816	-2.997900	2.646500	-7.933200	29.408406	8.201104E-6	20.907589
2715.753127	-2.967600	2.644800	-7.847400	29.506943	8.102096E-6	20.893589
2716.752501	-2.998500	2.637900	-7.909000	29.595497	7.013016E-6	20.899878
2717.751339	-2.995200	2.632700	-7.885300	29.712582	9.290184E-6	20.897483
2718.752489	-2.990300	2.629100	-7.861600	29.771589	7.310038E-6	20.903396
2719.752000	-3.029300	2.623400	-7.946000	29.833688	7.145026E-6	20.902473
2720.754807	-3.020400	2.617300	-7.904800	29.831733	8.531128E-6	20.926577
2721.755029	-2.957600	2.614400	-7.731300	29.792727	6.088948E-6	20.921862
2722.755021	-2.988000	2.608600	-7.793900	29.770823	6.848004E-6	20.923958
2723.756289	-2.996900	2.602500	-7.798800	29.721715	9.686213E-6	20.913328
2724.756741	-2.977400	2.598300	-7.735300	29.705650	7.475050E-6	20.892391
2725.755009	-2.995000	2.591600	-7.760000	29.780228	8.696140E-6	20.909261
2726.756103	-3.014700	2.584900	-7.792400	29.756343	6.451975E-6	20.910783
2727.756552	-2.966700	2.581800	-7.658300	29.796712	9.719215E-6	20.921612
2728.756884	-3.031900	2.574300	-7.803000	29.805077	8.861152E-6	20.930520
2729.757089	-3.000400	2.569500	-7.708800	29.865218	6.517980E-6	20.914351
2730.758183	-2.979600	2.564000	-7.638900	29.815002	8.696140E-6	20.905442
2731.759834	-3.035500	2.556400	-7.759500	29.749412	8.531128E-6	20.909485
2732.761507	-2.993100	2.551000	-7.634200	29.799756	9.620208E-6	20.914725
2733.760051	-2.982900	2.544600	-7.588800	29.818986	5.593912E-6	20.938854
2734.755242	-3.042900	2.538200	-7.722300	29.849354	9.191176E-6	20.921113
2735.757897	-3.013300	2.532800	-7.631600	29.861877	9.752218E-6	20.934686
2736.758845	-2.985500	2.526200	-7.541100	29.923524	7.244033E-6	20.911979
2737.755932	-3.005800	2.520500	-7.575400	29.923276	8.036092E-6	20.914574
2738.759575	-3.009200	2.514500	-7.566000	29.971211	7.607060E-6	20.916920
2739.757580	-3.012500	2.507000	-7.551200	29.981456	1.054428E-5	20.923458
2740.756528	-2.964800	2.502600	-7.419000	29.965965	8.036092E-6	20.919690
2741.759877	-2.995500	2.495100	-7.473200	29.996477	9.719215E-6	20.916795
