LabVIEW Measurement	
Writer_Version	2
Reader_Version	2
Separator	Tab
Decimal_Separator	.
Multi_Headings	No
X_Columns	One
Time_Pref	Absolute
Operator	admin
Description	Clolumns are: time, Current, Voltage, Power, Battery Temp, and Chamber Temp
Date	2024/08/16
Time	13:07:17.8513970375061035156
***End_of_Header***	
	
Channels	6						
Samples	1	1	1	1	1	1	
Date	2024/09/12	2024/09/12	2024/09/12	2024/09/12	2024/09/12	2024/09/12	
Time	04:09:08.2965993881225585938	04:09:08.3044848442077636719	04:09:08.3104872703552246094	04:09:08.2802815437316894531	04:09:08.2802815437316894531	04:09:08.2802815437316894531	
X_Dimension	Time	Time	Time	Time	Time	Time	
X0	0.0000000000000000E+0	0.0000000000000000E+0	0.0000000000000000E+0	0.0000000000000000E+0	0.0000000000000000E+0	0.0000000000000000E+0	
Delta_X	1.000000	1.000000	1.000000	1.000000	1.000000	1.000000	
***End_of_Header***							
X_Value	Untitled	Untitled 1	Untitled 2	Untitled 3	Untitled 4	Untitled 5	Comment
0.000000	0.022932	4.092200	0.093859	20.778462	0.000460	20.814023
1.002582	-3.002900	3.920000	-11.771000	20.771349	0.000460	20.779410
1.999857	-3.001600	3.915200	-11.751000	20.789269	0.000460	20.804442
3.000809	-3.016900	3.909600	-11.794000	20.766164	0.000460	20.782760
4.000350	-2.973200	3.908100	-11.618000	20.771602	0.000459	20.798155
5.001024	-3.020000	3.903500	-11.787000	20.756133	0.000458	20.795963
6.004226	-3.001700	3.901400	-11.710000	20.770130	0.000455	20.777717
7.006764	-2.984800	3.898500	-11.635000	20.783062	0.000455	20.788278
8.001609	-3.027200	3.896000	-11.794000	20.822343	0.000453	20.810963
9.008142	-2.991200	3.896400	-11.655000	20.796542	0.000454	20.805550
10.007295	-3.006900	3.892500	-11.704000	20.808789	0.000453	20.798358
11.001534	-2.996200	3.891500	-11.659000	20.819344	0.000454	20.776670
12.005456	-3.008900	3.889900	-11.702000	20.833950	0.000453	20.791277
13.002596	-2.992100	3.889800	-11.638000	20.808549	0.000453	20.796221
14.002790	-3.017100	3.888000	-11.730000	20.825945	0.000453	20.786591
15.006309	-3.013300	3.887600	-11.713000	20.838143	0.000451	20.773659
16.005469	-2.986900	3.887300	-11.610000	20.861302	0.000449	20.780697
17.009555	-2.999200	3.884500	-11.649000	20.844689	0.000452	20.791585
18.004833	-3.022900	3.884400	-11.741000	20.870858	0.000451	20.780771
19.005812	-3.000500	3.882400	-11.647000	20.860385	0.000450	20.774564
20.002361	-2.999200	3.883500	-11.647000	20.888924	0.000449	20.786510
21.001562	-2.976400	3.882600	-11.555000	20.909145	0.000449	20.769275
22.006196	-3.016500	3.881300	-11.707000	20.889004	0.000447	20.790384
23.005485	-3.025100	3.879600	-11.736000	20.907070	0.000449	20.783795
24.003746	-3.011500	3.878400	-11.679000	20.922346	0.000448	20.767778
25.003073	-2.986100	3.878600	-11.581000	20.940011	0.000446	20.787342
26.010743	-3.005100	3.878600	-11.654000	20.927912	0.000446	20.767181
27.004588	-3.012700	3.877000	-11.679000	20.932801	0.000448	20.772545
28.007268	-3.017100	3.876600	-11.695000	20.945774	0.000447	20.788838
29.003308	-2.983000	3.876700	-11.563000	20.961955	0.000446	20.776572
30.003783	-2.996900	3.875600	-11.613000	20.968339	0.000446	20.762095
31.010679	-2.979300	3.877000	-11.550000	20.977944	0.000446	20.770753
32.005983	-3.000600	3.874800	-11.624000	21.020814	0.000444	20.771904
33.007770	-2.987000	3.874900	-11.574000	20.994463	0.000443	20.769256
34.010244	-3.002300	3.872800	-11.626000	20.998336	0.000444	20.762698
35.009100	-2.989700	3.874700	-11.583000	21.000127	0.000445	20.758800
36.005729	-3.007900	3.873800	-11.651000	21.028072	0.000444	20.767785
37.006804	-3.010100	3.871700	-11.653000	21.059317	0.000441	20.775328
38.006108	-2.977400	3.872500	-11.528000	21.064507	0.000442	20.765346
39.008348	-3.002900	3.873100	-11.630000	21.052132	0.000443	20.753917
40.008573	-3.009800	3.871000	-11.650000	21.065830	0.000444	20.757187
41.008179	-3.006500	3.871100	-11.638000	21.059914	0.000441	20.770710
42.009532	-3.013300	3.870700	-11.662000	21.066582	0.000443	20.763628
43.009706	-3.012900	3.871000	-11.662000	21.088935	0.000443	20.748054
44.014398	-3.016700	3.869700	-11.673000	21.104049	0.000444	20.750370
45.009393	-3.005800	3.869900	-11.632000	21.095676	0.000441	20.763807
46.009957	-2.996300	3.868800	-11.591000	21.104357	0.000439	20.759213
47.008633	-3.003800	3.869000	-11.621000	21.128360	0.000440	20.776585
48.009967	-2.998800	3.868600	-11.600000	21.119298	0.000439	20.746182
49.008909	-2.999900	3.868200	-11.603000	21.122721	0.000442	20.746287
50.013499	-2.993200	3.869100	-11.579000	21.135814	0.000440	20.754644
51.009355	-2.991100	3.867800	-11.568000	21.157945	0.000442	20.769669
52.010463	-2.960900	3.869100	-11.454000	21.153482	0.000441	20.756196
53.011196	-2.996600	3.867300	-11.588000	21.162261	0.000438	20.751700
54.008863	-2.997500	3.868000	-11.593000	21.168897	0.000441	20.755494
55.013392	-3.003800	3.867200	-11.616000	21.197392	0.000440	20.764084
56.010972	-2.992800	3.866700	-11.572000	21.196862	0.000440	20.765925
57.011022	-2.985100	3.867700	-11.544000	21.205320	0.000441	20.776757
58.010582	-2.991000	3.867300	-11.567000	21.207690	0.000441	20.748307
59.010974	-3.032400	3.864800	-11.719000	21.225418	0.000440	20.757981
60.011734	-2.978900	3.867600	-11.520000	21.222851	0.000440	20.772957
61.011749	-3.002200	3.866100	-11.606000	21.233254	0.000442	20.756811
62.011519	-2.988700	3.865500	-11.552000	21.250120	0.000441	20.741915
63.011791	-2.996200	3.864500	-11.578000	21.239416	0.000443	20.761553
64.012967	-3.010900	3.864600	-11.635000	21.274120	0.000441	20.739372
65.013477	-3.001400	3.865800	-11.601000	21.278281	0.000439	20.765820
66.014299	-2.986600	3.865600	-11.545000	21.280300	0.000440	20.745080
67.014013	-3.004300	3.862900	-11.605000	21.275856	0.000441	20.749643
68.013465	-2.991200	3.864300	-11.558000	21.292272	0.000441	20.730978
69.020806	-2.987800	3.864300	-11.544000	21.316541	0.000441	20.741034
70.015170	-3.010100	3.863700	-11.629000	21.305216	0.000440	20.738238
71.018117	-3.012900	3.862800	-11.638000	21.305616	0.000439	20.746225
72.016468	-2.986100	3.865000	-11.541000	21.335074	0.000440	20.750093
73.020322	-3.012700	3.862500	-11.636000	21.336275	0.000440	20.762199
74.018262	-2.984300	3.864500	-11.531000	21.360845	0.000441	20.761177
75.017545	-2.999600	3.862800	-11.585000	21.354512	0.000439	20.750099
76.020025	-2.988500	3.862600	-11.543000	21.385569	0.000440	20.746558
77.021070	-2.988500	3.863200	-11.545000	21.360396	0.000440	20.752667
78.023878	-2.992400	3.863800	-11.561000	21.390899	0.000439	20.741933
79.019075	-2.998000	3.861900	-11.577000	21.370699	0.000440	20.746854
80.021741	-3.000100	3.860900	-11.582000	21.397158	0.000439	20.751515
81.019086	-3.002600	3.861800	-11.595000	21.394290	0.000440	20.726833
82.021598	-3.006400	3.862300	-11.611000	21.394745	0.000441	20.751472
83.020355	-3.002400	3.860700	-11.590000	21.426718	0.000441	20.735098
84.020195	-3.012100	3.861600	-11.630000	21.424890	0.000440	20.735639
85.020695	-2.995200	3.860500	-11.562000	21.438332	0.000440	20.744347
86.021241	-3.017800	3.861900	-11.654000	21.457336	0.000439	20.746767
87.021579	-2.995300	3.860800	-11.563000	21.450031	0.000438	20.713852
88.022296	-3.016300	3.859500	-11.640000	21.483529	0.000440	20.717497
89.024165	-2.993200	3.860100	-11.553000	21.488791	0.000441	20.731772
90.023302	-3.001600	3.859500	-11.583000	21.477842	0.000441	20.753061
91.023422	-2.988700	3.860000	-11.535000	21.483178	0.000440	20.753184
92.025095	-2.993600	3.859600	-11.553000	21.516096	0.000440	20.741551
93.028557	-2.998200	3.859000	-11.569000	21.513481	0.000441	20.746995
94.024647	-3.012200	3.860100	-11.627000	21.535475	0.000440	20.733915
95.028066	-3.030200	3.858800	-11.692000	21.531407	0.000439	20.734112
96.026627	-3.002400	3.860300	-11.590000	21.563807	0.000438	20.733342
97.026581	-3.011200	3.859100	-11.619000	21.563081	0.000439	20.764385
98.027882	-2.999400	3.858900	-11.574000	21.562183	0.000439	20.752106
99.031121	-2.988500	3.858600	-11.531000	21.562478	0.000439	20.749557
100.027615	-2.989400	3.858500	-11.534000	21.564053	0.000441	20.741650
101.030315	-3.033400	3.858000	-11.702000	21.572182	0.000441	20.733188
102.028810	-3.025200	3.856900	-11.666000	21.608113	0.000441	20.745437
103.032484	-3.005300	3.857600	-11.593000	21.591911	0.000440	20.735861
104.029280	-3.018100	3.858100	-11.643000	21.595708	0.000439	20.734445
105.029193	-3.027700	3.857400	-11.678000	21.596151	0.000440	20.754329
106.029523	-3.008400	3.857100	-11.603000	21.607874	0.000442	20.718643
107.030896	-2.995600	3.857600	-11.555000	21.616298	0.000441	20.731815
108.035026	-3.021600	3.857200	-11.653000	21.627817	0.000444	20.740498
109.031558	-3.014000	3.857500	-11.625000	21.623583	0.000442	20.730097
110.032522	-2.974000	3.858400	-11.474000	21.627768	0.000442	20.709153
111.034785	-2.994200	3.856500	-11.546000	21.628315	0.000443	20.735781
112.033772	-2.999400	3.856000	-11.564000	21.644628	0.000444	20.735510
113.034771	-2.989800	3.856500	-11.530000	21.672256	0.000442	20.739925
114.036073	-2.994400	3.857600	-11.550000	21.670281	0.000442	20.721352
115.033862	-2.994800	3.855500	-11.545000	21.667666	0.000442	20.723477
116.035072	-3.001400	3.856400	-11.573000	21.683350	0.000444	20.712620
117.037323	-3.006000	3.855400	-11.589000	21.727005	0.000443	20.724068
118.035172	-2.987900	3.855800	-11.520000	21.727282	0.000443	20.734303
119.039627	-3.013200	3.853900	-11.611000	21.712848	0.000446	20.725072
120.036038	-3.001700	3.855600	-11.572000	21.736604	0.000443	20.717552
121.035890	-2.994100	3.855300	-11.543000	21.748626	0.000443	20.729586
122.035496	-3.014800	3.855400	-11.623000	21.751364	0.000445	20.724265
123.035352	-3.003500	3.855300	-11.579000	21.743661	0.000445	20.714184
124.040337	-3.030100	3.854700	-11.679000	21.770216	0.000445	20.745504
125.036916	-2.998000	3.855000	-11.556000	21.757523	0.000445	20.721420
126.035857	-2.999100	3.854900	-11.560000	21.779439	0.000445	20.718223
127.035550	-3.002300	3.852800	-11.567000	21.770080	0.000447	20.715495
128.037356	-2.995900	3.854900	-11.547000	21.803870	0.000446	20.717072
129.036874	-2.979500	3.854500	-11.484000	21.840003	0.000446	20.709140
130.038623	-2.981100	3.855000	-11.492000	21.822943	0.000445	20.729049
131.038292	-2.998200	3.853200	-11.552000	21.835014	0.000447	20.721216
132.037288	-2.986500	3.854100	-11.509000	21.850370	0.000445	20.703394
133.040727	-2.998200	3.852500	-11.550000	21.871589	0.000445	20.696657
134.046044	-2.983200	3.853100	-11.494000	21.887270	0.000448	20.722312
135.047065	-2.981900	3.853500	-11.490000	21.891927	0.000448	20.718913
136.038198	-2.994100	3.851700	-11.532000	21.871459	0.000446	20.712650
137.037401	-3.016700	3.851400	-11.617000	21.898608	0.000447	20.701891
138.038323	-3.011100	3.851700	-11.598000	21.897464	0.000448	20.716868
139.039303	-2.993300	3.851100	-11.526000	21.895194	0.000446	20.707957
140.039596	-3.007400	3.851500	-11.582000	21.895791	0.000446	20.719461
141.041747	-2.994300	3.851700	-11.532000	21.910124	0.000449	20.724326
142.040667	-2.988100	3.852400	-11.510000	21.920669	0.000450	20.720181
143.040941	-2.993600	3.850500	-11.526000	21.946475	0.000449	20.707606
144.045459	-2.993800	3.851800	-11.531000	21.938220	0.000447	20.700290
145.041882	-2.991300	3.850700	-11.517000	21.945504	0.000451	20.706633
146.043836	-2.996300	3.851900	-11.541000	22.006324	0.000450	20.703505
147.041753	-2.990900	3.850800	-11.516000	21.986430	0.000450	20.729585
148.041306	-3.021600	3.851000	-11.635000	21.972847	0.000450	20.725946
149.041491	-2.979200	3.849900	-11.469000	21.959277	0.000452	20.716628
150.041855	-2.996000	3.849100	-11.531000	21.976409	0.000449	20.701060
151.042654	-2.989700	3.850300	-11.510000	21.991462	0.000450	20.716129
152.041655	-3.000900	3.849100	-11.549000	22.014117	0.000450	20.721265
153.041293	-3.003600	3.850500	-11.564000	22.013194	0.000449	20.685251
154.041472	-3.019800	3.848800	-11.621000	22.020945	0.000450	20.715298
155.041266	-3.005200	3.849400	-11.567000	22.018109	0.000454	20.715778
156.041629	-2.993900	3.848400	-11.520000	22.016805	0.000451	20.715895
157.042299	-3.022400	3.848400	-11.630000	22.011029	0.000451	20.701577
158.041636	-3.002300	3.847800	-11.551000	22.025054	0.000455	20.723205
159.043965	-3.003700	3.848000	-11.557000	22.059058	0.000452	20.705561
160.046608	-2.990000	3.848300	-11.506000	22.048490	0.000454	20.713949
161.045816	-2.998200	3.847500	-11.535000	22.047764	0.000451	20.720335
162.047752	-2.991500	3.848500	-11.510000	22.051049	0.000452	20.706553
163.045777	-2.994200	3.848200	-11.521000	22.042228	0.000453	20.718112
164.046416	-3.013000	3.846700	-11.589000	22.071218	0.000456	20.704933
165.048079	-2.989900	3.847000	-11.502000	22.097920	0.000451	20.707483
166.045341	-3.003200	3.847600	-11.554000	22.116433	0.000454	20.712742
167.047353	-2.976800	3.847100	-11.451000	22.142285	0.000456	20.707329
168.046784	-3.000300	3.846500	-11.540000	22.146652	0.000453	20.709804
169.047416	-2.986700	3.848000	-11.491000	22.159033	0.000456	20.705130
170.048115	-2.998400	3.846800	-11.533000	22.146000	0.000454	20.693503
171.049137	-3.000100	3.845600	-11.537000	22.176580	0.000454	20.698042
172.057742	-3.010600	3.844500	-11.573000	22.155865	0.000457	20.727090
173.049292	-3.024400	3.846000	-11.631000	22.153928	0.000457	20.697648
174.049086	-3.010900	3.845700	-11.578000	22.185880	0.000457	20.740072
175.049226	-3.000500	3.847000	-11.541000	22.177159	0.000456	20.726124
176.049862	-3.005100	3.845800	-11.557000	22.181046	0.000456	20.718635
177.049561	-3.000000	3.844500	-11.533000	22.198494	0.000458	20.719510
178.048746	-2.991900	3.845300	-11.504000	22.195905	0.000457	20.697950
179.048586	-2.999700	3.845100	-11.533000	22.206717	0.000457	20.721105
180.048196	-2.979800	3.843900	-11.453000	22.197375	0.000458	20.745891
181.053518	-2.986400	3.844400	-11.480000	22.221921	0.000457	20.731112
182.048573	-3.002400	3.843600	-11.539000	22.230033	0.000459	20.720742
183.052989	-2.983800	3.843800	-11.469000	22.236982	0.000459	20.704939
184.051861	-2.987700	3.843600	-11.483000	22.245537	0.000459	20.703073
185.051420	-2.983000	3.844500	-11.467000	22.240599	0.000460	20.715199
186.050037	-3.016900	3.843400	-11.593000	22.248901	0.000462	20.726358
187.051276	-2.962000	3.844800	-11.387000	22.280180	0.000462	20.730650
188.053496	-3.003100	3.842600	-11.539000	22.299122	0.000462	20.704096
189.054482	-3.010800	3.843100	-11.569000	22.313032	0.000461	20.719448
190.053772	-3.014100	3.843600	-11.584000	22.295586	0.000461	20.718100
191.052418	-3.008400	3.841800	-11.557000	22.320455	0.000463	20.705069
192.056998	-3.004200	3.841400	-11.539000	22.316403	0.000461	20.705278
193.052990	-3.002500	3.842200	-11.536000	22.347028	0.000461	20.710815
194.055092	-2.999800	3.841900	-11.524000	22.350398	0.000461	20.706602
195.053067	-2.999800	3.841500	-11.522000	22.339679	0.000463	20.715784
196.052350	-2.971000	3.842100	-11.414000	22.345490	0.000464	20.709275
197.055713	-2.989400	3.842200	-11.485000	22.351345	0.000463	20.704231
198.054242	-2.990500	3.841700	-11.488000	22.363140	0.000464	20.709879
199.054456	-3.013500	3.840300	-11.572000	22.395067	0.000464	20.702495
200.053905	-2.998600	3.840400	-11.515000	22.392503	0.000464	20.704195
201.054698	-2.990600	3.839700	-11.482000	22.394292	0.000466	20.713574
202.054146	-2.991600	3.840700	-11.489000	22.382240	0.000465	20.703400
203.052159	-3.005100	3.840200	-11.539000	22.385130	0.000464	20.705821
204.053954	-2.965400	3.840200	-11.387000	22.399083	0.000467	20.714578
205.055385	-2.989300	3.840100	-11.478000	22.383906	0.000467	20.719769
206.053088	-2.990800	3.841300	-11.488000	22.417948	0.000468	20.715926
207.053685	-2.980900	3.840900	-11.448000	22.406037	0.000466	20.717749
208.054612	-3.015400	3.838400	-11.574000	22.413195	0.000466	20.715434
209.054477	-3.002700	3.838200	-11.523000	22.436371	0.000467	20.717306
210.055092	-3.018000	3.840300	-11.589000	22.408786	0.000467	20.722873
211.054294	-3.015500	3.840200	-11.579000	22.413952	0.000465	20.735159
212.054686	-3.008400	3.838000	-11.545000	22.443683	0.000468	20.715619
213.053526	-3.000000	3.838700	-11.515000	22.443886	0.000468	20.721987
214.052289	-2.991700	3.838900	-11.484000	22.446075	0.000470	20.718963
215.056494	-2.984000	3.840200	-11.458000	22.448270	0.000470	20.720213
216.058805	-3.002500	3.837700	-11.521000	22.467713	0.000470	20.707915
217.054896	-3.010000	3.837000	-11.549000	22.490740	0.000470	20.715330
218.056396	-3.015500	3.836900	-11.569000	22.517677	0.000471	20.730454
219.057938	-2.998700	3.836900	-11.505000	22.539375	0.000471	20.735590
220.057213	-3.014100	3.837300	-11.565000	22.547430	0.000472	20.717578
221.057845	-2.994600	3.837400	-11.491000	22.562463	0.000473	20.716987
222.058015	-2.999000	3.837900	-11.509000	22.540138	0.000473	20.710274
223.058083	-3.001300	3.835700	-11.511000	22.539087	0.000472	20.703056
224.061205	-2.985400	3.836700	-11.453000	22.534906	0.000471	20.725898
225.058842	-3.008500	3.835400	-11.538000	22.526980	0.000475	20.737401
226.063658	-2.994000	3.835900	-11.484000	22.566134	0.000473	20.714025
227.058886	-3.017800	3.834400	-11.571000	22.542315	0.000474	20.719093
228.058407	-3.003100	3.835300	-11.517000	22.542911	0.000474	20.742925
229.058909	-3.016600	3.834500	-11.566000	22.594170	0.000474	20.726458
230.060359	-2.998400	3.835800	-11.500000	22.587124	0.000474	20.732678
231.060297	-3.022800	3.833900	-11.588000	22.624917	0.000475	20.739237
232.062766	-2.997800	3.834200	-11.493000	22.612836	0.000474	20.718601
233.062247	-2.989800	3.834900	-11.464000	22.603497	0.000477	20.717307
234.061974	-3.003800	3.834200	-11.516000	22.609823	0.000475	20.726015
235.064807	-2.996700	3.833200	-11.486000	22.612713	0.000475	20.731280
236.062431	-3.016100	3.833600	-11.561000	22.624948	0.000478	20.728836
237.064272	-2.970100	3.834600	-11.388000	22.614760	0.000477	20.712467
238.063930	-3.003600	3.833000	-11.512000	22.632276	0.000476	20.737599
239.063217	-3.017600	3.833400	-11.566000	22.647947	0.000476	20.723423
240.063617	-2.978300	3.832900	-11.415000	22.664214	0.000477	20.752520
241.065058	-3.007300	3.833000	-11.526000	22.655718	0.000478	20.730258
242.067644	-3.020700	3.832900	-11.575000	22.682178	0.000477	20.750598
243.066181	-3.000500	3.831600	-11.496000	22.677377	0.000480	20.738202
244.064557	-3.000100	3.832300	-11.496000	22.684551	0.000478	20.722154
245.065316	-3.021600	3.833000	-11.581000	22.695279	0.000481	20.723416
246.067855	-3.002400	3.831600	-11.503000	22.708342	0.000478	20.742667
247.064474	-2.994900	3.832700	-11.478000	22.714693	0.000479	20.735277
248.065898	-2.983500	3.833100	-11.435000	22.741723	0.000480	20.738171
249.065085	-3.005600	3.831000	-11.514000	22.732484	0.000479	20.738874
250.064117	-2.992300	3.832200	-11.466000	22.710881	0.000479	20.737149
251.069739	-3.037600	3.829700	-11.631000	22.753059	0.000480	20.745259
252.064791	-3.017400	3.829800	-11.555000	22.769552	0.000482	20.732857
253.067860	-3.007100	3.829400	-11.514000	22.763749	0.000481	20.755020
254.064634	-2.988600	3.830000	-11.446000	22.738717	0.000480	20.738005
255.065924	-3.004000	3.831000	-11.508000	22.744668	0.000481	20.734483
256.066239	-2.986800	3.829900	-11.438000	22.752819	0.000481	20.733639
257.065402	-3.001800	3.829900	-11.496000	22.758622	0.000481	20.739453
258.068590	-2.995800	3.830700	-11.475000	22.776658	0.000482	20.752305
259.069137	-3.001100	3.828700	-11.489000	22.826234	0.000483	20.747440
260.066842	-2.982500	3.830200	-11.422000	22.834477	0.000483	20.747163
261.070203	-3.011600	3.828700	-11.530000	22.835202	0.000485	20.739354
262.067425	-2.992700	3.830000	-11.461000	22.821280	0.000485	20.735364
263.068001	-3.001300	3.829300	-11.492000	22.848855	0.000483	20.745445
264.069111	-2.991500	3.827900	-11.450000	22.852844	0.000484	20.740432
265.069464	-2.981600	3.829200	-11.416000	22.821249	0.000483	20.740075
266.067951	-2.972500	3.829100	-11.381000	22.824863	0.000485	20.742747
267.068298	-2.983900	3.827900	-11.421000	22.841983	0.000485	20.736189
268.069100	-2.987800	3.826900	-11.433000	22.841380	0.000486	20.765932
269.068976	-2.986900	3.828900	-11.435000	22.848314	0.000486	20.742058
270.069546	-2.972500	3.827200	-11.375000	22.868487	0.000485	20.736189
271.069026	-2.992300	3.827800	-11.453000	22.885630	0.000484	20.741036
272.069595	-2.977700	3.827500	-11.397000	22.897315	0.000486	20.753216
273.070796	-2.973400	3.828000	-11.382000	22.905060	0.000488	20.758605
274.070102	-2.997900	3.826200	-11.469000	22.900800	0.000486	20.760501
275.072634	-3.006700	3.826100	-11.503000	22.900733	0.000488	20.745260
276.072489	-3.001200	3.826100	-11.481000	22.910426	0.000489	20.755920
277.073550	-3.014900	3.824600	-11.530000	22.941766	0.000490	20.760767
278.074944	-2.996200	3.825300	-11.460000	22.899239	0.000489	20.734755
279.073812	-2.994500	3.825600	-11.454000	22.918023	0.000488	20.756419
280.080500	-3.003100	3.825300	-11.486000	22.937359	0.000491	20.749713
281.073752	-3.010800	3.825400	-11.516000	22.952381	0.000491	20.765237
282.073815	-3.007200	3.824500	-11.500000	22.955687	0.000492	20.763809
283.071777	-2.977700	3.824100	-11.386000	22.948890	0.000489	20.756524
284.074457	-2.991200	3.824600	-11.439000	22.941306	0.000490	20.738967
285.074095	-3.003500	3.824000	-11.485000	22.963665	0.000491	20.750464
286.077553	-3.002600	3.822900	-11.478000	22.972885	0.000491	20.759702
287.073740	-2.994100	3.823300	-11.446000	22.994556	0.000493	20.756284
288.073874	-3.004100	3.823500	-11.485000	23.038640	0.000490	20.770109
289.074295	-3.002200	3.822000	-11.474000	23.028180	0.000493	20.772430
290.073697	-2.999200	3.821900	-11.462000	23.051374	0.000495	20.767221
291.077997	-2.981200	3.822700	-11.395000	23.042905	0.000493	20.761580
292.074248	-3.001100	3.822400	-11.470000	23.023454	0.000493	20.775756
293.073186	-2.993500	3.822500	-11.442000	23.032501	0.000495	20.763957
294.074972	-3.010100	3.820500	-11.500000	23.063831	0.000494	20.753624
295.075176	-3.014800	3.823100	-11.525000	23.061668	0.000493	20.760466
296.076042	-3.022300	3.821300	-11.548000	23.075815	0.000493	20.768003
297.074992	-2.999300	3.821700	-11.462000	23.089735	0.000496	20.759191
298.075130	-3.000600	3.820600	-11.463000	23.081869	0.000494	20.777862
299.074989	-2.993900	3.821500	-11.440000	23.085163	0.000494	20.761248
300.074821	-2.999400	3.821100	-11.460000	23.087007	0.000497	20.774001
301.075062	-2.984400	3.822100	-11.406000	23.087277	0.000495	20.754831
302.077046	-2.996900	3.820700	-11.449000	23.081205	0.000495	20.769137
303.076270	-3.003400	3.820200	-11.473000	23.095850	0.000496	20.779544
304.075322	-2.996000	3.819900	-11.444000	23.113579	0.000497	20.766489
305.078198	-2.981600	3.819100	-11.386000	23.084094	0.000497	20.789101
306.075433	-3.000800	3.819000	-11.459000	23.096446	0.000496	20.778718
307.077474	-2.982100	3.819100	-11.388000	23.095850	0.000495	20.771009
308.075269	-3.027200	3.818400	-11.558000	23.129342	0.000499	20.772326
309.075259	-3.003200	3.819600	-11.471000	23.162016	0.000497	20.787050
310.078180	-3.001900	3.817200	-11.457000	23.170926	0.000498	20.772271
311.078104	-2.996600	3.818200	-11.441000	23.153296	0.000498	20.771199
312.078095	-2.982200	3.818700	-11.387000	23.175836	0.000498	20.766759
313.080357	-2.995500	3.818900	-11.438000	23.173968	0.000498	20.762517
314.077902	-2.979600	3.818500	-11.376000	23.179197	0.000498	20.776766
315.078365	-2.989800	3.818100	-11.414000	23.203426	0.000498	20.790141
316.080241	-3.009700	3.817000	-11.487000	23.222794	0.000499	20.788687
317.080060	-2.987800	3.817700	-11.406000	23.205767	0.000499	20.773995
318.082696	-2.992600	3.816700	-11.420000	23.150930	0.000500	20.796330
319.080180	-2.998100	3.817200	-11.443000	23.185299	0.000499	20.798054
320.080389	-2.988000	3.817300	-11.405000	23.174637	0.000500	20.809181
321.081398	-2.998700	3.815700	-11.441000	23.192365	0.000500	20.781902
322.081796	-2.976600	3.816900	-11.360000	23.209184	0.000501	20.781212
323.083956	-3.013200	3.816300	-11.497000	23.211611	0.000501	20.780799
324.085711	-3.008700	3.815000	-11.477000	23.222598	0.000501	20.782326
325.083281	-3.010100	3.814700	-11.481000	23.239680	0.000502	20.790911
326.084379	-2.996900	3.814400	-11.431000	23.243662	0.000502	20.788263
327.084887	-2.989700	3.815100	-11.405000	23.246728	0.000505	20.768576
328.084466	-2.999900	3.814100	-11.441000	23.269284	0.000502	20.811096
329.087669	-2.992900	3.815000	-11.417000	23.259895	0.000502	20.792204
330.084572	-2.989300	3.814500	-11.402000	23.284712	0.000502	20.790522
331.084472	-2.988200	3.813000	-11.393000	23.296399	0.000506	20.805554
332.088949	-2.985000	3.815600	-11.389000	23.309720	0.000503	20.797567
333.084445	-2.979000	3.814700	-11.363000	23.288995	0.000502	20.796711
334.091295	-3.001500	3.812600	-11.442000	23.295969	0.000503	20.803226
335.086341	-2.988800	3.813700	-11.397000	23.291441	0.000504	20.787308
336.085720	-2.991000	3.812100	-11.401000	23.263520	0.000507	20.797259
337.085724	-2.977200	3.813400	-11.353000	23.268626	0.000505	20.793367
338.085490	-2.994600	3.812200	-11.415000	23.283994	0.000506	20.800233
339.085566	-2.989300	3.812900	-11.397000	23.299705	0.000507	20.810289
340.089892	-3.004900	3.812300	-11.455000	23.338941	0.000505	20.793188
341.085666	-3.010600	3.810400	-11.471000	23.327716	0.000506	20.801853
342.085680	-3.031100	3.810000	-11.547000	23.308515	0.000506	20.803472
343.087158	-2.993600	3.811700	-11.410000	23.302666	0.000506	20.798084
344.086911	-2.995100	3.811000	-11.413000	23.341780	0.000506	20.815473
345.090461	-3.009000	3.811900	-11.469000	23.355131	0.000507	20.810837
346.087957	-3.021300	3.809000	-11.507000	23.338444	0.000507	20.809285
347.087314	-3.007000	3.810400	-11.457000	23.373256	0.000508	20.815726
348.087566	-3.007900	3.810000	-11.460000	23.355524	0.000507	20.813127
349.087569	-3.004200	3.809500	-11.444000	23.362995	0.000508	20.834365
350.089787	-2.989700	3.809700	-11.389000	23.376536	0.000509	20.816169
351.089234	-3.028400	3.807800	-11.530000	23.423769	0.000511	20.824156
352.089158	-3.008900	3.808300	-11.458000	23.426884	0.000509	20.817321
353.090361	-2.984900	3.809300	-11.369000	23.404325	0.000509	20.813675
354.092279	-2.992000	3.808500	-11.393000	23.382195	0.000511	20.807616
355.091564	-2.998400	3.808200	-11.418000	23.378134	0.000511	20.830098
356.093498	-3.014700	3.807300	-11.477000	23.406770	0.000509	20.833195
357.090811	-3.005600	3.807700	-11.443000	23.402303	0.000511	20.821132
358.094136	-3.008900	3.806500	-11.453000	23.380124	0.000509	20.833990
359.094461	-3.004100	3.807500	-11.438000	23.395680	0.000509	20.824925
360.093448	-3.033300	3.806100	-11.544000	23.435577	0.000511	20.825560
361.098794	-3.008100	3.807100	-11.451000	23.458548	0.000509	20.831988
362.094091	-2.996400	3.807400	-11.408000	23.463001	0.000511	20.830289
363.094584	-3.020900	3.805500	-11.495000	23.454315	0.000510	20.832961
364.094285	-3.008700	3.806200	-11.451000	23.487434	0.000511	20.843398
365.095368	-2.988500	3.805400	-11.371000	23.518426	0.000510	20.830843
366.098911	-3.010100	3.806900	-11.458000	23.499382	0.000512	20.837358
367.098993	-3.011700	3.804200	-11.456000	23.520121	0.000513	20.832068
368.096691	-3.013200	3.804400	-11.462000	23.481757	0.000511	20.841502
369.096516	-3.018700	3.804100	-11.482000	23.507424	0.000511	20.825030
370.100170	-3.013300	3.805100	-11.465000	23.524845	0.000515	20.824950
371.097686	-3.011100	3.803500	-11.452000	23.500304	0.000514	20.821212
372.098485	-3.018700	3.803500	-11.480000	23.506871	0.000515	20.850079
373.098133	-2.985300	3.805400	-11.359000	23.514120	0.000516	20.810880
374.097931	-2.998800	3.804000	-11.406000	23.529010	0.000515	20.833866
375.097839	-3.026900	3.803000	-11.511000	23.550419	0.000516	20.866231
376.098560	-3.017200	3.802300	-11.471000	23.513370	0.000515	20.832887
377.102604	-2.992200	3.803000	-11.378000	23.561052	0.000515	20.833743
378.097866	-3.012800	3.802000	-11.454000	23.577134	0.000517	20.833743
379.098051	-3.007500	3.802600	-11.436000	23.616791	0.000516	20.843152
380.102974	-3.000900	3.803300	-11.413000	23.629039	0.000516	20.866809
381.099529	-3.008500	3.801300	-11.436000	23.628093	0.000516	20.851163
382.100591	-3.007700	3.802300	-11.435000	23.606158	0.000516	20.848140
383.100347	-3.010400	3.802200	-11.445000	23.615323	0.000518	20.846422
384.101833	-2.998400	3.800900	-11.396000	23.620820	0.000516	20.851933
385.101370	-3.009100	3.800400	-11.434000	23.628124	0.000516	20.863522
386.099766	-2.980400	3.802500	-11.331000	23.634838	0.000516	20.857924
387.104809	-3.003800	3.800800	-11.416000	23.650021	0.000515	20.857025
388.104134	-3.025800	3.799700	-11.496000	23.681636	0.000518	20.857900
389.102616	-2.998700	3.800800	-11.396000	23.666901	0.000516	20.867308
390.103257	-2.997700	3.800800	-11.393000	23.666004	0.000519	20.851237
391.107282	-2.997800	3.800900	-11.393000	23.671164	0.000518	20.867315
392.102637	-3.017700	3.799800	-11.467000	23.646140	0.000518	20.857401
393.104386	-3.011900	3.799500	-11.443000	23.659112	0.000518	20.856656
394.102936	-2.988800	3.799400	-11.355000	23.667675	0.000517	20.873300
395.102650	-3.020900	3.798100	-11.474000	23.687889	0.000520	20.864642
396.104382	-3.018500	3.797800	-11.462000	23.691942	0.000520	20.857327
397.104071	-3.019000	3.797600	-11.464000	23.644549	0.000519	20.874771
398.107744	-3.001800	3.798000	-11.400000	23.670586	0.000519	20.872425
399.104940	-3.012300	3.797100	-11.437000	23.685530	0.000518	20.866071
400.104744	-2.985400	3.797100	-11.335000	23.679529	0.000518	20.855788
401.105423	-2.993000	3.797900	-11.367000	23.680328	0.000520	20.860381
402.107400	-2.987900	3.798000	-11.348000	23.718741	0.000518	20.873762
403.108386	-3.016100	3.796900	-11.451000	23.729692	0.000520	20.857241
404.110559	-3.018300	3.796900	-11.459000	23.696082	0.000518	20.848202
405.106546	-3.007600	3.795800	-11.415000	23.703036	0.000520	20.868448
406.110605	-2.995200	3.797200	-11.372000	23.681686	0.000520	20.847519
407.110465	-3.017300	3.795400	-11.450000	23.717746	0.000520	20.860911
408.109033	-3.005100	3.795300	-11.404000	23.730287	0.000519	20.862580
409.112864	-3.005100	3.795400	-11.405000	23.784728	0.000522	20.861687
410.109162	-2.978600	3.796400	-11.307000	23.784483	0.000522	20.855277
411.108704	-2.996200	3.794700	-11.369000	23.811665	0.000522	20.835117
412.108500	-2.995900	3.794800	-11.368000	23.805063	0.000522	20.831817
413.108452	-3.016300	3.793600	-11.442000	23.811917	0.000523	20.860499
414.111114	-3.006400	3.793200	-11.403000	23.810093	0.000522	20.852032
415.109793	-2.998500	3.793700	-11.374000	23.845363	0.000522	20.854680
416.110667	-3.004100	3.793300	-11.394000	23.846339	0.000523	20.845228
417.111890	-3.017300	3.792500	-11.443000	23.849772	0.000524	20.841558
418.113002	-2.999200	3.792500	-11.374000	23.832073	0.000526	20.843726
419.110615	-2.965300	3.793900	-11.249000	23.822843	0.000525	20.833997
420.111782	-3.012300	3.791600	-11.420000	23.834094	0.000525	20.850019
421.110406	-3.019700	3.791900	-11.449000	23.851111	0.000524	20.858073
422.110658	-2.988500	3.791300	-11.329000	23.831975	0.000527	20.830826
423.109567	-3.003900	3.791700	-11.388000	23.845891	0.000525	20.860425
424.110189	-3.012500	3.791100	-11.419000	23.821025	0.000525	20.855881
425.117808	-3.001900	3.791100	-11.380000	23.815872	0.000524	20.841232
426.110625	-3.018900	3.790600	-11.442000	23.838024	0.000528	20.831201
427.110471	-3.010700	3.791000	-11.412000	23.813809	0.000527	20.850068
428.111575	-3.006000	3.791200	-11.394000	23.827670	0.000524	20.824613
429.111470	-2.998500	3.791200	-11.367000	23.834094	0.000526	20.836743
430.112206	-3.003800	3.788300	-11.378000	23.865752	0.000525	20.840512
431.114277	-3.007700	3.789800	-11.397000	23.857013	0.000526	20.834594
432.111928	-3.012000	3.789000	-11.412000	23.846382	0.000525	20.824883
433.110739	-3.020200	3.789000	-11.443000	23.860053	0.000525	20.817254
434.114230	-3.023300	3.787600	-11.449000	23.857289	0.000526	20.831078
435.111745	-3.017300	3.789000	-11.431000	23.866820	0.000528	20.848221
436.114845	-3.015900	3.788400	-11.424000	23.882001	0.000526	20.835943
437.111989	-3.012100	3.787900	-11.408000	23.911293	0.000526	20.847297
438.111486	-2.999400	3.787900	-11.361000	23.896211	0.000526	20.822217
439.112324	-3.020700	3.787900	-11.441000	23.906786	0.000528	20.836614
440.111928	-3.015200	3.786900	-11.417000	23.946456	0.000527	20.852211
441.113930	-2.997500	3.786000	-11.348000	23.922807	0.000526	20.831343
442.111796	-2.994400	3.787800	-11.341000	23.939013	0.000527	20.814877
443.111417	-2.998600	3.785900	-11.352000	23.947426	0.000526	20.816201
444.116270	-2.990000	3.786500	-11.321000	23.943643	0.000527	20.818572
445.113490	-2.986300	3.787500	-11.310000	24.000480	0.000528	20.834791
446.116189	-2.996500	3.787100	-11.347000	24.022874	0.000526	20.824058
447.112415	-2.986900	3.785100	-11.304000	24.014118	0.000526	20.817174
448.113092	-2.991700	3.784800	-11.323000	24.032004	0.000526	20.806662
449.113276	-2.995500	3.786300	-11.341000	24.007646	0.000526	20.825382
450.112407	-3.009900	3.784700	-11.390000	23.971694	0.000527	20.805924
451.113188	-3.006200	3.784400	-11.376000	24.002568	0.000528	20.820764
452.117620	-2.986900	3.784900	-11.304000	24.024477	0.000527	20.829459
453.113436	-3.007100	3.784400	-11.380000	24.019939	0.000526	20.831072
454.115590	-3.021700	3.784200	-11.432000	23.980726	0.000527	20.822094
455.116028	-2.994100	3.783600	-11.328000	23.970244	0.000530	20.810634
456.115127	-3.005900	3.783400	-11.372000	23.987843	0.000528	20.829231
457.117764	-2.991800	3.784500	-11.321000	23.965946	0.000528	20.818652
458.115795	-3.005900	3.781800	-11.367000	23.947930	0.000529	20.797266
459.116731	-3.014300	3.783100	-11.402000	23.977484	0.000530	20.817894
460.115363	-3.002000	3.782200	-11.353000	23.990975	0.000529	20.811983
461.115253	-2.998900	3.782500	-11.342000	24.025588	0.000531	20.815875
462.117017	-3.006100	3.781900	-11.367000	24.077097	0.000529	20.798306
463.116934	-3.006400	3.780700	-11.365000	24.099692	0.000530	20.815277
464.117231	-3.012000	3.780700	-11.387000	24.067764	0.000531	20.807913
465.117402	-2.979600	3.781800	-11.266000	24.066420	0.000531	20.830745
466.117635	-2.981700	3.780400	-11.270000	24.064430	0.000529	20.824957
467.117373	-3.008500	3.781400	-11.376000	24.107373	0.000529	20.804489
468.119722	-2.993400	3.780700	-11.315000	24.092748	0.000530	20.809735
469.118928	-2.987700	3.780200	-11.293000	24.047827	0.000530	20.837229
470.124466	-2.979300	3.781000	-11.264000	24.070300	0.000531	20.804766
471.131321	-2.993600	3.779800	-11.315000	24.060624	0.000532	20.826829
472.121552	-3.014800	3.778300	-11.390000	24.074408	0.000531	20.812679
473.123886	-3.004400	3.778300	-11.351000	24.075648	0.000533	20.818664
474.120517	-3.006500	3.778700	-11.359000	24.099213	0.000533	20.800572
475.120914	-2.991600	3.778800	-11.303000	24.084613	0.000532	20.801102
476.120945	-2.995100	3.777500	-11.313000	24.033601	0.000532	20.821066
477.120791	-3.017800	3.776300	-11.395000	24.048454	0.000531	20.829323
478.123094	-2.989000	3.778000	-11.290000	24.032354	0.000532	20.806539
479.123684	-2.980400	3.776900	-11.255000	24.044573	0.000532	20.798879
480.120918	-2.991900	3.776100	-11.297000	24.081801	0.000531	20.814877
481.122506	-2.984200	3.777200	-11.272000	24.079308	0.000532	20.818067
482.127107	-3.012900	3.777800	-11.381000	24.101276	0.000533	20.811650
483.123849	-2.996400	3.777100	-11.317000	24.107944	0.000533	20.803165
484.126764	-3.007600	3.775000	-11.352000	24.103419	0.000531	20.815222
485.123901	-3.027500	3.773600	-11.423000	24.059402	0.000530	20.826552
486.122744	-3.017500	3.775300	-11.390000	24.068139	0.000532	20.808288
487.124629	-3.025300	3.775100	-11.420000	24.117762	0.000532	20.810167
488.126197	-3.018000	3.775400	-11.393000	24.137961	0.000533	20.810511
489.126768	-3.011500	3.774200	-11.364000	24.112230	0.000532	20.824058
490.125688	-2.999500	3.775600	-11.324000	24.129697	0.000530	20.804594
491.126581	-3.001400	3.774500	-11.327000	24.124742	0.000531	20.800098
492.127365	-2.996900	3.774000	-11.310000	24.134928	0.000532	20.805573
493.127244	-2.995500	3.774300	-11.305000	24.117780	0.000532	20.799279
494.128482	-3.002100	3.773500	-11.327000	24.153236	0.000531	20.807340
495.131159	-2.976600	3.773000	-11.230000	24.140129	0.000533	20.791822
496.128761	-3.001200	3.772000	-11.320000	24.123373	0.000533	20.811053
497.129740	-3.006300	3.772300	-11.340000	24.142241	0.000533	20.801053
498.130141	-3.004800	3.772900	-11.336000	24.132607	0.000532	20.800874
499.129410	-3.007400	3.772500	-11.344000	24.137188	0.000534	20.811632
500.132570	-2.986600	3.771100	-11.262000	24.131312	0.000531	20.791040
501.131459	-2.986100	3.771100	-11.260000	24.171876	0.000535	20.804224
502.131494	-2.981500	3.772600	-11.247000	24.214919	0.000534	20.803301
503.132391	-2.998900	3.770600	-11.307000	24.210591	0.000531	20.807020
504.133258	-2.970100	3.772200	-11.202000	24.206729	0.000531	20.814052
505.131057	-2.999200	3.770600	-11.308000	24.227062	0.000532	20.802679
506.135825	-2.990700	3.770200	-11.275000	24.194358	0.000534	20.801644
507.132652	-3.010300	3.771100	-11.351000	24.206901	0.000534	20.795732
508.132058	-3.011900	3.768200	-11.349000	24.210118	0.000535	20.779993
509.133559	-3.009400	3.769700	-11.344000	24.283510	0.000534	20.800505
510.132757	-3.010900	3.769500	-11.348000	24.286892	0.000533	20.795837
511.135591	-3.010900	3.768800	-11.347000	24.275180	0.000535	20.806373
512.132002	-2.959300	3.771300	-11.159000	24.299753	0.000533	20.803048
513.132768	-3.009500	3.769300	-11.343000	24.277267	0.000535	20.796139
514.133245	-3.013700	3.769200	-11.358000	24.275327	0.000535	20.793245
515.134694	-3.008800	3.768100	-11.336000	24.307697	0.000533	20.772610
516.135853	-3.014800	3.767000	-11.356000	24.326653	0.000535	20.802057
517.135106	-3.019700	3.767400	-11.375000	24.321404	0.000535	20.802482
518.134999	-3.020200	3.766800	-11.375000	24.320312	0.000533	20.802808
519.135246	-3.014200	3.766200	-11.352000	24.323712	0.000534	20.809538
520.137116	-2.989300	3.766400	-11.259000	24.319188	0.000534	20.789827
521.134656	-2.994200	3.766600	-11.278000	24.301570	0.000534	20.794439
522.137273	-2.974400	3.766100	-11.201000	24.308163	0.000536	20.788251
523.134417	-2.986000	3.765700	-11.243000	24.312313	0.000534	20.788146
524.134870	-2.980400	3.765600	-11.223000	24.353091	0.000534	20.785430
525.137294	-2.984500	3.765300	-11.236000	24.339955	0.000534	20.801650
526.134708	-3.006900	3.765600	-11.322000	24.346848	0.000533	20.797186
527.140656	-3.003600	3.764300	-11.306000	24.368314	0.000534	20.772252
528.136213	-3.003000	3.765300	-11.306000	24.349684	0.000535	20.809040
529.135518	-2.988400	3.765400	-11.252000	24.318268	0.000535	20.802180
530.136098	-3.003800	3.763400	-11.304000	24.294959	0.000532	20.786859
531.137418	-3.000400	3.764500	-11.294000	24.328936	0.000535	20.788700
532.137604	-3.000200	3.763300	-11.290000	24.359113	0.000535	20.774402
533.139012	-3.009800	3.762400	-11.323000	24.312141	0.000532	20.801724
534.138272	-3.008100	3.763200	-11.319000	24.275849	0.000534	20.784285
535.137350	-2.988200	3.762900	-11.244000	24.313443	0.000532	20.796392
536.139776	-2.999500	3.762100	-11.282000	24.313240	0.000531	20.801878
537.138369	-3.020500	3.761700	-11.361000	24.328145	0.000535	20.781268
538.141244	-2.985700	3.762500	-11.233000	24.339734	0.000534	20.792894
539.139389	-3.006200	3.761100	-11.305000	24.360611	0.000534	20.792500
540.139168	-2.999200	3.761100	-11.279000	24.362901	0.000535	20.800961
541.138291	-2.997600	3.760700	-11.272000	24.375515	0.000537	20.785166
542.138939	-2.977500	3.761400	-11.198000	24.394274	0.000533	20.797346
543.142105	-3.003900	3.760400	-11.295000	24.399276	0.000534	20.789563
544.143163	-2.970100	3.761200	-11.170000	24.387699	0.000534	20.786958
545.140976	-2.968600	3.761800	-11.166000	24.423147	0.000535	20.782690
546.142507	-3.019300	3.758600	-11.347000	24.384342	0.000533	20.770787
547.145718	-2.998800	3.760600	-11.277000	24.386306	0.000532	20.786982
548.143722	-2.985100	3.760800	-11.226000	24.378431	0.000533	20.786669
549.146533	-3.016900	3.758500	-11.338000	24.411933	0.000534	20.778078
550.142768	-3.000700	3.759100	-11.279000	24.447030	0.000536	20.780572
551.145382	-2.985900	3.759300	-11.224000	24.430568	0.000532	20.760738
552.151023	-2.996000	3.759100	-11.261000	24.427677	0.000533	20.779648
553.144970	-2.989100	3.758400	-11.233000	24.434269	0.000535	20.780572
554.148929	-2.998600	3.757500	-11.267000	24.402302	0.000535	20.761304
555.144808	-3.016800	3.756700	-11.332000	24.382108	0.000536	20.775184
556.145904	-3.005800	3.757600	-11.294000	24.379314	0.000534	20.773804
557.145987	-3.013900	3.757000	-11.322000	24.420858	0.000532	20.766643
558.146830	-2.994800	3.757700	-11.253000	24.382476	0.000533	20.782192
559.151079	-3.016400	3.755900	-11.329000	24.364540	0.000536	20.780794
560.147852	-3.017800	3.755900	-11.334000	24.370334	0.000533	20.779494
561.146832	-3.011100	3.757300	-11.312000	24.379934	0.000532	20.798608
562.146956	-2.998900	3.755400	-11.261000	24.422674	0.000532	20.797863
563.177631	-2.990100	3.755000	-11.227000	24.391235	0.000532	20.779599
564.149844	-3.007400	3.756400	-11.296000	24.423871	0.000534	20.774882
565.151303	-2.982300	3.756200	-11.201000	24.437718	0.000533	20.762221
566.148365	-2.996100	3.754600	-11.248000	24.439314	0.000534	20.759555
567.150488	-2.984900	3.754600	-11.206000	24.429757	0.000532	20.777942
568.151396	-2.990900	3.755400	-11.231000	24.446778	0.000532	20.772259
569.151381	-3.017200	3.754100	-11.326000	24.438124	0.000532	20.777801
570.153554	-3.011900	3.754600	-11.308000	24.433846	0.000534	20.777776
571.152056	-2.985700	3.755000	-11.210000	24.456630	0.000533	20.767917
572.152149	-3.005800	3.753700	-11.281000	24.441782	0.000533	20.768195
573.151248	-2.998600	3.754400	-11.257000	24.417948	0.000532	20.763724
574.151267	-3.003600	3.752300	-11.269000	24.461730	0.000533	20.752646
575.155517	-3.000000	3.753200	-11.259000	24.455936	0.000534	20.770541
576.152789	-2.993900	3.752800	-11.235000	24.450584	0.000535	20.767542
577.152956	-3.007100	3.752700	-11.284000	24.425909	0.000534	20.764124
578.153134	-2.993300	3.752300	-11.230000	24.397828	0.000532	20.759186
579.153163	-3.012900	3.750600	-11.299000	24.426603	0.000534	20.784735
580.153012	-3.005200	3.750800	-11.271000	24.453125	0.000534	20.775781
581.155190	-2.984700	3.751600	-11.197000	24.474582	0.000534	20.755583
582.154205	-2.991700	3.751800	-11.224000	24.482967	0.000533	20.759253
583.155328	-3.010500	3.750800	-11.290000	24.490976	0.000531	20.747374
584.156140	-3.001400	3.750000	-11.254000	24.456672	0.000531	20.768434
585.156524	-3.002800	3.749400	-11.258000	24.500814	0.000532	20.740175
586.158388	-2.993800	3.750500	-11.227000	24.527433	0.000531	20.785849
587.156261	-2.992900	3.750000	-11.222000	24.536535	0.000532	20.765583
588.156260	-2.995900	3.749100	-11.231000	24.543568	0.000531	20.762208
589.156251	-2.994400	3.749200	-11.225000	24.575506	0.000532	20.746838
590.157348	-3.006100	3.748700	-11.268000	24.583012	0.000532	20.770017
591.158326	-3.003100	3.749000	-11.257000	24.581821	0.000533	20.761709
592.159658	-3.008500	3.748300	-11.276000	24.586768	0.000531	20.765250
593.155962	-3.002700	3.747600	-11.252000	24.567135	0.000532	20.751715
594.157523	-2.995300	3.748400	-11.227000	24.557788	0.000533	20.735697
595.157524	-2.991800	3.746400	-11.208000	24.576911	0.000530	20.754412
596.158034	-3.013900	3.746300	-11.290000	24.545525	0.000530	20.740938
597.159164	-2.991600	3.746800	-11.207000	24.534674	0.000534	20.770829
598.157381	-2.991200	3.745800	-11.203000	24.517287	0.000530	20.737735
599.157988	-3.001700	3.745700	-11.242000	24.523977	0.000530	20.752035
600.160276	-2.993800	3.745900	-11.214000	24.536086	0.000531	20.744269
601.158361	-3.001200	3.746200	-11.242000	24.545838	0.000532	20.736510
602.164777	-2.985600	3.746100	-11.182000	24.543801	0.000532	20.728301
603.160250	-2.979800	3.746400	-11.162000	24.611868	0.000530	20.731639
604.160969	-3.004300	3.745000	-11.250000	24.651690	0.000530	20.754529
605.162193	-2.998100	3.744500	-11.226000	24.640699	0.000531	20.753457
606.161608	-3.013400	3.746400	-11.289000	24.666853	0.000531	20.737975
607.162341	-2.995000	3.745900	-11.218000	24.668296	0.000533	20.740845
608.167079	-2.990600	3.744600	-11.198000	24.663945	0.000531	20.729840
609.162966	-3.004300	3.744400	-11.248000	24.705354	0.000531	20.748635
610.165640	-3.008400	3.744100	-11.264000	24.734128	0.000531	20.739577
611.166939	-2.998100	3.744600	-11.226000	24.664448	0.000530	20.757848
612.165685	-3.033300	3.741600	-11.348000	24.600306	0.000529	20.732365
613.168369	-2.992400	3.743900	-11.202000	24.610254	0.000533	20.738554
614.164833	-3.011000	3.743600	-11.271000	24.630401	0.000531	20.745495
615.164509	-3.004200	3.742500	-11.242000	24.638514	0.000529	20.749842
616.165501	-3.013100	3.741700	-11.273000	24.576979	0.000531	20.738832
617.166219	-3.019100	3.742300	-11.297000	24.583380	0.000531	20.727236
618.166495	-2.983100	3.742100	-11.162000	24.562035	0.000530	20.748020
619.163357	-2.986900	3.741300	-11.173000	24.556395	0.000528	20.739990
620.165516	-3.005800	3.741200	-11.245000	24.583380	0.000529	20.718701
621.165266	-3.012000	3.741000	-11.266000	24.590548	0.000529	20.745335
622.165516	-2.999100	3.740800	-11.219000	24.610942	0.000531	20.766272
623.172846	-2.992800	3.740700	-11.194000	24.620890	0.000529	20.738321
624.167497	-2.999900	3.740500	-11.220000	24.648923	0.000530	20.714766
625.165139	-2.979500	3.739500	-11.140000	24.629181	0.000530	20.740002
626.166425	-2.997900	3.739000	-11.208000	24.589039	0.000527	20.721060
627.168917	-2.989700	3.739100	-11.178000	24.600761	0.000530	20.739935
628.166174	-2.974700	3.739400	-11.122000	24.568823	0.000530	20.708836
629.171432	-3.014700	3.738800	-11.270000	24.616649	0.000531	20.725057
630.166634	-2.994600	3.738600	-11.194000	24.629359	0.000530	20.712679
631.166349	-2.987900	3.737300	-11.166000	24.613796	0.000532	20.731677
632.166536	-3.005700	3.737600	-11.233000	24.634140	0.000529	20.708941
633.166466	-3.000000	3.737400	-11.212000	24.653888	0.000530	20.720223
634.166124	-3.012200	3.737800	-11.258000	24.680577	0.000529	20.727563
635.169538	-3.020000	3.736200	-11.282000	24.676478	0.000529	20.737201
636.167222	-3.011500	3.737600	-11.255000	24.705896	0.000527	20.734953
637.166786	-2.993500	3.737500	-11.188000	24.718009	0.000529	20.735255
638.172132	-2.995500	3.738000	-11.197000	24.691230	0.000529	20.741100
639.168309	-3.015900	3.736700	-11.269000	24.703988	0.000527	20.724029
640.172934	-2.994000	3.735200	-11.182000	24.691905	0.000527	20.738458
641.169043	-3.036400	3.735200	-11.341000	24.678546	0.000529	20.710352
642.168586	-3.012900	3.735600	-11.253000	24.665542	0.000525	20.737608
643.169253	-3.000900	3.735900	-11.210000	24.653606	0.000529	20.729424
644.169869	-3.018600	3.734400	-11.271000	24.678055	0.000531	20.722662
645.172321	-3.011900	3.735100	-11.249000	24.648636	0.000528	20.722065
646.170478	-3.000500	3.734400	-11.204000	24.690715	0.000528	20.728254
647.171139	-2.985200	3.734700	-11.148000	24.722992	0.000529	20.707537
648.171161	-2.988700	3.735900	-11.164000	24.718789	0.000528	20.727502
649.169641	-3.016400	3.733300	-11.261000	24.736517	0.000527	20.728223
650.171204	-3.033400	3.732500	-11.321000	24.736173	0.000526	20.709385
651.171670	-3.009300	3.732500	-11.232000	24.729926	0.000526	20.711177
652.170792	-3.010200	3.733700	-11.238000	24.711253	0.000526	20.688169
653.170314	-3.012800	3.733800	-11.248000	24.738413	0.000525	20.716375
654.172990	-2.972700	3.732600	-11.095000	24.720980	0.000526	20.723537
655.182868	-3.017500	3.732800	-11.263000	24.752336	0.000527	20.718493
656.174385	-3.029400	3.730900	-11.301000	24.755024	0.000528	20.727355
657.171017	-2.991900	3.732900	-11.168000	24.769947	0.000526	20.713406
658.173668	-2.994000	3.732700	-11.174000	24.755877	0.000526	20.714934
659.172606	-2.988200	3.731800	-11.150000	24.721729	0.000526	20.708166
660.173740	-3.003200	3.730500	-11.203000	24.744930	0.000526	20.710586
661.176205	-3.021100	3.730600	-11.270000	24.718869	0.000526	20.729005
662.175738	-3.015100	3.729800	-11.245000	24.718305	0.000525	20.715162
663.173928	-3.000800	3.730400	-11.193000	24.671324	0.000524	20.732977
664.173887	-3.001600	3.730100	-11.195000	24.688727	0.000525	20.735268
665.178482	-3.017700	3.729700	-11.254000	24.695772	0.000526	20.726690
666.174950	-2.990700	3.730200	-11.155000	24.739217	0.000525	20.744210
667.177771	-3.000600	3.729300	-11.189000	24.745464	0.000527	20.703061
668.176422	-3.012400	3.728700	-11.231000	24.794123	0.000523	20.735299
669.179461	-3.019500	3.728600	-11.258000	24.791823	0.000526	20.705488
670.177351	-2.997100	3.727600	-11.172000	24.770009	0.000524	20.731962
671.177140	-2.994100	3.727900	-11.161000	24.734695	0.000524	20.742991
672.181021	-2.975900	3.729400	-11.097000	24.733897	0.000526	20.707101
673.178675	-3.000800	3.728400	-11.187000	24.749864	0.000523	20.711744
674.178578	-2.998000	3.727300	-11.174000	24.724527	0.000522	20.712871
675.180118	-2.983800	3.727900	-11.123000	24.719385	0.000524	20.725256
676.179550	-2.992300	3.726200	-11.148000	24.706456	0.000522	20.699951
677.179212	-2.996300	3.727000	-11.166000	24.706781	0.000524	20.729678
678.181478	-2.976800	3.726700	-11.093000	24.759442	0.000524	20.724202
679.181436	-3.000600	3.726700	-11.181000	24.707076	0.000524	20.733766
680.181081	-2.998700	3.726100	-11.173000	24.722294	0.000523	20.737184
681.179191	-2.992400	3.725100	-11.145000	24.742292	0.000523	20.711258
682.181162	-2.993400	3.725000	-11.149000	24.721779	0.000522	20.709639
683.182650	-2.985300	3.726100	-11.122000	24.716109	0.000523	20.729554
684.180718	-2.993300	3.724900	-11.149000	24.705290	0.000523	20.739561
685.180197	-2.994000	3.726100	-11.155000	24.701314	0.000523	20.728458
686.180672	-2.993200	3.725500	-11.150000	24.730462	0.000524	20.725466
687.180706	-3.013800	3.723500	-11.221000	24.759357	0.000523	20.742136
688.183011	-3.017600	3.724100	-11.236000	24.790173	0.000523	20.749827
689.182562	-3.001300	3.724100	-11.176000	24.783055	0.000521	20.731303
690.181041	-3.006900	3.724300	-11.197000	24.788675	0.000523	20.732677
691.181381	-3.021600	3.723200	-11.248000	24.813950	0.000522	20.728169
692.182725	-2.997400	3.723400	-11.159000	24.804046	0.000520	20.722023
693.181545	-2.992400	3.724500	-11.144000	24.823791	0.000523	20.708648
694.183308	-3.018300	3.722200	-11.234000	24.820711	0.000523	20.728791
695.182462	-3.000500	3.721900	-11.166000	24.799223	0.000520	20.749427
696.184212	-2.989600	3.722900	-11.129000	24.795020	0.000520	20.725767
697.186566	-3.004900	3.721700	-11.182000	24.811035	0.000521	20.738995
698.183913	-3.007700	3.722400	-11.194000	24.794351	0.000521	20.710871
699.190661	-3.005100	3.720300	-11.179000	24.805641	0.000520	20.713192
700.183963	-2.989500	3.722000	-11.126000	24.807875	0.000521	20.723021
701.183683	-3.001700	3.721700	-11.170000	24.869520	0.000520	20.723249
702.184302	-2.989400	3.722400	-11.126000	24.852113	0.000520	20.738496
703.184503	-3.005000	3.720800	-11.180000	24.803580	0.000521	20.728668
704.184085	-3.000900	3.720600	-11.165000	24.807801	0.000518	20.728163
705.189134	-2.995000	3.719200	-11.138000	24.744944	0.000520	20.731464
706.188947	-3.025800	3.718800	-11.251000	24.755234	0.000519	20.713340
707.185916	-2.998700	3.720300	-11.155000	24.773262	0.000520	20.746607
708.186280	-3.018500	3.720300	-11.229000	24.754663	0.000518	20.742641
709.186080	-3.007800	3.719700	-11.187000	24.783730	0.000522	20.731981
710.190759	-3.002600	3.717900	-11.162000	24.807574	0.000520	20.745480
711.186583	-2.991500	3.719000	-11.124000	24.832516	0.000520	20.738743
712.188052	-2.996100	3.718000	-11.139000	24.839210	0.000519	20.731236
713.187356	-3.009800	3.717600	-11.188000	24.837737	0.000520	20.747777
714.187757	-2.999200	3.717900	-11.150000	24.789369	0.000517	20.754710
715.190076	-3.013900	3.717000	-11.201000	24.786663	0.000520	20.728760
716.189456	-3.034600	3.717100	-11.279000	24.819606	0.000517	20.746649
717.188113	-3.030100	3.717400	-11.262000	24.812096	0.000517	20.747647
718.188664	-3.023100	3.716400	-11.234000	24.829559	0.000518	20.758535
719.193656	-3.008600	3.716800	-11.181000	24.872471	0.000518	20.748497
720.188548	-3.006900	3.716200	-11.173000	24.895099	0.000518	20.751293
721.193917	-3.000000	3.716900	-11.150000	24.876600	0.000518	20.748374
722.189122	-3.021200	3.716100	-11.226000	24.875379	0.000518	20.734820
723.190175	-3.010700	3.716800	-11.189000	24.910805	0.000517	20.756151
724.195662	-3.002200	3.717300	-11.159000	24.932647	0.000517	20.733502
725.191986	-3.015500	3.715700	-11.203000	24.928885	0.000517	20.745375
726.196760	-3.021800	3.714900	-11.225000	24.924186	0.000516	20.724061
727.191139	-2.999200	3.714500	-11.140000	24.883785	0.000518	20.734721
728.189796	-2.982600	3.715500	-11.080000	24.866526	0.000515	20.747271
729.190816	-2.997700	3.714200	-11.133000	24.865605	0.000517	20.735442
730.192208	-3.010800	3.713500	-11.180000	24.864243	0.000515	20.742610
731.191504	-2.982400	3.715200	-11.078000	24.821441	0.000516	20.750861
732.195219	-2.996300	3.713600	-11.125000	24.799867	0.000515	20.757660
733.192804	-2.992600	3.714300	-11.114000	24.794038	0.000516	20.748016
734.192904	-2.987800	3.713100	-11.093000	24.780392	0.000514	20.749020
735.197510	-3.007200	3.711800	-11.161000	24.776685	0.000515	20.759052
736.193298	-3.009500	3.712500	-11.172000	24.843376	0.000516	20.745375
737.196368	-2.983500	3.712900	-11.076000	24.865427	0.000516	20.740479
738.191903	-3.010800	3.712400	-11.176000	24.895399	0.000515	20.755388
739.193025	-3.001100	3.711800	-11.139000	24.921817	0.000516	20.770998
740.192375	-3.003900	3.711300	-11.148000	24.926002	0.000514	20.737264
741.193141	-3.016500	3.711000	-11.193000	24.934425	0.000515	20.764686
742.195540	-3.002900	3.712200	-11.146000	24.952702	0.000514	20.765961
743.194034	-3.007700	3.711500	-11.162000	24.908964	0.000515	20.764261
744.194861	-2.972900	3.712300	-11.036000	24.926597	0.000514	20.744500
745.194819	-2.994800	3.711700	-11.115000	24.949990	0.000516	20.768455
746.196155	-3.029200	3.709000	-11.234000	24.978008	0.000515	20.754852
747.195513	-2.987000	3.710300	-11.082000	24.939990	0.000514	20.767426
748.197702	-2.976700	3.711500	-11.047000	24.946064	0.000512	20.772100
749.195829	-3.012800	3.709700	-11.176000	24.904240	0.000514	20.755252
750.195650	-2.981900	3.710400	-11.063000	24.922572	0.000511	20.757057
751.196995	-2.974300	3.711200	-11.038000	24.910559	0.000513	20.764440
752.195454	-2.988200	3.709200	-11.082000	24.924137	0.000513	20.762420
753.197762	-3.014000	3.708200	-11.176000	24.967371	0.000514	20.777840
754.195518	-3.006300	3.708800	-11.149000	24.964113	0.000514	20.772673
755.197313	-3.016700	3.708200	-11.185000	24.998702	0.000512	20.770407
756.197597	-2.995400	3.708200	-11.107000	25.048773	0.000511	20.750966
757.196757	-2.992000	3.707900	-11.093000	25.066243	0.000512	20.785100
758.200625	-2.997300	3.709200	-11.117000	25.053692	0.000511	20.789570
759.197661	-2.989100	3.708600	-11.085000	25.010456	0.000513	20.762765
760.198287	-2.978400	3.708900	-11.046000	25.027786	0.000512	20.768307
761.205098	-3.008300	3.707100	-11.150000	25.060900	0.000512	20.772150
762.197406	-3.025400	3.706300	-11.213000	25.054760	0.000512	20.760770
763.202965	-2.987600	3.706600	-11.073000	25.037748	0.000510	20.764082
764.201263	-3.014700	3.706400	-11.173000	25.045754	0.000511	20.765954
765.200536	-3.001800	3.705400	-11.122000	25.038693	0.000510	20.781626
766.201257	-3.028300	3.705500	-11.220000	25.038441	0.000510	20.764778
767.202359	-3.014700	3.705400	-11.170000	25.026982	0.000510	20.774138
768.202462	-3.015400	3.706100	-11.174000	25.032374	0.000510	20.758688
769.201702	-3.007600	3.705600	-11.145000	25.028644	0.000510	20.780549
770.202149	-3.025500	3.704200	-11.206000	24.966787	0.000509	20.777728
771.201180	-3.020700	3.704700	-11.190000	24.944615	0.000508	20.768276
772.202287	-2.982500	3.705000	-11.050000	24.984137	0.000508	20.774754
773.202092	-3.012700	3.703900	-11.158000	24.971560	0.000510	20.773510
774.203342	-3.010200	3.703300	-11.146000	24.945456	0.000509	20.798043
775.201190	-2.986700	3.703900	-11.061000	24.941198	0.000508	20.790450
776.201244	-3.018000	3.702800	-11.175000	24.942419	0.000507	20.784089
777.203454	-3.015800	3.704100	-11.170000	24.961094	0.000508	20.770117
778.202100	-3.002200	3.703800	-11.119000	24.988713	0.000506	20.782193
779.205836	-2.995200	3.704100	-11.094000	24.977744	0.000509	20.781614
780.203809	-3.016800	3.701200	-11.165000	25.027718	0.000509	20.783886
781.204199	-2.996400	3.702300	-11.093000	25.039380	0.000508	20.797015
782.203984	-2.994900	3.701600	-11.085000	24.987867	0.000507	20.771385
783.204032	-2.980100	3.701200	-11.029000	25.005387	0.000505	20.777118
784.206315	-3.007300	3.702100	-11.131000	25.025129	0.000506	20.785080
785.207239	-3.001300	3.700400	-11.105000	25.050416	0.000505	20.784859
786.203781	-2.984500	3.701700	-11.047000	25.073880	0.000505	20.776170
787.203687	-3.033900	3.699900	-11.224000	25.039821	0.000507	20.793190
788.207622	-2.995800	3.701200	-11.087000	25.030552	0.000505	20.803800
789.202930	-3.000700	3.700300	-11.103000	25.017424	0.000505	20.783036
790.206041	-3.036000	3.699700	-11.231000	25.051011	0.000505	20.784034
791.205862	-2.995200	3.699800	-11.081000	25.046508	0.000503	20.802273
792.206256	-2.989900	3.700900	-11.065000	25.049471	0.000506	20.777746
793.207356	-3.007800	3.699400	-11.126000	25.046938	0.000505	20.789902
794.205707	-2.989200	3.700200	-11.060000	25.080456	0.000504	20.809324
795.208814	-3.001800	3.699300	-11.104000	25.079113	0.000505	20.770043
796.207018	-3.006100	3.698000	-11.115000	25.059740	0.000504	20.798012
797.207287	-3.005500	3.698500	-11.115000	25.082664	0.000503	20.792101
798.209647	-2.993700	3.699500	-11.075000	25.029068	0.000503	20.794250
799.208482	-3.003300	3.697500	-11.103000	25.054907	0.000503	20.784626
800.209825	-3.008500	3.698200	-11.125000	25.085806	0.000503	20.785297
801.210841	-3.029200	3.697300	-11.199000	25.071230	0.000503	20.792951
802.209693	-3.003000	3.698000	-11.104000	25.030043	0.000503	20.822730
803.211027	-3.009700	3.696600	-11.125000	25.048147	0.000502	20.788271
804.211881	-2.977300	3.699400	-11.012000	25.040092	0.000500	20.800100
805.212383	-3.004200	3.696200	-11.103000	25.042227	0.000503	20.817890
806.214676	-2.994400	3.697700	-11.072000	25.079647	0.000503	20.805667
807.211753	-3.004900	3.695500	-11.104000	25.059808	0.000501	20.807564
808.212024	-2.998300	3.696200	-11.082000	25.080623	0.000501	20.815181
809.212483	-3.006000	3.696800	-11.112000	25.059539	0.000500	20.810612
810.215431	-2.994400	3.695500	-11.065000	25.078083	0.000501	20.810735
811.214423	-2.990700	3.695200	-11.051000	25.078954	0.000501	20.798807
812.214115	-3.007900	3.695400	-11.114000	25.073954	0.000501	20.817496
813.211602	-2.999900	3.693600	-11.079000	25.073016	0.000502	20.809442
814.211703	-2.976300	3.695200	-10.997000	25.053790	0.000502	20.818118
815.214305	-2.981500	3.695400	-11.017000	25.099013	0.000500	20.816098
816.212816	-2.988200	3.693200	-11.035000	25.090039	0.000499	20.806615
817.217156	-3.001800	3.693600	-11.087000	25.109926	0.000500	20.802397
818.215351	-2.996400	3.695200	-11.071000	25.138063	0.000497	20.825901
819.214916	-3.006000	3.693200	-11.101000	25.173461	0.000499	20.805488
820.218226	-3.023300	3.694600	-11.169000	25.170376	0.000498	20.830365
821.215560	-3.026700	3.691700	-11.173000	25.115643	0.000499	20.829473
822.219610	-3.011300	3.692200	-11.118000	25.120016	0.000499	20.823432
823.216126	-3.015000	3.691700	-11.129000	25.102589	0.000497	20.824430
824.217417	-3.005100	3.693400	-11.097000	25.121507	0.000498	20.810230
825.218353	-3.004000	3.692900	-11.093000	25.172793	0.000497	20.819990
826.219386	-2.993600	3.691500	-11.050000	25.205854	0.000496	20.830895
827.217698	-2.972000	3.692600	-10.974000	25.205676	0.000495	20.829768
828.220972	-2.982000	3.692000	-11.009000	25.193672	0.000498	20.839054
829.220419	-2.994000	3.691300	-11.051000	25.148950	0.000496	20.824978
830.221596	-2.981100	3.693000	-11.008000	25.115121	0.000497	20.820415
831.223601	-2.999500	3.691300	-11.071000	25.133192	0.000495	20.823857
832.222021	-2.999400	3.690900	-11.070000	25.120065	0.000494	20.834386
833.224387	-2.999300	3.690300	-11.068000	25.132143	0.000495	20.822330
834.221921	-2.991200	3.689800	-11.036000	25.113453	0.000496	20.825378
835.222136	-3.002900	3.690500	-11.080000	25.139498	0.000495	20.806005
836.222670	-3.005200	3.690600	-11.090000	25.152882	0.000493	20.842675
837.222689	-2.994900	3.690500	-11.052000	25.155097	0.000495	20.835415
838.224792	-2.982900	3.689900	-11.006000	25.147337	0.000496	20.816720
839.223280	-2.989400	3.689500	-11.029000	25.170204	0.000494	20.828771
840.223789	-3.002800	3.688000	-11.073000	25.150612	0.000497	20.823327
841.224511	-2.983100	3.688600	-11.003000	25.139676	0.000495	20.827521
842.223272	-2.994700	3.689000	-11.046000	25.172142	0.000494	20.833087
843.225562	-3.010900	3.687400	-11.101000	25.168910	0.000495	20.842644
844.224245	-2.997200	3.688000	-11.053000	25.152680	0.000493	20.817342
845.225402	-3.017800	3.688300	-11.130000	25.161402	0.000492	20.829891
846.225342	-3.007800	3.688200	-11.092000	25.147785	0.000491	20.841825
847.225242	-3.030600	3.685900	-11.170000	25.136173	0.000492	20.844867
848.225124	-3.007300	3.686400	-11.085000	25.174903	0.000493	20.846763
849.226491	-3.007600	3.686700	-11.088000	25.162230	0.000495	20.833094
850.225622	-3.015700	3.686500	-11.116000	25.134812	0.000491	20.850138
851.225265	-2.996900	3.686400	-11.047000	25.152386	0.000490	20.845969
852.228266	-3.022600	3.685900	-11.139000	25.146896	0.000492	20.825760
853.226010	-2.991500	3.687400	-11.030000	25.146822	0.000493	20.842281
854.232356	-3.016900	3.685600	-11.119000	25.149030	0.000492	20.841179
855.225674	-3.011200	3.685700	-11.098000	25.166733	0.000489	20.839984
856.225296	-2.999200	3.685200	-11.052000	25.201756	0.000492	20.854756
857.225740	-3.017200	3.684700	-11.116000	25.195519	0.000491	20.850390
858.226586	-2.996100	3.684700	-11.038000	25.176995	0.000490	20.852182
859.225797	-3.001600	3.684100	-11.057000	25.194108	0.000491	20.864147
860.229434	-2.996300	3.684400	-11.039000	25.204646	0.000490	20.853863
861.233322	-3.009800	3.684900	-11.090000	25.216502	0.000491	20.861025
862.233761	-3.014600	3.683400	-11.103000	25.257516	0.000490	20.831080
863.230359	-3.016000	3.683800	-11.109000	25.280626	0.000491	20.863290
864.228107	-3.017900	3.682800	-11.114000	25.248347	0.000488	20.850797
865.232013	-2.997500	3.683400	-11.040000	25.203008	0.000490	20.853642
866.227509	-3.009100	3.682900	-11.081000	25.169420	0.000489	20.852164
867.229258	-3.015900	3.681200	-11.102000	25.195402	0.000489	20.838895
868.228900	-3.002300	3.682700	-11.055000	25.185809	0.000488	20.848704
869.227912	-3.011000	3.681500	-11.085000	25.134727	0.000489	20.863328
870.232296	-3.012200	3.682800	-11.092000	25.141339	0.000488	20.869492
871.228923	-2.983500	3.681900	-10.984000	25.130923	0.000488	20.861881
872.230491	-3.006300	3.681400	-11.067000	25.128439	0.000486	20.837103
873.230428	-2.998900	3.681700	-11.040000	25.138229	0.000487	20.859258
874.230983	-2.992700	3.680200	-11.013000	25.184847	0.000484	20.866702
875.232000	-2.976600	3.681200	-10.956000	25.198218	0.000488	20.842669
876.229661	-3.019300	3.679500	-11.109000	25.228794	0.000485	20.863408
877.231261	-3.002200	3.680000	-11.047000	25.262902	0.000487	20.873470
878.231127	-2.976400	3.680800	-10.955000	25.244263	0.000487	20.852387
879.233550	-2.997200	3.679400	-11.027000	25.227065	0.000485	20.874948
880.231957	-2.982800	3.679900	-10.975000	25.220054	0.000484	20.851315
881.233689	-2.998300	3.679300	-11.030000	25.244987	0.000484	20.863544
882.231961	-2.994200	3.679400	-11.016000	25.224906	0.000488	20.890323
883.233033	-2.996600	3.678700	-11.023000	25.175683	0.000485	20.876943
884.232013	-3.007100	3.677900	-11.059000	25.162091	0.000485	20.861876
885.233656	-3.017500	3.676600	-11.092000	25.166188	0.000484	20.863144
886.236028	-2.989400	3.678100	-10.994000	25.196950	0.000484	20.882645
887.236557	-3.008200	3.676100	-11.058000	25.202568	0.000485	20.885441
888.235238	-3.008700	3.677300	-11.062000	25.249999	0.000482	20.865731
889.234770	-2.983300	3.678200	-10.972000	25.254623	0.000483	20.860417
890.238031	-2.997100	3.676700	-11.019000	25.216939	0.000483	20.858145
891.234624	-2.993500	3.678000	-11.009000	25.224177	0.000484	20.881531
892.237693	-2.989100	3.676300	-10.987000	25.204495	0.000483	20.867461
893.236730	-3.002800	3.675500	-11.036000	25.212394	0.000483	20.873496
894.235890	-3.000100	3.675700	-11.026000	25.258677	0.000479	20.867806
895.236698	-3.027600	3.675600	-11.127000	25.273716	0.000483	20.867732
896.237410	-2.989500	3.676700	-10.989000	25.266761	0.000483	20.852690
897.240469	-3.002600	3.674900	-11.033000	25.265621	0.000481	20.842536
898.237285	-2.991400	3.676000	-10.994000	25.285952	0.000483	20.862948
899.237056	-3.009700	3.674700	-11.058000	25.264676	0.000480	20.842062
900.236838	-3.003200	3.674000	-11.032000	25.263456	0.000483	20.858853
901.237114	-2.990500	3.674200	-10.986000	25.287841	0.000481	20.848724
902.236089	-2.996700	3.674400	-11.010000	25.311380	0.000480	20.864297
903.241461	-2.995800	3.675400	-11.011000	25.333624	0.000480	20.842062
904.236259	-3.002300	3.672300	-11.024000	25.296894	0.000478	20.845012
905.237921	-2.982300	3.673100	-10.952000	25.295576	0.000479	20.838472
906.238114	-2.993500	3.672800	-10.994000	25.337059	0.000480	20.844562
907.237749	-2.999700	3.673100	-11.017000	25.315189	0.000479	20.869543
908.242278	-2.998300	3.672600	-11.011000	25.329811	0.000480	20.843922
909.238153	-2.993200	3.671300	-10.988000	25.331626	0.000479	20.850012
910.237841	-2.994000	3.673000	-10.996000	25.326781	0.000478	20.852260
911.238822	-2.984100	3.671600	-10.955000	25.337201	0.000478	20.837593
912.238916	-2.984100	3.672700	-10.958000	25.357598	0.000478	20.842900
913.240243	-2.997200	3.671900	-11.005000	25.345603	0.000477	20.826589
914.241859	-3.022400	3.669600	-11.090000	25.323359	0.000477	20.845505
915.241429	-3.018200	3.670200	-11.077000	25.349657	0.000477	20.835875
916.239768	-2.991000	3.671800	-10.981000	25.278373	0.000477	20.841589
917.240839	-3.017000	3.670000	-11.071000	25.278876	0.000477	20.849680
918.241350	-3.011900	3.669100	-11.050000	25.266549	0.000474	20.835407
919.242764	-2.997900	3.670900	-11.004000	25.264138	0.000475	20.824927
920.241466	-3.012400	3.669400	-11.053000	25.301146	0.000474	20.834582
921.241648	-3.019300	3.668600	-11.075000	25.229337	0.000472	20.817014
922.243980	-2.992800	3.669800	-10.982000	25.247658	0.000476	20.829718
923.242034	-2.999300	3.669400	-11.005000	25.241973	0.000475	20.830174
924.243501	-3.009800	3.669000	-11.042000	25.230890	0.000475	20.819521
925.250353	-2.994700	3.668300	-10.984000	25.290297	0.000475	20.821793
926.241409	-2.980300	3.669900	-10.935000	25.310260	0.000471	20.824293
927.242325	-2.993600	3.668600	-10.982000	25.363770	0.000474	20.805001
928.241676	-2.996200	3.667200	-10.987000	25.348364	0.000473	20.825094
929.242486	-2.988900	3.666900	-10.959000	25.363825	0.000473	20.813592
930.243495	-2.992800	3.667200	-10.974000	25.342998	0.000472	20.835353
931.241923	-2.982500	3.666100	-10.933000	25.322643	0.000470	20.813019
932.242541	-2.951600	3.667200	-10.823000	25.287053	0.000472	20.817114
933.243703	-2.993700	3.666600	-10.976000	25.264808	0.000472	20.827970
934.242638	-2.985100	3.665700	-10.942000	25.253523	0.000471	20.818062
935.246048	-3.000900	3.665000	-10.998000	25.271328	0.000469	20.802748
936.244093	-2.986400	3.664900	-10.944000	25.303410	0.000469	20.820735
937.245106	-3.001300	3.665900	-11.002000	25.341392	0.000472	20.826154
938.246556	-2.980200	3.665900	-10.923000	25.373657	0.000472	20.798333
939.245840	-2.976700	3.665000	-10.909000	25.358993	0.000470	20.812059
940.249380	-2.995200	3.665900	-10.979000	25.363335	0.000470	20.808358
941.247083	-3.031900	3.662600	-11.103000	25.332475	0.000469	20.811037
942.246209	-3.019300	3.663600	-11.061000	25.355124	0.000469	20.809122
943.245758	-2.973400	3.663600	-10.892000	25.412856	0.000470	20.797866
944.255814	-2.978300	3.664500	-10.913000	25.366384	0.000469	20.803359
945.246273	-2.998700	3.662700	-10.983000	25.397599	0.000470	20.783493
946.246730	-3.005900	3.662900	-11.010000	25.384402	0.000469	20.801536
947.246288	-3.006900	3.661700	-11.009000	25.362281	0.000466	20.790230
948.247066	-2.991900	3.662800	-10.958000	25.363526	0.000467	20.790532
949.250288	-2.999600	3.662800	-10.986000	25.346036	0.000467	20.784824
950.246753	-3.022500	3.661300	-11.066000	25.353119	0.000467	20.792885
951.250684	-3.019000	3.661000	-11.052000	25.373676	0.000466	20.803569
952.248118	-2.984800	3.662400	-10.930000	25.317929	0.000468	20.802122
953.248809	-2.984200	3.660400	-10.922000	25.309999	0.000465	20.796530
954.248575	-2.989400	3.659600	-10.939000	25.359737	0.000464	20.798107
955.248607	-2.998700	3.660300	-10.975000	25.374456	0.000464	20.808144
956.248868	-2.992900	3.660300	-10.954000	25.409417	0.000466	20.784455
957.253386	-2.979000	3.661100	-10.905000	25.443593	0.000464	20.787953
958.250885	-2.991700	3.660200	-10.950000	25.404523	0.000465	20.813680
959.252754	-3.005500	3.658700	-10.995000	25.328282	0.000464	20.793077
960.255871	-3.015300	3.659300	-11.033000	25.295519	0.000463	20.807122
961.251867	-3.019400	3.657600	-11.043000	25.285546	0.000463	20.805170
962.255832	-3.026200	3.658000	-11.069000	25.300641	0.000465	20.784763
963.253277	-2.987300	3.658400	-10.927000	25.325571	0.000464	20.814062
964.258284	-2.992900	3.657900	-10.947000	25.375081	0.000463	20.791229
965.252936	-2.986000	3.657700	-10.921000	25.374689	0.000464	20.795577
966.257194	-2.958100	3.658800	-10.822000	25.391990	0.000464	20.800146
967.255183	-3.015700	3.657300	-11.028000	25.362044	0.000463	20.796156
968.254240	-2.983400	3.657500	-10.911000	25.388016	0.000461	20.788095
969.255826	-2.987300	3.658100	-10.927000	25.401759	0.000461	20.786722
970.254770	-2.986900	3.656600	-10.922000	25.414208	0.000459	20.767454
971.255352	-2.966000	3.656700	-10.844000	25.452277	0.000460	20.778181
972.256240	-3.003700	3.656400	-10.981000	25.398877	0.000459	20.790940
973.258052	-3.000800	3.655200	-10.968000	25.372237	0.000460	20.776519
974.256543	-2.998700	3.656700	-10.965000	25.367889	0.000458	20.793490
975.256079	-2.989600	3.655100	-10.926000	25.356930	0.000459	20.791021
976.257226	-3.024600	3.654100	-11.051000	25.357286	0.000458	20.760558
977.258825	-2.997000	3.655300	-10.954000	25.369606	0.000460	20.780990
978.258930	-3.010600	3.654200	-11.000000	25.331638	0.000456	20.801188
979.257223	-3.009300	3.653300	-10.993000	25.328179	0.000458	20.790128
980.260166	-2.995700	3.654400	-10.947000	25.334643	0.000457	20.797093
981.259310	-2.982000	3.654500	-10.896000	25.357261	0.000456	20.765749
982.259901	-2.996800	3.652600	-10.946000	25.331565	0.000456	20.784045
983.264687	-2.984000	3.653400	-10.900000	25.352613	0.000457	20.790005
984.263166	-2.988100	3.653400	-10.916000	25.362511	0.000458	20.780030
985.259810	-2.991100	3.652400	-10.924000	25.396535	0.000457	20.800443
986.258891	-3.009800	3.652400	-10.992000	25.419323	0.000456	20.786342
987.262115	-2.992000	3.652200	-10.927000	25.416717	0.000453	20.769974
988.261886	-3.012200	3.652500	-11.001000	25.412247	0.000457	20.782081
989.263268	-2.994600	3.651900	-10.935000	25.439119	0.000455	20.788676
990.260248	-3.001900	3.651300	-10.960000	25.450967	0.000454	20.794409
991.261144	-3.027300	3.649900	-11.048000	25.373281	0.000453	20.761920
992.261597	-2.973900	3.651800	-10.860000	25.362770	0.000455	20.774125
993.261068	-2.996200	3.650800	-10.937000	25.380297	0.000453	20.770388
994.262102	-3.003600	3.649900	-10.962000	25.334712	0.000454	20.782937
995.262332	-3.020500	3.648600	-11.019000	25.376114	0.000453	20.789895
996.261486	-3.000500	3.649100	-10.947000	25.402571	0.000453	20.780900
997.262120	-3.015400	3.649200	-11.003000	25.461791	0.000451	20.740792
998.263461	-3.001700	3.649000	-10.952000	25.455009	0.000453	20.780924
999.262144	-2.976900	3.650500	-10.866000	25.435698	0.000449	20.761533
1000.263486	-3.017200	3.647900	-11.005000	25.469199	0.000451	20.755818
1001.263663	-2.991400	3.649300	-10.916000	25.455285	0.000450	20.773615
1002.263653	-2.989000	3.649200	-10.906000	25.434803	0.000451	20.771065
1003.266515	-2.989100	3.647500	-10.901000	25.437790	0.000449	20.779280
1004.263064	-3.004300	3.647200	-10.957000	25.466200	0.000449	20.756601
1005.267909	-2.996000	3.648100	-10.928000	25.478176	0.000451	20.756773
1006.265157	-2.994400	3.648100	-10.922000	25.485216	0.000450	20.773800
1007.263753	-2.998200	3.646700	-10.931000	25.441297	0.000449	20.758620
1008.264650	-3.008600	3.646100	-10.969000	25.440703	0.000447	20.765610
1009.264184	-3.010700	3.645300	-10.974000	25.449723	0.000448	20.741951
1010.264527	-3.012500	3.645000	-10.980000	25.503306	0.000449	20.771577
1011.268104	-2.980300	3.646300	-10.866000	25.500847	0.000449	20.752038
1012.266132	-3.014400	3.644600	-10.985000	25.481187	0.000447	20.776393
1013.268626	-3.013100	3.643800	-10.978000	25.459566	0.000448	20.757999
1014.266539	-3.011900	3.644600	-10.976000	25.417897	0.000446	20.749347
1015.266425	-2.996200	3.643600	-10.916000	25.392098	0.000444	20.752364
1016.264991	-3.017300	3.643000	-10.991000	25.402529	0.000447	20.760942
1017.264710	-3.000500	3.645700	-10.938000	25.436509	0.000444	20.753337
1018.266777	-2.998200	3.643100	-10.922000	25.454452	0.000446	20.759501
1019.265589	-3.000400	3.642700	-10.928000	25.431989	0.000444	20.737893
1020.266308	-2.989000	3.644000	-10.890000	25.435994	0.000446	20.748079
1021.267957	-3.007900	3.642600	-10.955000	25.459106	0.000442	20.751848
1022.267520	-3.005600	3.643000	-10.948000	25.498143	0.000444	20.760703
1023.265184	-3.010800	3.641900	-10.964000	25.523339	0.000444	20.760401
1024.265977	-3.003100	3.641500	-10.934000	25.511542	0.000444	20.751398
1025.267254	-3.024300	3.641400	-11.011000	25.491735	0.000446	20.741939
1026.267414	-3.003300	3.641700	-10.936000	25.497922	0.000442	20.746730
1027.267590	-2.996100	3.642100	-10.911000	25.454808	0.000444	20.734728
1028.268560	-3.007000	3.640800	-10.946000	25.397145	0.000442	20.759329
1029.269030	-3.010600	3.640100	-10.958000	25.352511	0.000442	20.742961
1030.268631	-3.005200	3.639900	-10.936000	25.380925	0.000440	20.751577
1031.267718	-2.999500	3.639100	-10.914000	25.376448	0.000439	20.753245
1032.266751	-3.002900	3.640100	-10.929000	25.406595	0.000440	20.750801
1033.268112	-3.001900	3.640200	-10.926000	25.395329	0.000443	20.741859
1034.272809	-3.002000	3.638100	-10.920000	25.446585	0.000440	20.744015
1035.270705	-3.011700	3.639800	-10.961000	25.505501	0.000439	20.739168
1036.269210	-3.023000	3.639000	-10.999000	25.514196	0.000439	20.743158
1037.270773	-2.998400	3.637200	-10.905000	25.458806	0.000439	20.752494
1038.271160	-3.000800	3.638200	-10.917000	25.409723	0.000438	20.768166
1039.269690	-2.974200	3.639200	-10.822000	25.376864	0.000437	20.740861
1040.270273	-3.006100	3.637500	-10.934000	25.383555	0.000437	20.748054
1041.272663	-3.014500	3.636600	-10.961000	25.416634	0.000436	20.736224
1042.270324	-2.996900	3.638200	-10.902000	25.469390	0.000436	20.741785
1043.269416	-2.979400	3.639200	-10.840000	25.460590	0.000438	20.748596
1044.272068	-3.007000	3.635800	-10.932000	25.427464	0.000437	20.758953
1045.269485	-2.989300	3.635100	-10.865000	25.399726	0.000438	20.732523
1046.271010	-2.976800	3.635900	-10.821000	25.429880	0.000436	20.756164
1047.273886	-3.002600	3.635000	-10.913000	25.457659	0.000436	20.750868
1048.270862	-2.977100	3.635900	-10.823000	25.467575	0.000437	20.722417
1049.274735	-2.997100	3.635900	-10.896000	25.500025	0.000435	20.752161
1050.274466	-3.008700	3.633800	-10.931000	25.537510	0.000434	20.744760
1051.274149	-3.017600	3.635600	-10.970000	25.514343	0.000434	20.749470
1052.276251	-3.003100	3.635700	-10.917000	25.525976	0.000434	20.721795
1053.276237	-2.980700	3.634600	-10.832000	25.515343	0.000434	20.752845
1054.276180	-2.977000	3.634100	-10.817000	25.503018	0.000432	20.716284
1055.276000	-2.989300	3.635200	-10.866000	25.554108	0.000434	20.736298
1056.276311	-2.992900	3.633100	-10.873000	25.536191	0.000432	20.733478
1057.273540	-3.006200	3.632700	-10.919000	25.522094	0.000433	20.727855
1058.278543	-2.995900	3.633400	-10.884000	25.450730	0.000431	20.733952
1059.275528	-2.998300	3.631600	-10.889000	25.470978	0.000431	20.732948
1060.275709	-3.010000	3.633100	-10.934000	25.499559	0.000432	20.736994
1061.281213	-2.996500	3.632100	-10.883000	25.495586	0.000431	20.737745
1062.278330	-3.015700	3.630900	-10.949000	25.545309	0.000431	20.728409
1063.275133	-3.003000	3.631800	-10.905000	25.530802	0.000428	20.731384
1064.275520	-3.024100	3.629600	-10.975000	25.534579	0.000429	20.729013
1065.280555	-2.994800	3.629700	-10.869000	25.565072	0.000428	20.730713
1066.274306	-3.003100	3.629800	-10.900000	25.529679	0.000428	20.742111
1067.274873	-2.989100	3.630800	-10.852000	25.514080	0.000429	20.729765
1068.279749	-2.981100	3.629400	-10.818000	25.537859	0.000429	20.735153
1069.277168	-2.995400	3.630400	-10.873000	25.552342	0.000427	20.740215
1070.278181	-3.010900	3.629300	-10.926000	25.588758	0.000426	20.740751
1071.278549	-3.015300	3.628300	-10.939000	25.578487	0.000428	20.712417
1072.278448	-2.999500	3.629000	-10.884000	25.576329	0.000426	20.720207
1073.278909	-3.010000	3.628500	-10.921000	25.539748	0.000427	20.720928
1074.280314	-3.024900	3.628500	-10.974000	25.533764	0.000428	20.717288
1075.278564	-2.998400	3.627100	-10.875000	25.516441	0.000424	20.714591
1076.282986	-2.999300	3.626000	-10.875000	25.495421	0.000426	20.732364
1077.283937	-2.991700	3.627500	-10.851000	25.451687	0.000423	20.730172
1078.278615	-2.993000	3.627800	-10.857000	25.434161	0.000425	20.711623
1079.278547	-3.012400	3.626800	-10.925000	25.435185	0.000424	20.740154
1080.287221	-3.008200	3.625900	-10.905000	25.496316	0.000425	20.733263
1081.281138	-3.001800	3.625800	-10.883000	25.469851	0.000423	20.711426
1082.283973	-2.960600	3.626200	-10.734000	25.505508	0.000424	20.694601
1083.281004	-2.994400	3.624700	-10.852000	25.502455	0.000423	20.711925
1084.280406	-2.996400	3.625300	-10.861000	25.555335	0.000423	20.709554
1085.289354	-2.984800	3.625200	-10.820000	25.575343	0.000422	20.715423
1086.281087	-2.988400	3.625100	-10.833000	25.528024	0.000421	20.742820
1087.282773	-2.990000	3.625400	-10.839000	25.488376	0.000422	20.719599
1088.277999	-2.986500	3.623200	-10.820000	25.492920	0.000420	20.705194
1089.287975	-2.989900	3.623300	-10.833000	25.470249	0.000422	20.711352
1090.282754	-3.021700	3.622900	-10.947000	25.465080	0.000421	20.718015
1091.280179	-3.000500	3.622600	-10.869000	25.427305	0.000421	20.706635
1092.293326	-2.989400	3.622300	-10.827000	25.446812	0.000422	20.701092
1093.280284	-3.006800	3.621800	-10.888000	25.509488	0.000418	20.709030
1094.287318	-3.005500	3.621200	-10.883000	25.582694	0.000421	20.712374
1095.280509	-2.992200	3.621400	-10.835000	25.608336	0.000419	20.721057
1096.280956	-2.992100	3.621200	-10.834000	25.529514	0.000418	20.683621
1097.281278	-3.002800	3.620700	-10.871000	25.538216	0.000419	20.711327
1098.286627	-3.001500	3.621700	-10.870000	25.572755	0.000416	20.720885
1099.283566	-3.012700	3.621500	-10.909000	25.610119	0.000416	20.700562
1100.289342	-3.018300	3.618600	-10.920000	25.620383	0.000417	20.709923
1101.283382	-3.019600	3.620100	-10.931000	25.607741	0.000416	20.712873
1102.289568	-3.011800	3.618900	-10.898000	25.598697	0.000416	20.698099
1103.283247	-2.973800	3.619800	-10.763000	25.583988	0.000414	20.711777
1104.284791	-2.994700	3.619600	-10.838000	25.601984	0.000416	20.687649
1105.281940	-3.004400	3.618600	-10.871000	25.551453	0.000415	20.699016
1106.284956	-2.972000	3.619400	-10.756000	25.558965	0.000414	20.692809
1107.287828	-3.023300	3.618200	-10.938000	25.566145	0.000414	20.711401
1108.283634	-2.991400	3.617700	-10.821000	25.520844	0.000414	20.696726
1109.288099	-2.998400	3.617500	-10.845000	25.470721	0.000412	20.708033
1110.285745	-2.986800	3.618100	-10.806000	25.443083	0.000413	20.684544
1111.294826	-2.989700	3.617400	-10.814000	25.486450	0.000412	20.701542
1112.286336	-2.995300	3.616700	-10.832000	25.494305	0.000415	20.709431
1113.286005	-3.003800	3.615700	-10.859000	25.551460	0.000414	20.699023
1114.303857	-3.004300	3.615500	-10.861000	25.598795	0.000412	20.692033
1115.288618	-3.004000	3.614600	-10.857000	25.606699	0.000409	20.693807
1116.284522	-2.998300	3.615500	-10.839000	25.576354	0.000414	20.687038
1117.290463	-3.004100	3.616000	-10.862000	25.569573	0.000409	20.685444
1118.288355	-3.012000	3.615400	-10.888000	25.554513	0.000413	20.696399
1119.290702	-2.998100	3.616200	-10.841000	25.563680	0.000411	20.691854
1120.284850	-3.008700	3.613400	-10.871000	25.539472	0.000410	20.693621
1121.288664	-2.998300	3.614600	-10.837000	25.525356	0.000408	20.687980
1122.288332	-2.992800	3.613400	-10.813000	25.520463	0.000409	20.717682
1123.287783	-3.017600	3.612700	-10.900000	25.565978	0.000409	20.689895
1124.291860	-3.009100	3.613100	-10.870000	25.582859	0.000410	20.694521
1125.287734	-3.015400	3.612900	-10.892000	25.553335	0.000408	20.708494
1126.302486	-3.037300	3.610800	-10.966000	25.534082	0.000407	20.689631
1127.289294	-2.992200	3.611700	-10.807000	25.528011	0.000408	20.701553
1128.298133	-3.007300	3.611800	-10.861000	25.582908	0.000405	20.694096
1129.290639	-3.006700	3.611200	-10.857000	25.601321	0.000407	20.702157
1130.290316	-3.009100	3.612200	-10.869000	25.612823	0.000408	20.688103
1131.290173	-2.969700	3.612300	-10.726000	25.574385	0.000406	20.709719
1132.295558	-3.016900	3.611000	-10.894000	25.572815	0.000405	20.694865
1133.290668	-2.989200	3.611200	-10.793000	25.580222	0.000405	20.681440
1134.314183	-3.009100	3.609800	-10.861000	25.600034	0.000405	20.696596
1135.294498	-3.022700	3.610400	-10.913000	25.582411	0.000403	20.697390
1136.292935	-2.998400	3.608800	-10.819000	25.602860	0.000405	20.696115
1137.292840	-3.002800	3.609000	-10.836000	25.546953	0.000404	20.693073
1138.299135	-2.994900	3.610200	-10.811000	25.523835	0.000402	20.676969
1139.299747	-3.017400	3.607400	-10.885000	25.512461	0.000401	20.688307
1140.293510	-3.018500	3.608500	-10.892000	25.526902	0.000402	20.680049
1141.293734	-3.004700	3.607600	-10.839000	25.516123	0.000403	20.681077
1142.298325	-3.011600	3.606500	-10.860000	25.492134	0.000401	20.689705
1143.294921	-2.989000	3.608100	-10.784000	25.532561	0.000399	20.687629
1144.294090	-3.026300	3.606800	-10.915000	25.516043	0.000401	20.693326
1145.307604	-3.000400	3.606700	-10.821000	25.491116	0.000401	20.697218
1146.294785	-3.015900	3.606400	-10.875000	25.494170	0.000401	20.705975
1147.305093	-3.035000	3.605700	-10.942000	25.493232	0.000400	20.695075
1148.311489	-2.987600	3.606200	-10.773000	25.574563	0.000400	20.702785
1149.295212	-3.017500	3.605100	-10.877000	25.540122	0.000400	20.697594
1150.295837	-2.977100	3.605300	-10.733000	25.551184	0.000398	20.690684
1151.300977	-2.971200	3.604200	-10.707000	25.537124	0.000399	20.692212
1152.293815	-2.970000	3.604700	-10.705000	25.520691	0.000396	20.714591
1153.298634	-3.009200	3.604600	-10.845000	25.481281	0.000397	20.712473
1154.294445	-3.004000	3.604200	-10.826000	25.491913	0.000398	20.695648
1155.296802	-2.983700	3.604500	-10.754000	25.505564	0.000397	20.694657
1156.297968	-3.025100	3.603200	-10.899000	25.500737	0.000398	20.703561
1157.313127	-3.023000	3.601900	-10.887000	25.517466	0.000396	20.706610
1158.299017	-2.996400	3.602300	-10.794000	25.504098	0.000396	20.700772
1159.299829	-3.003200	3.602600	-10.819000	25.515748	0.000395	20.691608
1160.299647	-2.993100	3.602700	-10.782000	25.517637	0.000397	20.693979
1161.309125	-2.983900	3.602700	-10.749000	25.547707	0.000393	20.690038
1162.298425	-2.986900	3.601400	-10.756000	25.540349	0.000393	20.700667
1163.296525	-3.000000	3.600600	-10.801000	25.517766	0.000394	20.688418
1164.311042	-3.007900	3.601700	-10.832000	25.510187	0.000390	20.704991
1165.306001	-2.984900	3.600800	-10.747000	25.490773	0.000394	20.689286
1166.303861	-2.965800	3.600200	-10.677000	25.518134	0.000394	20.693530
1167.300813	-3.012500	3.599000	-10.841000	25.528454	0.000395	20.725233
1168.298542	-2.978600	3.598900	-10.719000	25.573699	0.000393	20.706659
1169.304699	-3.013300	3.598300	-10.841000	25.587814	0.000392	20.703765
1170.312953	-2.989000	3.599900	-10.759000	25.601978	0.000392	20.700920
1171.301175	-2.998600	3.599500	-10.793000	25.601456	0.000391	20.701345
1172.307833	-2.989500	3.598700	-10.757000	25.656123	0.000392	20.680856
1173.303468	-3.000100	3.598200	-10.794000	25.678084	0.000389	20.684896
1174.302640	-2.992900	3.598400	-10.768000	25.722538	0.000390	20.711057
1175.303801	-2.998100	3.597500	-10.785000	25.703981	0.000389	20.695735
1176.301938	-2.996600	3.596900	-10.778000	25.695686	0.000388	20.704474
1177.307787	-2.987500	3.597500	-10.747000	25.674915	0.000388	20.720596
1178.304834	-3.016000	3.596300	-10.845000	25.722220	0.000390	20.698882
1179.315151	-3.009500	3.596600	-10.823000	25.744603	0.000388	20.696708
1180.308119	-3.005200	3.596300	-10.807000	25.690493	0.000388	20.697835
1181.305910	-2.999200	3.595400	-10.783000	25.655842	0.000389	20.693377
1182.306237	-2.998900	3.595600	-10.782000	25.703693	0.000387	20.695920
1183.309917	-2.983100	3.596400	-10.727000	25.650673	0.000386	20.708576
1184.319781	-2.991400	3.596600	-10.758000	25.614842	0.000385	20.693451
1185.319299	-3.007900	3.594700	-10.811000	25.632328	0.000386	20.684933
1186.311680	-3.004600	3.595100	-10.801000	25.651163	0.000387	20.695791
1187.306863	-3.006300	3.594400	-10.805000	25.634475	0.000386	20.675709
1188.319672	-2.997700	3.592800	-10.769000	25.669060	0.000385	20.693851
1189.312870	-2.987900	3.594200	-10.738000	25.677337	0.000385	20.719236
1190.306803	-2.998100	3.593400	-10.773000	25.694951	0.000386	20.722703
1191.314521	-2.970800	3.592100	-10.670000	25.705490	0.000383	20.707209
1192.307230	-2.985600	3.593300	-10.727000	25.665738	0.000385	20.706637
1193.306872	-3.003200	3.592200	-10.786000	25.657363	0.000384	20.688740
1194.309574	-2.992800	3.591100	-10.746000	25.659202	0.000382	20.704339
1195.308632	-3.001900	3.591900	-10.782000	25.692947	0.000383	20.710258
1196.312578	-3.000300	3.591000	-10.771000	25.682065	0.000383	20.696482
1197.316430	-2.981300	3.591500	-10.707000	25.701990	0.000384	20.707012
1198.309845	-2.967000	3.590800	-10.653000	25.689985	0.000381	20.721983
1199.317108	-3.007600	3.590800	-10.798000	25.673249	0.000381	20.704697
1200.319834	-3.007200	3.587800	-10.787000	25.714025	0.000380	20.707247
1201.310658	-2.990600	3.590800	-10.738000	25.706539	0.000381	20.703521
1202.313557	-3.009800	3.589100	-10.801000	25.704847	0.000379	20.720788
1203.314717	-3.002600	3.590200	-10.778000	25.682868	0.000378	20.725266
1204.318036	-3.020100	3.588000	-10.835000	25.705675	0.000383	20.728259
1205.315203	-2.987700	3.589100	-10.722000	25.751048	0.000381	20.719305
1206.318453	-3.011800	3.588900	-10.808000	25.704308	0.000378	20.717402
1207.322888	-3.006100	3.587000	-10.782000	25.625843	0.000378	20.705923
1208.321219	-2.994900	3.587500	-10.743000	25.630963	0.000380	20.714859
1209.315507	-2.992300	3.586400	-10.731000	25.588767	0.000376	20.716577
1210.318533	-3.003800	3.586600	-10.772000	25.577932	0.000377	20.720869
1211.327181	-3.012000	3.586900	-10.803000	25.568367	0.000377	20.725013
1212.317116	-3.002300	3.586600	-10.766000	25.601195	0.000375	20.713886
1213.317447	-3.008300	3.585500	-10.786000	25.577589	0.000376	20.712463
1214.317101	-3.010500	3.586100	-10.795000	25.589742	0.000376	20.714237
1215.319218	-3.011400	3.584900	-10.794000	25.628400	0.000376	20.723665
1216.318200	-3.000500	3.585300	-10.757000	25.626340	0.000377	20.703577
1217.321461	-2.993900	3.585000	-10.733000	25.633250	0.000374	20.731855
1218.324898	-2.998000	3.583900	-10.743000	25.685590	0.000377	20.718516
1219.320853	-2.985000	3.584900	-10.700000	25.681323	0.000375	20.725136
1220.321122	-2.991300	3.584700	-10.722000	25.637419	0.000374	20.711859
1221.328375	-2.979000	3.583400	-10.673000	25.692450	0.000372	20.743426
1222.321487	-2.982700	3.583600	-10.688000	25.734863	0.000374	20.734817
1223.323191	-3.020900	3.582900	-10.823000	25.746566	0.000371	20.721441
1224.322473	-2.987700	3.582000	-10.701000	25.733177	0.000373	20.714156
1225.324032	-3.004100	3.583200	-10.763000	25.714558	0.000370	20.719162
1226.326715	-3.015600	3.581400	-10.799000	25.642011	0.000370	20.712678
1227.324537	-3.016300	3.581900	-10.803000	25.613010	0.000371	20.713897
1228.324348	-3.019100	3.581800	-10.812000	25.624438	0.000373	20.729169
1229.334245	-2.975200	3.582400	-10.658000	25.655922	0.000373	20.731393
1230.328645	-3.013900	3.581400	-10.793000	25.673365	0.000372	20.728523
1231.325708	-3.004200	3.581000	-10.757000	25.662776	0.000370	20.706981
1232.339438	-3.006100	3.580200	-10.761000	25.660790	0.000368	20.731540
1233.333549	-2.987500	3.580900	-10.697000	25.636688	0.000371	20.726774
1234.326702	-3.016200	3.579100	-10.795000	25.641777	0.000370	20.742791
1235.325458	-2.996700	3.579600	-10.727000	25.607086	0.000370	20.735924
1236.328324	-3.008100	3.578200	-10.762000	25.631930	0.000368	20.726736
1237.330538	-2.986000	3.579300	-10.686000	25.652481	0.000370	20.732679
1238.325589	-3.000100	3.578400	-10.734000	25.678845	0.000368	20.728812
1239.329496	-3.010100	3.578600	-10.771000	25.700064	0.000369	20.714561
1240.335658	-3.017200	3.576300	-10.789000	25.688262	0.000368	20.728313
1241.326274	-3.010800	3.577200	-10.769000	25.675681	0.000366	20.746971
1242.343745	-3.009600	3.576600	-10.763000	25.645848	0.000367	20.735499
1243.328110	-2.992200	3.577800	-10.705000	25.607226	0.000367	20.731798
1244.334203	-3.012000	3.576100	-10.770000	25.619470	0.000365	20.742673
1245.330553	-3.005500	3.576700	-10.748000	25.640316	0.000364	20.760291
1246.327986	-2.977300	3.577000	-10.649000	25.662407	0.000366	20.739803
1247.330186	-3.011100	3.575200	-10.765000	25.649538	0.000366	20.739680
1248.335035	-3.017500	3.575400	-10.788000	25.678954	0.000364	20.732715
1249.338263	-3.014000	3.574400	-10.772000	25.672670	0.000364	20.736361
1250.336205	-3.018100	3.573400	-10.784000	25.605723	0.000365	20.750678
1251.329572	-2.983900	3.575300	-10.668000	25.643688	0.000362	20.746133
1252.331904	-3.004800	3.573700	-10.737000	25.651616	0.000362	20.758363
1253.332664	-2.984000	3.573700	-10.663000	25.645429	0.000364	20.736502
1254.331706	-3.023500	3.573400	-10.803000	25.690792	0.000362	20.736070
1255.331039	-3.008500	3.572900	-10.748000	25.703318	0.000361	20.750074
1256.338314	-3.006400	3.572200	-10.739000	25.750248	0.000362	20.742210
1257.331170	-2.998500	3.573500	-10.714000	25.774346	0.000361	20.742709
1258.332748	-3.023000	3.571100	-10.795000	25.773592	0.000360	20.752856
1259.339354	-3.005600	3.573500	-10.739000	25.731187	0.000363	20.756256
1260.340416	-2.989800	3.571900	-10.679000	25.715781	0.000360	20.753109
1261.330204	-3.002300	3.570600	-10.719000	25.676102	0.000361	20.751188
1262.332474	-3.015600	3.570100	-10.765000	25.649371	0.000360	20.752789
1263.331834	-3.013200	3.570200	-10.756000	25.688793	0.000357	20.750658
1264.331418	-2.988800	3.569600	-10.667000	25.715652	0.000359	20.734013
1265.331964	-2.982800	3.570300	-10.649000	25.746605	0.000358	20.754673
1266.333861	-3.012200	3.569500	-10.751000	25.727355	0.000358	20.749562
1267.335246	-3.002700	3.569600	-10.717000	25.719250	0.000357	20.778880
1268.334076	-3.013900	3.568000	-10.753000	25.707308	0.000358	20.748392
1269.337156	-2.999200	3.570300	-10.707000	25.725013	0.000356	20.767124
1270.335981	-2.984900	3.569500	-10.653000	25.708718	0.000356	20.746963
1271.334719	-3.011300	3.568200	-10.744000	25.710305	0.000354	20.767525
1272.334526	-3.005900	3.568600	-10.726000	25.648837	0.000356	20.752253
1273.338270	-2.980300	3.566800	-10.629000	25.659909	0.000355	20.751519
1274.334459	-3.010200	3.566400	-10.735000	25.671497	0.000356	20.743718
1275.332918	-3.011100	3.567300	-10.740000	25.667732	0.000354	20.773602
1276.336592	-2.988000	3.566300	-10.656000	25.699067	0.000356	20.770936
1277.334612	-2.986700	3.567400	-10.653000	25.747420	0.000354	20.755491
1278.343008	-2.975000	3.565500	-10.606000	25.777030	0.000356	20.765794
1279.352868	-2.980400	3.566800	-10.630000	25.853057	0.000356	20.768196
1280.335196	-2.993100	3.564800	-10.669000	25.835243	0.000352	20.764525
1281.337567	-3.021000	3.564000	-10.766000	25.832484	0.000355	20.766496
1282.342835	-3.002000	3.565500	-10.702000	25.763519	0.000353	20.756489
1283.338336	-3.011200	3.564600	-10.732000	25.744263	0.000351	20.774606
1284.350529	-2.994000	3.564900	-10.673000	25.698301	0.000352	20.769218
1285.346024	-2.971900	3.564100	-10.592000	25.732296	0.000351	20.760215
1286.339277	-2.999800	3.563200	-10.688000	25.779862	0.000349	20.778596
1287.347229	-2.987300	3.563000	-10.642000	25.790051	0.000350	20.760381
1288.344288	-3.007300	3.562000	-10.711000	25.804194	0.000349	20.776484
1289.344878	-2.998800	3.562600	-10.683000	25.793386	0.000350	20.764205
1290.345116	-3.022400	3.560600	-10.761000	25.785883	0.000348	20.797920
1291.347737	-3.011800	3.561500	-10.725000	25.829155	0.000351	20.782119
1292.348061	-3.008600	3.560600	-10.711000	25.822505	0.000350	20.763109
1293.345745	-3.000200	3.560200	-10.681000	25.821812	0.000348	20.782803
1294.344114	-2.991800	3.561500	-10.654000	25.796893	0.000347	20.769625
1295.349076	-2.991900	3.560500	-10.652000	25.765714	0.000346	20.759168
1296.343388	-2.999100	3.560700	-10.678000	25.711134	0.000346	20.769779
1297.344445	-2.989600	3.559300	-10.639000	25.659009	0.000346	20.757728
1298.348075	-2.966800	3.560500	-10.562000	25.696922	0.000346	20.792015
1299.344273	-2.980300	3.561100	-10.613000	25.690264	0.000346	20.782009
1300.348295	-3.010800	3.558600	-10.714000	25.738066	0.000345	20.768381
1301.351499	-3.000100	3.557700	-10.673000	25.744607	0.000346	20.770685
1302.345444	-2.984700	3.560200	-10.625000	25.700657	0.000345	20.792447
1303.347473	-2.977800	3.558700	-10.597000	25.728288	0.000346	20.759982
1304.350546	-2.988300	3.559000	-10.634000	25.696610	0.000345	20.774158
1305.347952	-2.995700	3.556900	-10.654000	25.690995	0.000348	20.781320
1306.344702	-2.989700	3.558000	-10.636000	25.711049	0.000343	20.758788
1307.346034	-2.982500	3.557800	-10.611000	25.724137	0.000345	20.787582
1308.350006	-3.000700	3.556300	-10.671000	25.760412	0.000344	20.782767
1309.346594	-3.002900	3.556300	-10.678000	25.806329	0.000343	20.797121
1310.349627	-2.963800	3.557900	-10.543000	25.786332	0.000344	20.772767
1311.352456	-3.007800	3.555900	-10.695000	25.725536	0.000343	20.777607
1312.352309	-2.994600	3.554900	-10.645000	25.707370	0.000339	20.765525
1313.350615	-2.999000	3.555000	-10.661000	25.676311	0.000341	20.789331
1314.350982	-3.028000	3.554100	-10.760000	25.641009	0.000340	20.775211
1315.349862	-2.984700	3.554600	-10.608000	25.727669	0.000341	20.798242
1316.352902	-3.002900	3.553400	-10.670000	25.758286	0.000339	20.788691
1317.350941	-2.988900	3.555200	-10.625000	25.762754	0.000341	20.787016
1318.351925	-2.956700	3.554500	-10.509000	25.816542	0.000339	20.797897
1319.352482	-3.015800	3.553400	-10.715000	25.780888	0.000339	20.792429
1320.351967	-2.996000	3.553300	-10.645000	25.800989	0.000340	20.801241
1321.352748	-2.997600	3.552100	-10.647000	25.814654	0.000339	20.805484
1322.352801	-2.983900	3.553100	-10.601000	25.856883	0.000337	20.788635
1323.353036	-2.985500	3.552000	-10.603000	25.900191	0.000337	20.812227
1324.352806	-2.987700	3.551700	-10.609000	25.803951	0.000337	20.803267
1325.353488	-2.989800	3.551000	-10.616000	25.750904	0.000337	20.793131
1326.353610	-2.993700	3.550900	-10.629000	25.713538	0.000336	20.799221
1327.352894	-3.004300	3.549400	-10.663000	25.727529	0.000337	20.784824
1328.352545	-2.989800	3.549900	-10.612000	25.712699	0.000335	20.800749
1329.352458	-3.000700	3.550400	-10.652000	25.773391	0.000334	20.797226
1330.354607	-3.019900	3.548700	-10.716000	25.817272	0.000336	20.799105
1331.353552	-3.023300	3.548900	-10.728000	25.780748	0.000333	20.806986
1332.355113	-3.014400	3.549100	-10.698000	25.753222	0.000334	20.797356
1333.355721	-2.997900	3.548700	-10.637000	25.736081	0.000335	20.806217
1334.356275	-3.004300	3.549200	-10.662000	25.725794	0.000335	20.794462
1335.356306	-2.989000	3.549200	-10.607000	25.777541	0.000334	20.790489
1336.360081	-2.992800	3.547300	-10.615000	25.753449	0.000333	20.832671
1337.355321	-2.985900	3.547800	-10.592000	25.748722	0.000333	20.815595
1338.357297	-2.974200	3.548000	-10.551000	25.806384	0.000335	20.804763
1339.362284	-3.012400	3.545200	-10.678000	25.822538	0.000333	20.802498
1340.360454	-2.999500	3.547200	-10.639000	25.849418	0.000333	20.811482
1341.362253	-3.018600	3.545700	-10.702000	25.873857	0.000333	20.811851
1342.360163	-3.001200	3.545900	-10.640000	25.868200	0.000332	20.810909
1343.359376	-2.996400	3.545300	-10.622000	25.827705	0.000333	20.810534
1344.360055	-2.984400	3.546000	-10.581000	25.778761	0.000332	20.816371
1345.360827	-3.005500	3.543800	-10.651000	25.775702	0.000331	20.829419
1346.361645	-3.002900	3.544300	-10.643000	25.808996	0.000332	20.816396
1347.360399	-2.988400	3.544700	-10.592000	25.830016	0.000331	20.831347
1348.360337	-2.984400	3.544400	-10.578000	25.857840	0.000331	20.825158
1349.359912	-3.000400	3.543600	-10.632000	25.873581	0.000330	20.830065
1350.360165	-2.988300	3.542900	-10.586000	25.881710	0.000330	20.814524
1351.360737	-3.006500	3.544100	-10.654000	25.899866	0.000328	20.824228
1352.361726	-2.994300	3.542700	-10.608000	25.926548	0.000329	20.817843
1353.363050	-3.003600	3.542500	-10.639000	25.908631	0.000330	20.814542
1354.362095	-2.990600	3.541400	-10.590000	25.883843	0.000331	20.829942
1355.363595	-3.014600	3.541800	-10.676000	25.866127	0.000326	20.829690
1356.361437	-3.012000	3.540100	-10.662000	25.830929	0.000328	20.815669
1357.363369	-3.009100	3.539500	-10.650000	25.858428	0.000326	20.802516
1358.361860	-3.004500	3.541100	-10.638000	25.810486	0.000328	20.822159
1359.362015	-3.012300	3.540300	-10.663000	25.857680	0.000326	20.828316
1360.363427	-3.013700	3.539200	-10.665000	25.876885	0.000324	20.832436
1361.363138	-3.015100	3.539500	-10.671000	25.912333	0.000326	20.822528
1362.363803	-3.003000	3.538500	-10.625000	25.913823	0.000325	20.833981
1363.364153	-2.996200	3.540000	-10.606000	25.912952	0.000325	20.811296
1364.363795	-3.014900	3.539600	-10.671000	25.960174	0.000324	20.818433
1365.364589	-2.997000	3.539600	-10.607000	25.912302	0.000323	20.842411
1366.368236	-2.993900	3.538600	-10.593000	25.937041	0.000325	20.834547
1367.364965	-2.996900	3.536600	-10.597000	25.900674	0.000322	20.847799
1368.369503	-3.004000	3.538400	-10.628000	25.876701	0.000323	20.832250
1369.364540	-3.001500	3.536800	-10.615000	25.871460	0.000323	20.851167
1370.366238	-3.026800	3.536200	-10.702000	25.805697	0.000322	20.818771
1371.369678	-3.010400	3.537300	-10.648000	25.749230	0.000322	20.811364
1372.367091	-2.998700	3.535400	-10.600000	25.793571	0.000321	20.846893
1373.369757	-3.011300	3.536600	-10.649000	25.840706	0.000322	20.838291
1374.370099	-3.003100	3.535800	-10.618000	25.842091	0.000321	20.818820
1375.367563	-3.019900	3.534900	-10.673000	25.877939	0.000320	20.830649
1376.368590	-3.023700	3.534000	-10.684000	25.840307	0.000322	20.840736
1377.370668	-2.996100	3.535400	-10.592000	25.834588	0.000318	20.843051
1378.373056	-2.996200	3.534400	-10.589000	25.835612	0.000318	20.851665
1379.371023	-2.997100	3.533900	-10.590000	25.814266	0.000321	20.848241
1380.368746	-2.983200	3.534900	-10.544000	25.820329	0.000321	20.854331
1381.368824	-2.962500	3.533700	-10.468000	25.812102	0.000317	20.836585
1382.367861	-2.990000	3.533000	-10.563000	25.778092	0.000319	20.846043
1383.367414	-2.975700	3.534500	-10.516000	25.787784	0.000319	20.867157
1384.371115	-2.994000	3.532000	-10.574000	25.821763	0.000320	20.861461
1385.368315	-3.030700	3.531400	-10.701000	25.777197	0.000319	20.848463
1386.367600	-2.988700	3.531600	-10.553000	25.762962	0.000318	20.853130
1387.369385	-2.996100	3.532200	-10.583000	25.787403	0.000318	20.857293
1388.368911	-3.016500	3.530300	-10.648000	25.752644	0.000320	20.855094
1389.370266	-3.013400	3.531500	-10.640000	25.785865	0.000319	20.856221
1390.369831	-3.023400	3.528600	-10.667000	25.842354	0.000315	20.863179
1391.371040	-3.010300	3.530600	-10.627000	25.812561	0.000314	20.850796
1392.370791	-3.006900	3.528900	-10.610000	25.842151	0.000317	20.858234
1393.373517	-2.979700	3.530800	-10.519000	25.817477	0.000315	20.867113
1394.373025	-3.016700	3.529000	-10.645000	25.837928	0.000314	20.863948
1395.372489	-3.001100	3.529300	-10.591000	25.863238	0.000315	20.855235
1396.373211	-2.984100	3.530000	-10.533000	25.901812	0.000315	20.850364
1397.376423	-3.033100	3.527100	-10.697000	25.904197	0.000314	20.845648
1398.372676	-3.009700	3.527400	-10.614000	25.858854	0.000314	20.851780
1399.374658	-2.994800	3.528400	-10.566000	25.873014	0.000312	20.876909
1400.376882	-3.009300	3.526500	-10.611000	25.863096	0.000313	20.873583
1401.374905	-2.995400	3.526800	-10.564000	25.856519	0.000310	20.850856
1402.375169	-3.004900	3.527000	-10.597000	25.800839	0.000313	20.853719
1403.374437	-3.014900	3.526700	-10.632000	25.796542	0.000309	20.867420
1404.374593	-3.005700	3.527100	-10.599000	25.829056	0.000312	20.854088
1405.375759	-3.006600	3.525600	-10.600000	25.847887	0.000311	20.848824
1406.375675	-3.003500	3.525200	-10.588000	25.837104	0.000311	20.855061
1407.375344	-3.013700	3.524900	-10.622000	25.838423	0.000309	20.862075
1408.379369	-3.000700	3.524800	-10.576000	25.865792	0.000308	20.872973
1409.377456	-3.014400	3.522800	-10.618000	25.890588	0.000310	20.859950
1410.376945	-3.007700	3.523100	-10.596000	25.874417	0.000310	20.854612
1411.382993	-3.016100	3.523500	-10.626000	25.883201	0.000308	20.860590
1412.378328	-3.010700	3.521600	-10.602000	25.934426	0.000308	20.861317
1413.378901	-3.020700	3.522900	-10.640000	25.973911	0.000307	20.853096
1414.377453	-3.014800	3.522900	-10.620000	25.954316	0.000309	20.850953
1415.379068	-2.993500	3.523600	-10.547000	25.967157	0.000308	20.853422
1416.379608	-3.011600	3.520900	-10.603000	25.908356	0.000307	20.843662
1417.378929	-3.021000	3.520200	-10.634000	25.897102	0.000307	20.846581
1418.378507	-3.002100	3.522500	-10.574000	25.858644	0.000307	20.843034
1419.380161	-3.026300	3.518600	-10.648000	25.884205	0.000307	20.871081
1420.381515	-3.004600	3.521000	-10.579000	25.899351	0.000306	20.850263
1421.378613	-2.975900	3.521100	-10.477000	25.906504	0.000306	20.863612
1422.380765	-2.992000	3.519700	-10.530000	25.882587	0.000305	20.832473
1423.382680	-2.998700	3.519000	-10.552000	25.877290	0.000303	20.836162
1424.377792	-2.983100	3.520800	-10.502000	25.833810	0.000305	20.855545
1425.379972	-3.010800	3.518800	-10.592000	25.871798	0.000303	20.828273
1426.378771	-3.008800	3.519500	-10.589000	25.838880	0.000303	20.858741
1427.379509	-3.017400	3.516400	-10.610000	25.872196	0.000303	20.836734
1428.383462	-3.020100	3.516200	-10.619000	25.865355	0.000302	20.861629
1429.378970	-3.019700	3.517700	-10.621000	25.841908	0.000303	20.840447
1430.379008	-3.003300	3.518900	-10.568000	25.847002	0.000304	20.844616
1431.379354	-3.003300	3.516600	-10.561000	25.835324	0.000300	20.833834
1432.384048	-3.015000	3.516900	-10.603000	25.898946	0.000303	20.817140
1433.379885	-3.013900	3.514600	-10.592000	25.942686	0.000303	20.835952
1434.382214	-3.002700	3.516000	-10.557000	25.942980	0.000304	20.863747
1435.384674	-3.030000	3.515500	-10.651000	25.914742	0.000301	20.856715
1436.382387	-3.006100	3.515500	-10.567000	25.843943	0.000301	20.828267
1437.384050	-3.022800	3.514400	-10.623000	25.866599	0.000301	20.832060
1438.384286	-3.016300	3.513900	-10.598000	25.869554	0.000301	20.848778
1439.382093	-3.003900	3.514900	-10.558000	25.890444	0.000300	20.833254
1440.384775	-3.006900	3.514000	-10.565000	25.911015	0.000300	20.827368
1441.386709	-3.004300	3.514300	-10.557000	25.955717	0.000300	20.820594
1442.381831	-2.992800	3.514100	-10.516000	25.939946	0.000300	20.826561
1443.384331	-3.011300	3.513000	-10.579000	25.924102	0.000299	20.815385
1444.388855	-3.023100	3.512300	-10.617000	25.935796	0.000299	20.831875
1445.382862	-3.009000	3.511800	-10.566000	25.940167	0.000298	20.830101
1446.386325	-3.013000	3.512200	-10.582000	25.867586	0.000301	20.815034
1447.386312	-3.004100	3.511700	-10.549000	25.847185	0.000298	20.810661
1448.389367	-3.000900	3.510200	-10.533000	25.835409	0.000298	20.829652
1449.385133	-2.990700	3.510300	-10.497000	25.846805	0.000297	20.821184
1450.392733	-3.000400	3.511200	-10.534000	25.880568	0.000297	20.816696
1451.386338	-3.019700	3.509200	-10.595000	25.906178	0.000296	20.838629
1452.384728	-3.006900	3.510000	-10.553000	25.936433	0.000296	20.823032
1453.384946	-3.005200	3.510700	-10.550000	25.927270	0.000296	20.815249
1454.385865	-2.994500	3.509000	-10.507000	25.918229	0.000294	20.801899
1455.385940	-2.994000	3.507900	-10.502000	25.903095	0.000293	20.818463
1456.387383	-3.027100	3.508500	-10.619000	25.878208	0.000294	20.829972
1457.387680	-3.031100	3.508500	-10.633000	25.916856	0.000293	20.811424
1458.385863	-3.004400	3.507700	-10.538000	25.876062	0.000294	20.802212
1459.388440	-2.998400	3.508600	-10.519000	25.885974	0.000295	20.816436
1460.388189	-3.004200	3.507300	-10.536000	25.924432	0.000294	20.807182
1461.387630	-3.026000	3.505800	-10.608000	25.967944	0.000293	20.798739
1462.388316	-2.991800	3.506900	-10.491000	26.007391	0.000293	20.804232
1463.388258	-3.015300	3.506200	-10.572000	26.005074	0.000294	20.809964
1464.386859	-2.984700	3.507100	-10.467000	26.024479	0.000294	20.811917
1465.387941	-2.977200	3.507200	-10.441000	25.986619	0.000295	20.808018
1466.387371	-3.009700	3.505800	-10.551000	25.958400	0.000292	20.818074
1467.386926	-2.997600	3.506300	-10.509000	25.954331	0.000291	20.791700
1468.389410	-2.973100	3.505500	-10.421000	25.967790	0.000291	20.800955
1469.391498	-2.976500	3.506000	-10.435000	25.930726	0.000291	20.832470
1470.390577	-2.974400	3.506200	-10.427000	25.893163	0.000290	20.808012
1471.390875	-3.001400	3.503700	-10.515000	25.894800	0.000292	20.813449
1472.392302	-2.947700	3.505100	-10.331000	25.911620	0.000290	20.799052
1473.392511	-2.983900	3.503500	-10.454000	25.948071	0.000290	20.809119
1474.401606	-3.005400	3.502300	-10.525000	25.949525	0.000289	20.812476
1475.391541	-2.982200	3.503900	-10.449000	25.944700	0.000289	20.817587
1476.393909	-2.972500	3.502700	-10.411000	25.997755	0.000290	20.820628
1477.392845	-2.995000	3.501300	-10.486000	25.944424	0.000290	20.800240
1478.396857	-3.007200	3.500300	-10.526000	25.936199	0.000288	20.802882
1479.393171	-2.989400	3.501800	-10.466000	25.927924	0.000289	20.804526
1480.394442	-2.979700	3.501200	-10.432000	25.905324	0.000287	20.809797
1481.397853	-2.984800	3.501900	-10.451000	25.927427	0.000287	20.803079
1482.395618	-3.006200	3.498500	-10.515000	25.911128	0.000286	20.809938
1483.395866	-3.002200	3.499700	-10.505000	25.903056	0.000288	20.813682
1484.398270	-3.005500	3.499700	-10.518000	25.883435	0.000288	20.809144
1485.396616	-2.999100	3.498500	-10.491000	25.914849	0.000285	20.796132
1486.395828	-3.005200	3.498100	-10.512000	25.886536	0.000285	20.830751
1487.400135	-2.995300	3.498300	-10.477000	25.950443	0.000287	20.811502
1488.396628	-2.993300	3.497900	-10.469000	25.977467	0.000287	20.787917
1489.399494	-3.017800	3.497900	-10.554000	25.986336	0.000283	20.798250
1490.400459	-2.981700	3.497400	-10.427000	25.992845	0.000286	20.788194
1491.396973	-2.995100	3.498600	-10.478000	25.968077	0.000286	20.806458
1492.400986	-3.000100	3.496800	-10.490000	25.971527	0.000283	20.807554
1493.399508	-3.019200	3.496200	-10.555000	25.990779	0.000285	20.802240
1494.398068	-3.029200	3.495500	-10.587000	25.989853	0.000282	20.798465
1495.401967	-3.008700	3.495000	-10.514000	25.945625	0.000281	20.804291
1496.399364	-3.005400	3.494600	-10.502000	25.925152	0.000283	20.792258
1497.398875	-3.015700	3.495500	-10.540000	25.964423	0.000284	20.816064
1498.400255	-3.010800	3.494300	-10.519000	25.973936	0.000283	20.795750
1499.400657	-3.000300	3.494300	-10.483000	25.973912	0.000280	20.797148
1500.401045	-2.995500	3.493700	-10.465000	25.998845	0.000281	20.805128
1501.401032	-2.980700	3.492500	-10.410000	25.946905	0.000282	20.793724
1502.401293	-2.981800	3.494400	-10.419000	25.923454	0.000280	20.800035
1503.406004	-2.988100	3.493000	-10.437000	25.926390	0.000280	20.793976
1504.402351	-3.029600	3.492100	-10.578000	25.920101	0.000280	20.803779
1505.403708	-3.000200	3.492100	-10.476000	25.941137	0.000282	20.803576
1506.406446	-2.986900	3.491800	-10.429000	25.979513	0.000280	20.773852
1507.402653	-3.006700	3.491500	-10.497000	25.964386	0.000279	20.815553
1508.403150	-2.996100	3.491300	-10.459000	25.952133	0.000280	20.806562
1509.408877	-3.001500	3.489100	-10.471000	25.917857	0.000278	20.799629
1510.403649	-3.003400	3.490400	-10.482000	25.876071	0.000279	20.790367
1511.404587	-3.008500	3.489900	-10.498000	25.870352	0.000278	20.794579
1512.404646	-3.008300	3.489400	-10.496000	25.812920	0.000277	20.799000
1513.405009	-2.998700	3.489400	-10.462000	25.830955	0.000275	20.779658
1514.404677	-2.996000	3.489500	-10.454000	25.859331	0.000277	20.788723
1515.403725	-2.992300	3.488200	-10.436000	25.919683	0.000277	20.794825
1516.405252	-2.992600	3.489800	-10.443000	25.909386	0.000275	20.785429
1517.404884	-3.001600	3.487600	-10.468000	25.950515	0.000277	20.780280
1518.405133	-3.001000	3.486900	-10.463000	25.949326	0.000276	20.791414
1519.412060	-2.991900	3.487500	-10.434000	25.954290	0.000276	20.790237
1520.404425	-3.001800	3.486200	-10.464000	25.972145	0.000276	20.770242
1521.408698	-3.014200	3.486000	-10.506000	25.979948	0.000273	20.789461
1522.409663	-3.024100	3.487500	-10.546000	25.965335	0.000275	20.790902
1523.408268	-3.028000	3.485800	-10.554000	25.932280	0.000272	20.778556
1524.407159	-2.994600	3.486300	-10.439000	25.946586	0.000274	20.789609
1525.407017	-3.016000	3.484800	-10.509000	25.921718	0.000273	20.800662
1526.407253	-3.003900	3.485200	-10.468000	25.955332	0.000272	20.807405
1527.406750	-3.006200	3.485800	-10.478000	25.972347	0.000272	20.791783
1528.408297	-2.994500	3.485400	-10.436000	25.963135	0.000274	20.781580
1529.409799	-2.981800	3.484800	-10.390000	25.993316	0.000272	20.777762
1530.408002	-2.997100	3.483900	-10.440000	25.962761	0.000271	20.800644
1531.408064	-2.991500	3.483200	-10.419000	25.996515	0.000270	20.769596
1532.410102	-2.994300	3.483800	-10.430000	26.045455	0.000270	20.779886
1533.408638	-2.992100	3.483100	-10.421000	26.001584	0.000270	20.788913
1534.407726	-2.995800	3.482300	-10.432000	26.006365	0.000270	20.775699
1535.411617	-3.025800	3.481400	-10.533000	25.987897	0.000269	20.772318
1536.408656	-2.981900	3.482200	-10.382000	25.983258	0.000271	20.768605
1537.412485	-2.995100	3.482000	-10.428000	26.003208	0.000267	20.782011
1538.415248	-3.012000	3.480800	-10.483000	25.992169	0.000269	20.785145
1539.408704	-2.999800	3.480000	-10.439000	25.974965	0.000270	20.759799
1540.410006	-2.996900	3.481300	-10.433000	25.991833	0.000269	20.758254
1541.410403	-2.994200	3.480500	-10.420000	25.980279	0.000268	20.776992
1542.409465	-2.996900	3.480800	-10.430000	26.033608	0.000269	20.786949
1543.410013	-3.005100	3.480400	-10.458000	26.047392	0.000269	20.761443
1544.409409	-2.999100	3.479700	-10.436000	26.020921	0.000268	20.775625
1545.410886	-2.984800	3.480300	-10.387000	25.995909	0.000268	20.769461
1546.409936	-2.997800	3.479400	-10.429000	26.036219	0.000268	20.770606
1547.409505	-2.998200	3.479300	-10.431000	26.068089	0.000267	20.767540
1548.411922	-3.014000	3.477100	-10.479000	26.067421	0.000266	20.771136
1549.411176	-2.997200	3.477000	-10.420000	26.047153	0.000267	20.764048
1550.412367	-2.992100	3.477300	-10.403000	26.035656	0.000265	20.771463
1551.414421	-2.998800	3.476600	-10.425000	26.022515	0.000265	20.784813
1552.412839	-3.012600	3.476700	-10.472000	26.003166	0.000263	20.760157
1553.414425	-2.998600	3.476000	-10.421000	25.997202	0.000265	20.772657
1554.414495	-3.019300	3.475500	-10.492000	26.023563	0.000262	20.744140
1555.413972	-2.994500	3.476200	-10.409000	25.963676	0.000261	20.756518
1556.413488	-3.001900	3.475200	-10.430000	25.949388	0.000262	20.760655
1557.421920	-2.976900	3.476300	-10.347000	25.969216	0.000262	20.773939
1558.415908	-2.995500	3.476200	-10.412000	25.976743	0.000263	20.779604
1559.416209	-3.002000	3.475400	-10.432000	25.925974	0.000262	20.748986
1560.418923	-2.977500	3.475100	-10.347000	25.960868	0.000262	20.749904
1561.418990	-2.985700	3.474800	-10.373000	25.988297	0.000261	20.753753
1562.417566	-3.002000	3.473200	-10.425000	25.993083	0.000263	20.745759
1563.417650	-3.020900	3.473000	-10.491000	25.970485	0.000261	20.758618
1564.420833	-3.000000	3.473200	-10.418000	25.988119	0.000259	20.771118
1565.418124	-3.007200	3.471800	-10.440000	25.993880	0.000259	20.774536
1566.418788	-2.997600	3.471700	-10.405000	25.974163	0.000260	20.755674
1567.418982	-2.992400	3.472400	-10.390000	26.008597	0.000260	20.763243
1568.420283	-2.998300	3.471400	-10.407000	26.017239	0.000258	20.739682
1569.423137	-2.992600	3.471300	-10.387000	26.041510	0.000257	20.771180
1570.421422	-2.978100	3.470700	-10.335000	26.033750	0.000257	20.755323
1571.422128	-3.002000	3.471000	-10.419000	26.027726	0.000258	20.762547
1572.419605	-2.996400	3.470800	-10.398000	26.033830	0.000258	20.749239
1573.423191	-2.973300	3.471300	-10.320000	26.031250	0.000256	20.740008
1574.420392	-3.010000	3.470000	-10.444000	26.018336	0.000254	20.746949
1575.421345	-3.000500	3.468800	-10.407000	26.047442	0.000255	20.741578
1576.421113	-2.995100	3.468400	-10.388000	25.975089	0.000255	20.739060
1577.422882	-2.995800	3.467900	-10.388000	25.971988	0.000253	20.728357
1578.421827	-3.015200	3.467400	-10.454000	25.995113	0.000253	20.780990
1579.421280	-3.000500	3.468500	-10.407000	26.037710	0.000254	20.756931
1580.432302	-2.994400	3.468900	-10.385000	26.056115	0.000252	20.750767
1581.423023	-3.000800	3.465900	-10.400000	26.017025	0.000256	20.753692
1582.422050	-2.971800	3.468200	-10.306000	26.012207	0.000253	20.752645
1583.421929	-3.013100	3.467200	-10.446000	26.036104	0.000255	20.744886
1584.422333	-2.975600	3.467900	-10.318000	26.081261	0.000254	20.746161
1585.423147	-2.993500	3.466700	-10.377000	26.072393	0.000252	20.760959
1586.423362	-2.984700	3.465800	-10.344000	26.072417	0.000253	20.743913
1587.423202	-2.995500	3.465600	-10.380000	26.081807	0.000252	20.726319
1588.424543	-2.995800	3.465000	-10.379000	26.074539	0.000254	20.740828
1589.428306	-2.983900	3.465400	-10.339000	26.089032	0.000250	20.747331
1590.425040	-3.010800	3.464800	-10.431000	26.033506	0.000248	20.739431
1591.425124	-2.990100	3.464000	-10.356000	26.005337	0.000250	20.738630
1592.425082	-2.989700	3.463900	-10.355000	26.022106	0.000251	20.753582
1593.428881	-3.003800	3.462400	-10.399000	25.973950	0.000248	20.727958
1594.425385	-2.972000	3.462600	-10.290000	25.986442	0.000251	20.724861
1595.424092	-2.984100	3.464000	-10.336000	25.999809	0.000250	20.719325
1596.426517	-2.986300	3.462100	-10.339000	26.008053	0.000248	20.732823
1597.429462	-3.027000	3.461600	-10.477000	26.017817	0.000249	20.743107
1598.427349	-2.967300	3.461800	-10.272000	26.042884	0.000248	20.752647
1599.428964	-2.984100	3.461600	-10.328000	26.002886	0.000247	20.757979
1600.429922	-3.014500	3.460300	-10.430000	25.959088	0.000246	20.742425
1601.428002	-2.998800	3.460100	-10.375000	25.979050	0.000247	20.729763
1602.431885	-2.978700	3.461300	-10.310000	25.956151	0.000246	20.727146
1603.429354	-2.973000	3.461500	-10.290000	25.930714	0.000246	20.723402
1604.429229	-2.990800	3.460500	-10.349000	25.895193	0.000247	20.727546
1605.432458	-2.983400	3.459000	-10.319000	25.887274	0.000245	20.725280
1606.429893	-2.995300	3.459000	-10.360000	25.915164	0.000246	20.728168
1607.429398	-3.004500	3.457600	-10.387000	25.918229	0.000247	20.711806
1608.431388	-3.005300	3.458800	-10.394000	25.885319	0.000245	20.741809
1609.433514	-2.987600	3.458100	-10.331000	25.886257	0.000244	20.708136
1610.429171	-2.995200	3.458500	-10.358000	25.906411	0.000245	20.720798
1611.430918	-3.001500	3.458100	-10.379000	25.923819	0.000244	20.739235
1612.431825	-3.006700	3.457700	-10.395000	25.977500	0.000243	20.731525
1613.429841	-2.993400	3.457100	-10.348000	25.952150	0.000245	20.728816
1614.429914	-3.005200	3.456400	-10.386000	25.931513	0.000245	20.733213
1615.433266	-2.979200	3.457700	-10.301000	25.907840	0.000245	20.704688
1616.432952	-3.018800	3.455200	-10.430000	25.946046	0.000242	20.708457
1617.432362	-3.007800	3.455100	-10.391000	26.011248	0.000240	20.725602
1618.433576	-3.008300	3.454700	-10.392000	26.024567	0.000242	20.717172
1619.434408	-3.001200	3.454800	-10.367000	26.022998	0.000242	20.720337
1620.432617	-2.991800	3.454500	-10.335000	25.991139	0.000242	20.726736
1621.432645	-2.969900	3.455200	-10.261000	25.949835	0.000240	20.747828
1622.434741	-2.995400	3.454200	-10.346000	25.954383	0.000240	20.714463
1623.432508	-2.990400	3.453500	-10.326000	25.965808	0.000240	20.684687
1624.432788	-3.002700	3.453700	-10.369000	25.936969	0.000241	20.731108
1625.434845	-3.002700	3.453300	-10.369000	25.960371	0.000240	20.697244
1626.433652	-2.995200	3.451600	-10.338000	25.987873	0.000239	20.705909
1627.434422	-2.989800	3.453100	-10.323000	26.006377	0.000238	20.726398
1628.436684	-2.985000	3.452300	-10.304000	25.951956	0.000238	20.706334
1629.433844	-2.977900	3.451500	-10.278000	25.964405	0.000238	20.721687
1630.433846	-3.004300	3.451300	-10.369000	25.921707	0.000236	20.714827
1631.435299	-2.986400	3.451300	-10.306000	25.940390	0.000238	20.723640
1632.435643	-2.992700	3.449900	-10.323000	25.989498	0.000238	20.707542
1633.435497	-2.992100	3.451700	-10.327000	25.998318	0.000239	20.701230
1634.437108	-2.995000	3.449100	-10.329000	26.008291	0.000236	20.708879
1635.435818	-2.968700	3.450300	-10.242000	26.078877	0.000233	20.693027
1636.434364	-3.003300	3.449200	-10.358000	26.071553	0.000236	20.714120
1637.441598	-3.005600	3.449300	-10.367000	26.067932	0.000237	20.704316
1638.438250	-3.010100	3.447800	-10.378000	26.031772	0.000236	20.716824
1639.436406	-2.986400	3.448900	-10.299000	26.063488	0.000234	20.708387
1640.435141	-2.999000	3.448400	-10.342000	26.051072	0.000234	20.697333
1641.436796	-2.997500	3.447700	-10.333000	26.033090	0.000235	20.691593
1642.441205	-2.987800	3.448700	-10.303000	26.038042	0.000234	20.707002
1643.437355	-3.002200	3.446400	-10.346000	26.088310	0.000235	20.696816
1644.438759	-2.987800	3.447800	-10.299000	26.115061	0.000232	20.706152
1645.438737	-2.999600	3.447400	-10.340000	26.073964	0.000232	20.704213
1646.440318	-2.993300	3.446700	-10.316000	26.062166	0.000232	20.726974
1647.439260	-2.990500	3.445400	-10.302000	26.038196	0.000231	20.701466
1648.444414	-3.004000	3.444700	-10.347000	26.059096	0.000232	20.707767
1649.440700	-2.994700	3.445700	-10.318000	26.069821	0.000233	20.694360
1650.441833	-2.973500	3.445600	-10.245000	26.087183	0.000231	20.727454
1651.444828	-3.015600	3.443500	-10.383000	26.082073	0.000231	20.709042
1652.443109	-2.997200	3.444600	-10.323000	26.052447	0.000231	20.714837
1653.443501	-3.016300	3.444000	-10.387000	26.070012	0.000230	20.695026
1654.444886	-3.030800	3.443100	-10.433000	26.064937	0.000230	20.699410
1655.442489	-3.014200	3.442900	-10.376000	26.076815	0.000231	20.717510
1656.442417	-2.982600	3.442800	-10.268000	26.071078	0.000230	20.690881
1657.441914	-3.008600	3.443500	-10.359000	26.073567	0.000229	20.707608
1658.446916	-2.986400	3.444000	-10.284000	26.098326	0.000229	20.729168
1659.443614	-3.007700	3.441500	-10.351000	26.106055	0.000229	20.700421
1660.444260	-3.014000	3.441400	-10.372000	26.097193	0.000229	20.685352
1661.448330	-2.997100	3.441200	-10.313000	26.044713	0.000228	20.705170
1662.444322	-2.999700	3.440500	-10.320000	26.020700	0.000227	20.691000
1663.447708	-2.995600	3.441500	-10.309000	26.048495	0.000227	20.707547
1664.446441	-2.990400	3.440000	-10.286000	26.082057	0.000228	20.704284
1665.445446	-2.989700	3.439100	-10.281000	26.092107	0.000228	20.714857
1666.446702	-2.985700	3.439300	-10.268000	26.140669	0.000227	20.695372
1667.446204	-2.994800	3.439500	-10.300000	26.130907	0.000226	20.702633
1668.447628	-2.978600	3.440300	-10.245000	26.111296	0.000225	20.699524
1669.449639	-3.003100	3.439200	-10.328000	26.014841	0.000226	20.699338
1670.447676	-2.972400	3.439300	-10.222000	26.036459	0.000227	20.702092
1671.446534	-3.014100	3.437400	-10.360000	26.003920	0.000224	20.715868
1672.446722	-3.003300	3.437400	-10.323000	26.016865	0.000224	20.700423
1673.449764	-3.017000	3.436200	-10.367000	26.023147	0.000221	20.704364
1674.446989	-3.010100	3.437700	-10.346000	26.100547	0.000224	20.711009
1675.447961	-3.001400	3.435500	-10.311000	26.101295	0.000223	20.705122
1676.448327	-2.994100	3.437500	-10.291000	26.089173	0.000223	20.695312
1677.447017	-3.021900	3.435700	-10.380000	26.067392	0.000225	20.686228
1678.447107	-3.002200	3.436600	-10.316000	26.054723	0.000223	20.697683
1679.448046	-3.005600	3.436400	-10.328000	26.049882	0.000224	20.699457
1680.449555	-3.001800	3.434100	-10.307000	26.108196	0.000222	20.703995
1681.455822	-2.995500	3.435000	-10.289000	26.130276	0.000220	20.700103
1682.448775	-3.000400	3.435300	-10.307000	26.164209	0.000224	20.694844
1683.450078	-3.011000	3.434300	-10.339000	26.198826	0.000220	20.731055
1684.451084	-3.025300	3.432600	-10.383000	26.173377	0.000220	20.689357
1685.454633	-3.002600	3.433800	-10.310000	26.154073	0.000222	20.700306
1686.449946	-2.995700	3.432400	-10.282000	26.116721	0.000222	20.709242
1687.450056	-3.009500	3.432800	-10.330000	26.105297	0.000219	20.699186
1688.450418	-3.015100	3.431700	-10.346000	26.139451	0.000219	20.717858
1689.454329	-2.995200	3.432500	-10.280000	26.169148	0.000218	20.723991
1690.452960	-3.008200	3.432000	-10.323000	26.163370	0.000220	20.702536
1691.451457	-2.987500	3.432400	-10.254000	26.176631	0.000218	20.709224
1692.456116	-2.984600	3.432000	-10.243000	26.200493	0.000218	20.712340
1693.453613	-3.016400	3.429900	-10.345000	26.197791	0.000218	20.701563
1694.455240	-3.006200	3.429800	-10.310000	26.158155	0.000217	20.701089
1695.455574	-2.992700	3.429800	-10.263000	26.188980	0.000221	20.720685
1696.453855	-3.014600	3.430000	-10.339000	26.155250	0.000217	20.705757
1697.453894	-3.012500	3.428700	-10.328000	26.138263	0.000217	20.709077
1698.455294	-3.007700	3.430200	-10.316000	26.183041	0.000217	20.710450
1699.453199	-3.004000	3.429400	-10.301000	26.187515	0.000218	20.716843
1700.453469	-3.009400	3.428000	-10.315000	26.195666	0.000214	20.720292
1701.454269	-3.005800	3.427900	-10.303000	26.218584	0.000219	20.708708
1702.453449	-3.019700	3.427300	-10.348000	26.179095	0.000214	20.708855
1703.453508	-3.011600	3.428100	-10.324000	26.190647	0.000217	20.720464
1704.454606	-3.013800	3.426800	-10.327000	26.115447	0.000216	20.717446
1705.454737	-3.000000	3.428200	-10.284000	26.086386	0.000213	20.709108
1706.453731	-3.006100	3.427000	-10.301000	26.101437	0.000215	20.708110
1707.454859	-3.000700	3.426700	-10.281000	26.092741	0.000214	20.722132
1708.455401	-2.994000	3.427500	-10.261000	26.128440	0.000215	20.718173
1709.453789	-2.994800	3.425900	-10.258000	26.136658	0.000215	20.734967
1710.453725	-3.010300	3.424700	-10.309000	26.117954	0.000211	20.716646
1711.458479	-3.034700	3.424600	-10.391000	26.083628	0.000214	20.726252
1712.454500	-3.004700	3.425900	-10.292000	26.056913	0.000214	20.714583
1713.455971	-3.016600	3.422900	-10.325000	26.029584	0.000212	20.713678
1714.455142	-3.005400	3.424400	-10.289000	26.088930	0.000211	20.722096
1715.457045	-3.013600	3.424200	-10.319000	26.126650	0.000212	20.713056
1716.455616	-3.005100	3.423700	-10.287000	26.172625	0.000211	20.729381
1717.456649	-3.003300	3.422300	-10.278000	26.222721	0.000212	20.717607
1718.457098	-3.008300	3.423300	-10.297000	26.208982	0.000211	20.714232
1719.457192	-3.013200	3.421800	-10.310000	26.155620	0.000211	20.731734
1720.455986	-2.986100	3.422600	-10.219000	26.151691	0.000210	20.728261
1721.457334	-3.010800	3.421800	-10.302000	26.104135	0.000208	20.722202
1722.455830	-2.997300	3.422200	-10.257000	26.057465	0.000210	20.731734
1723.456354	-2.996300	3.420600	-10.249000	26.038914	0.000208	20.737277
1724.462063	-3.000800	3.421900	-10.268000	26.019271	0.000208	20.721808
1725.457540	-3.012200	3.420900	-10.304000	26.041850	0.000208	20.725053
1726.457694	-2.996600	3.421000	-10.250000	26.029402	0.000207	20.726771
1727.466074	-2.999300	3.419400	-10.255000	26.035396	0.000208	20.713353
1728.457675	-3.012300	3.420600	-10.302000	26.030401	0.000207	20.724930
1729.457969	-3.047400	3.417800	-10.414000	26.059930	0.000208	20.726624
1730.458893	-3.004800	3.420400	-10.277000	26.015869	0.000206	20.722184
1731.459837	-3.017000	3.418200	-10.312000	26.063135	0.000208	20.720835
1732.459813	-3.000500	3.419100	-10.259000	26.114474	0.000207	20.719314
1733.461877	-3.018600	3.417400	-10.314000	26.108315	0.000208	20.721186
1734.460783	-3.015900	3.418100	-10.308000	26.037211	0.000206	20.730824
1735.459893	-3.014100	3.417600	-10.301000	26.041997	0.000206	20.728994
1736.463687	-3.012900	3.418700	-10.298000	26.088876	0.000207	20.738165
1737.460568	-3.013600	3.416200	-10.294000	26.141819	0.000208	20.746792
1738.459113	-3.021600	3.416600	-10.322000	26.136157	0.000205	20.731144
1739.460298	-3.008400	3.415700	-10.275000	26.098731	0.000205	20.754705
1740.461014	-2.997300	3.417100	-10.241000	26.113384	0.000205	20.725805
1741.460370	-2.996800	3.416600	-10.238000	26.129372	0.000204	20.714843
1742.462546	-3.008800	3.415800	-10.276000	26.160995	0.000205	20.740455
1743.464556	-2.997900	3.415200	-10.237000	26.164819	0.000204	20.736711
1744.464260	-2.985700	3.415200	-10.195000	26.175451	0.000202	20.737912
1745.464535	-3.007400	3.413500	-10.265000	26.189583	0.000203	20.729826
1746.462501	-2.980800	3.414100	-10.176000	26.204553	0.000205	20.733016
1747.462882	-2.988700	3.414000	-10.203000	26.269551	0.000203	20.744280
1748.462728	-2.980400	3.412700	-10.171000	26.259133	0.000200	20.752303
1749.464709	-2.993400	3.413900	-10.218000	26.251265	0.000201	20.735387
1750.467824	-3.006800	3.412300	-10.259000	26.236093	0.000199	20.741003
1751.464327	-3.004600	3.412000	-10.251000	26.223672	0.000200	20.724727
1752.463125	-2.991300	3.412700	-10.208000	26.238648	0.000200	20.721759
1753.464382	-2.976200	3.412200	-10.154000	26.196507	0.000201	20.759545
1754.468207	-3.016800	3.411500	-10.290000	26.174899	0.000199	20.737832
1755.464500	-2.986800	3.411700	-10.189000	26.129299	0.000198	20.738952
1756.465983	-2.975200	3.410900	-10.146000	26.175396	0.000199	20.762987
1757.467384	-3.002800	3.410500	-10.240000	26.199411	0.000198	20.748713
1758.469834	-2.975500	3.412200	-10.152000	26.174599	0.000197	20.748436
1759.467127	-2.986800	3.409500	-10.183000	26.156766	0.000199	20.739051
1760.469614	-3.020200	3.409200	-10.295000	26.190121	0.000198	20.741274
1761.465310	-2.968200	3.410700	-10.122000	26.207157	0.000198	20.750807
1762.468679	-2.988400	3.408900	-10.187000	26.200698	0.000196	20.775137
1763.467865	-2.990300	3.408900	-10.192000	26.195232	0.000197	20.757315
1764.467181	-2.983400	3.408000	-10.167000	26.184728	0.000197	20.755296
1765.469418	-2.973300	3.408500	-10.134000	26.181554	0.000196	20.739303
1766.469294	-2.991600	3.408300	-10.195000	26.202781	0.000195	20.762531
1767.467514	-2.994300	3.408100	-10.203000	26.197787	0.000196	20.762254
1768.471481	-2.989400	3.406300	-10.182000	26.201984	0.000196	20.747979
1769.471542	-3.006200	3.405900	-10.238000	26.240522	0.000195	20.743083
1770.468296	-3.016800	3.406600	-10.276000	26.235583	0.000194	20.741914
1771.470248	-2.993800	3.407200	-10.199000	26.255100	0.000194	20.758208
1772.470729	-3.009000	3.406200	-10.248000	26.190856	0.000197	20.762876
1773.471041	-2.996800	3.405000	-10.203000	26.156924	0.000194	20.772876
1774.471535	-3.005100	3.404300	-10.229000	26.135965	0.000193	20.756083
1775.470809	-3.008400	3.405900	-10.245000	26.111421	0.000193	20.764137
1776.472481	-3.040900	3.402900	-10.346000	26.121557	0.000193	20.753459
1777.471014	-2.997600	3.405500	-10.207000	26.175750	0.000194	20.765240
1778.473073	-3.007100	3.404900	-10.237000	26.192534	0.000193	20.766933
1779.472338	-3.011200	3.403900	-10.249000	26.196333	0.000192	20.764587
1780.472170	-2.994000	3.404200	-10.190000	26.210727	0.000192	20.758188
1781.472094	-2.994000	3.404200	-10.191000	26.229950	0.000191	20.769445
1782.472804	-2.974300	3.403500	-10.122000	26.277378	0.000191	20.768268
1783.472481	-3.034600	3.402400	-10.324000	26.261581	0.000191	20.755238
1784.471777	-3.036100	3.401700	-10.327000	26.284634	0.000192	20.764180
1785.478212	-2.981900	3.403300	-10.148000	26.282261	0.000191	20.782185
1786.472242	-3.001200	3.401700	-10.208000	26.263493	0.000188	20.767116
1787.477908	-2.981600	3.401400	-10.140000	26.267764	0.000188	20.749597
1788.474484	-3.012700	3.401600	-10.247000	26.264828	0.000187	20.769407
1789.473463	-3.015400	3.399600	-10.250000	26.303548	0.000190	20.767541
1790.475658	-2.976500	3.400500	-10.120000	26.274142	0.000187	20.763594
1791.475455	-2.996600	3.399800	-10.188000	26.216946	0.000189	20.781981
1792.474727	-3.009800	3.399200	-10.230000	26.252910	0.000190	20.772129
1793.478776	-2.997000	3.400400	-10.190000	26.240887	0.000187	20.778065
1794.475540	-2.991300	3.399100	-10.167000	26.237057	0.000186	20.763784
1795.475358	-3.029500	3.398600	-10.294000	26.264926	0.000185	20.769505
1796.474225	-2.996600	3.399000	-10.185000	26.268002	0.000187	20.769277
1797.476804	-3.008700	3.398400	-10.224000	26.224814	0.000187	20.781827
1798.476470	-3.003100	3.398200	-10.204000	26.190939	0.000185	20.776235
1799.477113	-3.030000	3.395200	-10.286000	26.172892	0.000185	20.778016
1800.478391	-3.002900	3.397700	-10.202000	26.216492	0.000186	20.783896
1801.477287	-2.994800	3.397500	-10.173000	26.234355	0.000187	20.766285
1802.475816	-2.997500	3.396100	-10.178000	26.253020	0.000185	20.782196
1803.476819	-3.006400	3.394700	-10.205000	26.197275	0.000185	20.784974
1804.476766	-3.017400	3.394800	-10.243000	26.252125	0.000187	20.786987
1805.476969	-2.996600	3.395300	-10.173000	26.259405	0.000183	20.776759
1806.476578	-2.985400	3.395200	-10.135000	26.282322	0.000184	20.788409
1807.476372	-3.017000	3.393900	-10.238000	26.288651	0.000183	20.781020
1808.477717	-3.013300	3.394800	-10.229000	26.329300	0.000183	20.787257
1809.478332	-3.007000	3.394800	-10.208000	26.296721	0.000182	20.784862
1810.481810	-3.008100	3.394200	-10.210000	26.286610	0.000182	20.803151
1811.476577	-3.017300	3.393200	-10.238000	26.258748	0.000182	20.796488
1812.477029	-2.997200	3.393500	-10.170000	26.208115	0.000182	20.771210
1813.487869	-2.975600	3.392800	-10.094000	26.180269	0.000181	20.788747
1814.476545	-3.029300	3.392000	-10.274000	26.220107	0.000182	20.790373
1815.478403	-3.023600	3.391600	-10.254000	26.251486	0.000181	20.793457
1816.478063	-3.002200	3.392300	-10.183000	26.264851	0.000180	20.788870
1817.484008	-3.013400	3.390800	-10.217000	26.287915	0.000178	20.802091
1818.478520	-2.983600	3.391100	-10.117000	26.345230	0.000179	20.792362
1819.478022	-3.018900	3.390000	-10.232000	26.342539	0.000181	20.801511
1820.478578	-3.015400	3.391700	-10.227000	26.289581	0.000181	20.797602
1821.479662	-2.984500	3.390900	-10.119000	26.254311	0.000179	20.793451
1822.478863	-3.020500	3.389500	-10.237000	26.236675	0.000179	20.798962
1823.482384	-2.994300	3.389800	-10.148000	26.247374	0.000179	20.804972
1824.478261	-2.991000	3.389200	-10.136000	26.274243	0.000178	20.805421
1825.481038	-3.017100	3.389700	-10.226000	26.288618	0.000179	20.810384
1826.482497	-3.013500	3.387600	-10.207000	26.303765	0.000178	20.790045
1827.482554	-3.007600	3.389900	-10.195000	26.294850	0.000177	20.801474
1828.480964	-2.991600	3.388100	-10.135000	26.269745	0.000176	20.824608
1829.483239	-2.983000	3.388600	-10.107000	26.262312	0.000177	20.796276
1830.482485	-2.995100	3.387700	-10.146000	26.262539	0.000178	20.802668
1831.481792	-3.016500	3.387400	-10.217000	26.289059	0.000176	20.798025
1832.484153	-2.998400	3.388400	-10.159000	26.329064	0.000177	20.801246
1833.482374	-3.007500	3.387400	-10.187000	26.301448	0.000174	20.809053
1834.482541	-2.991800	3.388000	-10.136000	26.263109	0.000176	20.818413
1835.482711	-3.005300	3.386800	-10.177000	26.223824	0.000173	20.805962
1836.484247	-3.009200	3.385600	-10.187000	26.284065	0.000175	20.800593
1837.483354	-3.008300	3.384700	-10.181000	26.291118	0.000174	20.811948
1838.482828	-2.991700	3.386100	-10.130000	26.327447	0.000173	20.814318
1839.484205	-3.001400	3.384500	-10.157000	26.384826	0.000172	20.815562
1840.483784	-2.995000	3.384500	-10.135000	26.428211	0.000173	20.818389
1841.482925	-2.994700	3.384700	-10.135000	26.386762	0.000174	20.814189
1842.484782	-2.992400	3.383400	-10.124000	26.392877	0.000172	20.802791
1843.484372	-3.001600	3.384100	-10.157000	26.418255	0.000172	20.809331
1844.484502	-2.986200	3.383100	-10.102000	26.422972	0.000172	20.816443
1845.486959	-2.987300	3.383300	-10.106000	26.376439	0.000170	20.813770
1846.484644	-2.993100	3.382200	-10.123000	26.331350	0.000169	20.829146
1847.483968	-2.989200	3.382000	-10.109000	26.272220	0.000171	20.824725
1848.486568	-2.996000	3.382100	-10.131000	26.235351	0.000170	20.823709
1849.483357	-2.979700	3.381400	-10.074000	26.201972	0.000169	20.816246
1850.485786	-2.975400	3.382200	-10.063000	26.197303	0.000169	20.805864
1851.487568	-2.976900	3.381200	-10.064000	26.273391	0.000169	20.817367
1852.484859	-2.998600	3.381700	-10.139000	26.352011	0.000168	20.817194
1853.487855	-2.980900	3.380500	-10.076000	26.320928	0.000168	20.838587
1854.486134	-2.989200	3.379500	-10.102000	26.286584	0.000168	20.829202
1855.484709	-3.006600	3.378200	-10.156000	26.284746	0.000169	20.815501
1856.488047	-3.021000	3.379600	-10.209000	26.307620	0.000167	20.821893
1857.489277	-2.994000	3.379400	-10.118000	26.329616	0.000170	20.835464
1858.487042	-2.971800	3.379300	-10.042000	26.315518	0.000167	20.821770
1859.487712	-2.992900	3.378500	-10.110000	26.318796	0.000168	20.821271
1860.491756	-2.996100	3.377900	-10.120000	26.337545	0.000168	20.811665
1861.493330	-2.998300	3.377400	-10.126000	26.368505	0.000165	20.838039
1862.490316	-3.009700	3.376600	-10.161000	26.393957	0.000167	20.828531
1863.492891	-2.998200	3.376600	-10.122000	26.415259	0.000166	20.832398
1864.491010	-3.005800	3.376200	-10.147000	26.453153	0.000167	20.841087
1865.490658	-3.005700	3.376300	-10.147000	26.419169	0.000166	20.832060
1866.492369	-2.998600	3.376400	-10.123000	26.409482	0.000165	20.822799
1867.491448	-2.974500	3.376400	-10.042000	26.384129	0.000165	20.826241
1868.491585	-3.006500	3.374900	-10.146000	26.389515	0.000166	20.847300
1869.490335	-2.980100	3.376800	-10.062000	26.407393	0.000166	20.842509
1870.492675	-2.989400	3.374300	-10.086000	26.379932	0.000163	20.842411
1871.490849	-3.014900	3.374100	-10.172000	26.345345	0.000162	20.847953
1872.490876	-2.989100	3.374100	-10.085000	26.352741	0.000162	20.843531
1873.490813	-3.008400	3.373500	-10.148000	26.391727	0.000162	20.863747
1874.490826	-3.014700	3.372700	-10.167000	26.468549	0.000164	20.836647
1875.490757	-3.014600	3.374000	-10.170000	26.452160	0.000162	20.843408
1876.491010	-3.006300	3.374700	-10.145000	26.425791	0.000162	20.851044
1877.491180	-3.005600	3.373000	-10.138000	26.411045	0.000160	20.867041
1878.492228	-3.005500	3.372600	-10.136000	26.355589	0.000159	20.831222
1879.491922	-3.026200	3.371400	-10.202000	26.314997	0.000162	20.847324
1880.491292	-2.999700	3.373100	-10.117000	26.348054	0.000160	20.855416
1881.491210	-2.992900	3.372600	-10.093000	26.368806	0.000161	20.840237
1882.492335	-3.001800	3.370500	-10.117000	26.382396	0.000160	20.842990
1883.491503	-2.992400	3.371200	-10.087000	26.361638	0.000158	20.838249
1884.491802	-2.992200	3.369800	-10.082000	26.400844	0.000160	20.852996
1885.498080	-2.992500	3.370500	-10.086000	26.417153	0.000160	20.851370
1886.492017	-3.012200	3.369900	-10.150000	26.414598	0.000159	20.849751
1887.493291	-2.983200	3.370000	-10.052000	26.438468	0.000158	20.864733
1888.491993	-2.951100	3.370300	-9.945400	26.432979	0.000158	20.853052
1889.493548	-2.987500	3.369300	-10.065000	26.434884	0.000158	20.846432
1890.491840	-3.000300	3.368500	-10.106000	26.443204	0.000160	20.874233
1891.493889	-3.004700	3.368200	-10.119000	26.466105	0.000156	20.877337
1892.495940	-2.985500	3.368500	-10.056000	26.525389	0.000155	20.871019
1893.493751	-2.992400	3.367600	-10.077000	26.545127	0.000156	20.851032
1894.495132	-2.996600	3.367200	-10.089000	26.485024	0.000155	20.856051
1895.498909	-2.992500	3.368300	-10.079000	26.436955	0.000157	20.864160
1896.495358	-2.977900	3.367100	-10.026000	26.469383	0.000156	20.845546
1897.496207	-3.016900	3.365100	-10.151000	26.476141	0.000154	20.871303
1898.497677	-3.004400	3.365600	-10.111000	26.464201	0.000154	20.861199
1899.495389	-2.987300	3.365100	-10.052000	26.495482	0.000155	20.875570
1900.495631	-2.988500	3.364600	-10.054000	26.501988	0.000155	20.869308
1901.499409	-3.016500	3.364600	-10.148000	26.491040	0.000154	20.851193
1902.499531	-2.986300	3.364500	-10.047000	26.551377	0.000152	20.868693
1903.495925	-2.987000	3.363300	-10.045000	26.508819	0.000152	20.861950
1904.498209	-3.006500	3.363500	-10.112000	26.481085	0.000154	20.856359
1905.495658	-2.987000	3.364200	-10.048000	26.430916	0.000151	20.870418
1906.495792	-3.003100	3.363300	-10.099000	26.433998	0.000152	20.862136
1907.496871	-2.977300	3.363500	-10.013000	26.407303	0.000153	20.855695
1908.497740	-2.990300	3.363100	-10.055000	26.455992	0.000151	20.883767
1909.499056	-3.008900	3.363300	-10.119000	26.439879	0.000152	20.863306
1910.499436	-3.006900	3.361100	-10.106000	26.426450	0.000152	20.858817
1911.502364	-3.018800	3.361800	-10.147000	26.442643	0.000153	20.864661
1912.499912	-3.016100	3.361700	-10.139000	26.443929	0.000151	20.860264
1913.500693	-3.009900	3.362500	-10.120000	26.488168	0.000152	20.858262
1914.502714	-3.010200	3.361700	-10.118000	26.487604	0.000152	20.856274
1915.500152	-2.997900	3.361700	-10.077000	26.486214	0.000152	20.862462
1916.505696	-2.997700	3.360700	-10.074000	26.449712	0.000151	20.848534
1917.502092	-3.022300	3.358900	-10.150000	26.506393	0.000151	20.852875
1918.500967	-3.010700	3.359800	-10.114000	26.547236	0.000151	20.855523
1919.502201	-3.024600	3.358300	-10.156000	26.594412	0.000150	20.863590
1920.502047	-3.003500	3.358800	-10.087000	26.589762	0.000149	20.857019
1921.503122	-3.000500	3.358500	-10.077000	26.568242	0.000147	20.866206
1922.501616	-3.014800	3.358000	-10.123000	26.571041	0.000147	20.860960
1923.502019	-3.025000	3.356800	-10.153000	26.600739	0.000148	20.866157
1924.502760	-3.001600	3.358000	-10.079000	26.606847	0.000147	20.852383
1925.501874	-3.005200	3.358400	-10.092000	26.556223	0.000148	20.856021
1926.505494	-3.008300	3.357800	-10.101000	26.555929	0.000147	20.839606
1927.502610	-3.002000	3.357200	-10.077000	26.569388	0.000146	20.847919
1928.502883	-3.020800	3.355300	-10.134000	26.588623	0.000146	20.837857
1929.504056	-3.005500	3.355900	-10.086000	26.627631	0.000145	20.844828
1930.504153	-2.996300	3.356500	-10.056000	26.624574	0.000145	20.831324
1931.508321	-2.978300	3.355900	-9.993800	26.632844	0.000145	20.843904
1932.504336	-3.004200	3.353900	-10.075000	26.622076	0.000145	20.858209
1933.504180	-3.013700	3.355000	-10.111000	26.608562	0.000144	20.843676
1934.507683	-3.005800	3.354400	-10.082000	26.576445	0.000143	20.846478
1935.505069	-3.000800	3.354300	-10.065000	26.583748	0.000145	20.837698
1936.509154	-3.011100	3.353800	-10.098000	26.585757	0.000145	20.830235
1937.509051	-3.017900	3.352800	-10.117000	26.564880	0.000143	20.840543
1938.504832	-3.004000	3.352600	-10.071000	26.536193	0.000144	20.826880
1939.504473	-2.986500	3.354100	-10.016000	26.526305	0.000142	20.846337
1940.506428	-3.005100	3.351900	-10.072000	26.508454	0.000143	20.845463
1941.506507	-2.986800	3.353400	-10.015000	26.505721	0.000145	20.823751
1942.505281	-2.987600	3.351300	-10.011000	26.452820	0.000141	20.832218
1943.506980	-2.995000	3.351300	-10.036000	26.437749	0.000142	20.832243
1944.506359	-2.978800	3.351200	-9.981400	26.411827	0.000141	20.818043
1945.506392	-2.980400	3.351100	-9.986700	26.392761	0.000140	20.839657
1946.507261	-2.990800	3.350700	-10.020000	26.446663	0.000140	20.840254
1947.508711	-3.007300	3.349700	-10.073000	26.458286	0.000140	20.830125
1948.518330	-2.994600	3.349500	-10.030000	26.507125	0.000139	20.849343
1949.519345	-2.994600	3.349600	-10.030000	26.519267	0.000138	20.836893
1950.508451	-2.988400	3.348500	-10.006000	26.506709	0.000138	20.817157
1951.507658	-3.010800	3.349800	-10.084000	26.521595	0.000138	20.824534
1952.509113	-3.004500	3.349000	-10.061000	26.539631	0.000139	20.831283
1953.510245	-3.005300	3.348600	-10.063000	26.532433	0.000137	20.825945
1954.509654	-2.983000	3.348400	-9.987300	26.536598	0.000138	20.819226
1955.512063	-2.991900	3.348500	-10.018000	26.548121	0.000137	20.819904
1956.510934	-2.984900	3.348000	-9.992300	26.541119	0.000136	20.830409
1957.510912	-2.978400	3.346800	-9.966800	26.588484	0.000135	20.823019
1958.511121	-2.997100	3.347300	-10.031000	26.644099	0.000134	20.820132
1959.512093	-2.986200	3.346700	-9.992600	26.644442	0.000134	20.809571
1960.512130	-2.983600	3.347400	-9.986000	26.608221	0.000133	20.821997
1961.513070	-3.000400	3.345300	-10.036000	26.559320	0.000133	20.806031
1962.513115	-3.010400	3.343800	-10.066000	26.531587	0.000133	20.823672
1963.512558	-3.007700	3.344500	-10.059000	26.556636	0.000134	20.816135
1964.511819	-2.999200	3.345500	-10.033000	26.550235	0.000135	20.821080
1965.515082	-3.020800	3.345100	-10.105000	26.509441	0.000133	20.811843
1966.513938	-3.017100	3.344400	-10.089000	26.541500	0.000133	20.812774
1967.516320	-3.002200	3.345200	-10.042000	26.546032	0.000131	20.821597
1968.513820	-2.999200	3.344300	-10.029000	26.548918	0.000133	20.811222
1969.516159	-3.004900	3.343300	-10.045000	26.612271	0.000131	20.801412
1970.515252	-3.005400	3.341300	-10.041000	26.621183	0.000131	20.807527
1971.520435	-2.992300	3.342700	-10.002000	26.617196	0.000132	20.826278
1972.517813	-2.985700	3.343000	-9.980900	26.667479	0.000132	20.824670
1973.515590	-2.984800	3.341800	-9.973100	26.637129	0.000131	20.823556
1974.515727	-2.979800	3.342900	-9.959800	26.619254	0.000129	20.799424
1975.519059	-2.973000	3.343900	-9.940100	26.626581	0.000130	20.812004
1976.518328	-2.982800	3.343200	-9.971300	26.609105	0.000131	20.810083
1977.516003	-2.990100	3.341500	-9.990600	26.658280	0.000129	20.811155
1978.515523	-3.024400	3.340800	-10.103000	26.678910	0.000128	20.804393
1979.521334	-3.002700	3.340500	-10.030000	26.731757	0.000128	20.784029
1980.517085	-2.998700	3.340400	-10.016000	26.708990	0.000130	20.799547
1981.516543	-3.003200	3.340700	-10.032000	26.732774	0.000128	20.793112
1982.519833	-2.976800	3.340800	-9.944200	26.741961	0.000127	20.813729
1983.518172	-2.964800	3.340200	-9.902200	26.736522	0.000126	20.803045
1984.517982	-3.020400	3.337400	-10.080000	26.673918	0.000127	20.806013
1985.520841	-2.990000	3.339400	-9.984000	26.658157	0.000126	20.804868
1986.519352	-2.995600	3.337500	-9.996900	26.612008	0.000125	20.800200
1987.518913	-2.976100	3.339000	-9.936100	26.663940	0.000126	20.798827
1988.521790	-3.013900	3.337800	-10.059000	26.694027	0.000126	20.798728
1989.520027	-2.983500	3.337800	-9.956800	26.678487	0.000125	20.803020
1990.520576	-2.987800	3.336400	-9.966600	26.651327	0.000125	20.800846
1991.527450	-2.988000	3.337200	-9.970500	26.685268	0.000126	20.809837
1992.521559	-2.998700	3.336900	-10.006000	26.697598	0.000124	20.810378
1993.521337	-3.003200	3.335900	-10.017000	26.699662	0.000123	20.798704
1994.523585	-2.996700	3.336600	-9.998100	26.651083	0.000124	20.785427
1995.523064	-2.979600	3.336200	-9.939600	26.623402	0.000124	20.797903
1996.521056	-2.975000	3.335100	-9.920400	26.598410	0.000122	20.792694
1997.527191	-3.012900	3.335000	-10.047000	26.588099	0.000122	20.815520
1998.522969	-2.977600	3.335200	-9.930300	26.567345	0.000124	20.800348
1999.523740	-2.994800	3.333900	-9.983400	26.599371	0.000123	20.814997
2000.523515	-2.982600	3.334400	-9.944700	26.623971	0.000123	20.805114
2001.525023	-2.982300	3.333800	-9.940500	26.673795	0.000122	20.778389
2002.522879	-2.980300	3.334100	-9.935600	26.702461	0.000124	20.788241
2003.526103	-2.986700	3.333200	-9.954900	26.718919	0.000120	20.789614
2004.524177	-3.022500	3.333200	-10.074000	26.718974	0.000121	20.781609
2005.523576	-2.986400	3.333200	-9.953500	26.719593	0.000120	20.804042
2006.536082	-3.019500	3.331400	-10.058000	26.744044	0.000120	20.794011
2007.521037	-2.992800	3.332300	-9.972300	26.731083	0.000118	20.796628
2008.523248	-2.999900	3.331300	-9.993000	26.734366	0.000116	20.801352
2009.525033	-2.998100	3.331300	-9.986900	26.719397	0.000117	20.792940
2010.523034	-3.002000	3.330500	-9.996900	26.672632	0.000116	20.793814
2011.522390	-2.996100	3.329800	-9.976000	26.671713	0.000117	20.803322
2012.526882	-3.006200	3.329200	-10.008000	26.700930	0.000116	20.813729
2013.527720	-2.996800	3.329200	-9.976100	26.698143	0.000115	20.788167
2014.525203	-2.982900	3.329300	-9.929800	26.733570	0.000117	20.778266
2015.524107	-2.993400	3.329600	-9.965100	26.803472	0.000117	20.785483
2016.524282	-3.014100	3.328200	-10.031000	26.848076	0.000115	20.786709
2017.523744	-2.990300	3.327500	-9.948700	26.871458	0.000114	20.804056
2018.523156	-3.003600	3.327100	-9.991900	26.823854	0.000116	20.795071
2019.529400	-3.003200	3.327300	-9.991600	26.784468	0.000115	20.766376
2020.522215	-3.003100	3.326700	-9.989100	26.793355	0.000113	20.799967
2021.523514	-2.969400	3.327800	-9.880300	26.830089	0.000114	20.791857
2022.535003	-3.011300	3.326000	-10.015000	26.825796	0.000115	20.768100
2023.525617	-2.985500	3.326900	-9.932200	26.823672	0.000114	20.801052
2024.525508	-2.990200	3.326600	-9.946800	26.796809	0.000114	20.784474
2025.527646	-2.984100	3.326500	-9.925600	26.780010	0.000113	20.799352
2026.526187	-2.984200	3.325500	-9.921700	26.767074	0.000114	20.784450
2027.527460	-3.004400	3.324800	-9.987900	26.732556	0.000112	20.789574
2028.525724	-3.017900	3.324000	-10.031000	26.783765	0.000110	20.794118
2029.527192	-3.020900	3.324500	-10.042000	26.734173	0.000111	20.782665
2030.527935	-2.993400	3.323700	-9.947600	26.774228	0.000112	20.788798
2031.529676	-2.991900	3.324700	-9.945700	26.741149	0.000110	20.798688
2032.527943	-3.015400	3.323400	-10.020000	26.727245	0.000111	20.775700
2033.527824	-3.012800	3.323200	-10.011000	26.759940	0.000109	20.781544
2034.531449	-2.997400	3.321500	-9.955300	26.762745	0.000112	20.781046
2035.530388	-3.000500	3.322800	-9.968500	26.785542	0.000109	20.797802
2036.528554	-2.998400	3.322600	-9.961500	26.842622	0.000108	20.774586
2037.530513	-3.002700	3.320800	-9.970000	26.879012	0.000110	20.787943
2038.536836	-3.006000	3.320900	-9.981500	26.839694	0.000108	20.775436
2039.531058	-2.978400	3.321300	-9.891500	26.836945	0.000110	20.779310
2040.532269	-2.978200	3.320800	-9.889100	26.874995	0.000109	20.778214
2041.533102	-2.991800	3.319900	-9.931200	26.874572	0.000108	20.771625
2042.535641	-3.002900	3.318600	-9.964200	26.907427	0.000107	20.777635
2043.533538	-3.018300	3.318800	-10.016000	26.900011	0.000106	20.784877
2044.532724	-3.013200	3.318800	-9.999400	26.856279	0.000108	20.762240
2045.534393	-2.995800	3.318000	-9.939200	26.839879	0.000107	20.783683
2046.533872	-2.992000	3.319300	-9.930000	26.871400	0.000105	20.764642
2047.535493	-2.997400	3.318400	-9.945400	26.928384	0.000107	20.791121
2048.536496	-2.995400	3.316700	-9.934700	26.840008	0.000104	20.772907
2049.534023	-3.015200	3.317500	-10.002000	26.803501	0.000106	20.762752
2050.533797	-3.020600	3.316500	-10.017000	26.810305	0.000104	20.775758
2051.538676	-3.016200	3.317500	-10.004000	26.861326	0.000104	20.782962
2052.534034	-3.023900	3.316100	-10.027000	26.838820	0.000103	20.749426
2053.538300	-3.013900	3.315500	-9.991800	26.830712	0.000102	20.783949
2054.539417	-3.007100	3.316900	-9.973200	26.810906	0.000104	20.779681
2055.534451	-3.004700	3.315000	-9.959200	26.838753	0.000104	20.759317
2056.533775	-3.015600	3.314500	-9.993600	26.890405	0.000101	20.753405
2057.543746	-3.002100	3.314100	-9.948300	26.915893	0.000104	20.761491
2058.535898	-3.017200	3.314100	-9.998600	26.934956	0.000103	20.740357
2059.544330	-3.012700	3.314300	-9.983200	26.927332	0.000103	20.763510
2060.548568	-2.986400	3.314800	-9.898500	26.937915	0.000103	20.745702
2061.548825	-3.003300	3.314800	-9.954700	26.936206	9.889175E-5	20.756787
2062.535518	-3.034800	3.313000	-10.053000	26.969489	9.866073E-5	20.766074
2063.538717	-2.995700	3.312900	-9.922900	26.950359	0.000102	20.749207
2064.535298	-2.981400	3.313300	-9.877400	26.923506	0.000102	20.770569
2065.543734	-2.985200	3.313000	-9.888000	26.876652	9.813270E-5	20.773242
2066.537406	-3.005800	3.312100	-9.954700	26.902465	0.000101	20.752730
2067.537992	-3.019800	3.311400	-9.998600	26.935001	9.892475E-5	20.764584
2068.538685	-2.986400	3.311400	-9.888200	26.966544	9.902376E-5	20.757422
2069.537486	-2.982800	3.311100	-9.875500	26.928658	9.786868E-5	20.768163
2070.540070	-3.011700	3.310400	-9.968900	26.919845	9.641657E-5	20.768310
2071.539329	-3.008200	3.311000	-9.958900	26.900966	9.638357E-5	20.761654
2072.539644	-3.009800	3.308900	-9.958200	26.916037	9.849572E-5	20.761636
2073.544051	-3.010400	3.309100	-9.961000	26.955125	9.555851E-5	20.763958
2074.539715	-3.020100	3.309900	-9.994100	26.944225	9.496446E-5	20.754893
2075.544415	-3.014400	3.308500	-9.971900	26.945059	9.473345E-5	20.752412
2076.546665	-3.004900	3.308500	-9.940900	26.976399	9.489846E-5	20.743150
2077.550759	-2.981500	3.310400	-9.868100	26.959253	9.852872E-5	20.756255
2078.542857	-2.994500	3.307900	-9.904000	26.929254	9.559151E-5	20.756434
2079.547162	-2.990800	3.307600	-9.890900	26.928360	9.545950E-5	20.762647
2080.545515	-3.004900	3.306300	-9.934000	26.981673	9.281931E-5	20.735651
2081.545001	-3.002100	3.307000	-9.927000	27.016435	9.288531E-5	20.741211
2082.548237	-2.984000	3.307700	-9.869000	27.036495	9.262129E-5	20.759489
2083.552954	-3.011900	3.305000	-9.953500	27.090568	9.285231E-5	20.762187
2084.556250	-2.985600	3.306300	-9.870400	27.077887	9.262129E-5	20.744692
2085.569660	-2.967600	3.305300	-9.808100	27.096990	9.219226E-5	20.753947
2086.545398	-3.012700	3.305000	-9.955600	27.100070	9.024512E-5	20.751829
2087.553444	-3.011000	3.304700	-9.948600	27.113051	9.067415E-5	20.742124
2088.547810	-3.006200	3.303200	-9.929000	27.126031	9.017911E-5	20.763714
2089.548981	-3.006800	3.303200	-9.931400	27.116302	8.951907E-5	20.735436
2090.548033	-2.988400	3.304400	-9.874100	27.133110	8.932105E-5	20.741909
2091.549922	-2.993100	3.303500	-9.886500	27.041101	8.994810E-5	20.767915
2092.549936	-2.999700	3.303000	-9.907100	26.990529	8.783594E-5	20.755464
2093.551473	-2.998600	3.303400	-9.905200	26.956947	8.783594E-5	20.747772
2094.554741	-3.010500	3.302500	-9.940700	27.006860	8.763793E-5	20.721151
2095.559476	-3.011500	3.302300	-9.944100	27.038548	8.595481E-5	20.732629
2096.549503	-3.029300	3.301700	-10.001000	27.065918	8.902403E-5	20.748776
2097.555503	-2.975500	3.302100	-9.824000	27.076259	8.668086E-5	20.756331
2098.550267	-3.021200	3.301300	-9.972900	27.026143	8.595481E-5	20.740069
2099.553786	-3.012500	3.300800	-9.942500	26.995967	8.707689E-5	20.743388
2100.550207	-3.002500	3.300600	-9.909100	26.960157	8.562478E-5	20.731558
2101.550590	-2.996900	3.301400	-9.893600	26.947977	8.625183E-5	20.720732
2102.555167	-2.985700	3.300100	-9.851300	26.946985	8.262156E-5	20.730167
2103.550372	-3.044400	3.298700	-10.041000	26.964309	8.470071E-5	20.736208
2104.562048	-2.986100	3.299500	-9.851600	27.024759	8.417268E-5	20.716391
2105.554956	-2.984500	3.298400	-9.842900	27.047862	8.427168E-5	20.726823
2106.552898	-3.014500	3.298000	-9.940900	27.103575	8.361163E-5	20.716946
2107.552402	-3.041900	3.298100	-10.032000	27.124588	8.420568E-5	20.712949
2108.555353	-3.014300	3.296500	-9.935700	27.056771	8.387565E-5	20.743844
2109.555220	-2.995300	3.297800	-9.876300	27.102535	8.268757E-5	20.732495
2110.552943	-2.974300	3.297600	-9.806400	27.060617	8.463471E-5	20.732538
2111.553622	-2.999300	3.297500	-9.889200	27.060941	8.272057E-5	20.714845
2112.557932	-2.985100	3.295900	-9.836900	27.071687	8.470071E-5	20.714747
2113.555514	-3.003600	3.296200	-9.899800	27.064193	8.077343E-5	20.727125
2114.554522	-2.971500	3.295900	-9.793100	27.084773	8.070742E-5	20.727908
2115.554519	-2.996000	3.294200	-9.867900	27.135983	8.017938E-5	20.705916
2116.554533	-3.001400	3.294100	-9.885900	27.135798	7.948633E-5	20.721379
2117.554941	-2.997400	3.295600	-9.877800	27.074045	7.938733E-5	20.726127
2118.555500	-2.983800	3.294000	-9.828100	27.014614	7.958534E-5	20.712826
2119.555480	-3.005200	3.293900	-9.898400	27.043350	8.206052E-5	20.723707
2120.554917	-3.007100	3.294000	-9.904600	27.093944	7.912331E-5	20.717216
2121.561442	-3.000300	3.293200	-9.879600	27.149801	7.945333E-5	20.723609
2122.555937	-2.999700	3.292800	-9.875900	27.197911	7.925532E-5	20.709882
2123.557089	-2.995300	3.293800	-9.865300	27.192321	7.793522E-5	20.721804
2124.560667	-3.010200	3.292700	-9.910900	27.130588	7.849626E-5	20.717561
2125.556366	-2.996200	3.291800	-9.862200	27.122427	7.800122E-5	20.734484
2126.555165	-3.016000	3.291000	-9.924700	27.134017	7.895829E-5	20.719587
2127.555804	-2.985400	3.291800	-9.826200	27.124735	7.470098E-5	20.736805
2128.555276	-2.967200	3.291900	-9.766800	27.112355	7.704415E-5	20.705386
2129.555079	-2.985300	3.290000	-9.820100	27.086725	7.430495E-5	20.722759
2130.554065	-3.034000	3.289200	-9.978000	27.107334	7.651612E-5	20.723096
2131.557740	-3.011300	3.289200	-9.903300	27.106177	7.529503E-5	20.713398
2132.558075	-3.010600	3.289200	-9.901400	27.137960	7.565805E-5	20.702214
2133.558252	-2.973000	3.289900	-9.780100	27.169270	7.724217E-5	20.713318
2134.559339	-3.016900	3.289000	-9.921300	27.223409	7.546004E-5	20.725098
2135.560492	-3.005800	3.288400	-9.882900	27.216461	7.433796E-5	20.719531
2136.560070	-2.971100	3.287300	-9.765300	27.164654	7.437096E-5	20.712468
2137.562143	-3.035900	3.286700	-9.976600	27.111210	7.427195E-5	20.746911
2138.563506	-3.006100	3.287900	-9.883000	27.146439	7.331488E-5	20.708372
2139.561179	-3.019700	3.286600	-9.923800	27.103317	7.314987E-5	20.725696
2140.564889	-3.020900	3.287000	-9.928800	27.106293	7.291885E-5	20.721101
2141.561828	-2.971800	3.287700	-9.769500	27.139172	7.179677E-5	20.742791
2142.560372	-3.002900	3.285500	-9.865100	27.212689	7.225880E-5	20.726644
2143.564125	-3.005300	3.285400	-9.873000	27.249312	7.443696E-5	20.726496
2144.563247	-2.982500	3.285200	-9.797300	27.265877	7.331488E-5	20.712338
2145.568159	-2.999500	3.283500	-9.848100	27.266341	7.268784E-5	20.720392
2146.561698	-3.003800	3.284200	-9.863700	27.235757	7.044367E-5	20.724716
2147.561096	-2.987000	3.285600	-9.813000	27.205660	7.278684E-5	20.723841
2148.565119	-3.008800	3.284100	-9.879300	27.183926	7.097171E-5	20.715257
2149.564835	-2.972600	3.284800	-9.763500	27.204019	7.212679E-5	20.695162
2150.560734	-3.022500	3.281900	-9.918900	27.242974	7.090571E-5	20.717277
2151.564663	-3.006400	3.283000	-9.868200	27.210692	6.942060E-5	20.701874
2152.562780	-2.992400	3.281600	-9.819000	27.175636	6.948660E-5	20.729679
2153.562727	-3.010100	3.281500	-9.876800	27.212529	6.826551E-5	20.720793
2154.563265	-2.978300	3.281600	-9.772000	27.243770	6.872755E-5	20.715706
2155.560506	-3.028900	3.281400	-9.938400	27.289341	6.852953E-5	20.712233
2156.564774	-3.001100	3.281000	-9.845700	27.301279	6.879355E-5	20.732303
2157.563749	-3.005400	3.280100	-9.856400	27.288870	6.750646E-5	20.720294
2158.560059	-2.987100	3.279600	-9.795300	27.293877	6.618636E-5	20.725331
2159.564722	-2.998100	3.279200	-9.830400	27.330423	6.565832E-5	20.720842
2160.566167	-2.983900	3.280400	-9.787200	27.315762	6.615336E-5	20.711783
2161.560023	-3.003200	3.278400	-9.844800	27.317770	6.661539E-5	20.685351
2162.569739	-3.003700	3.277900	-9.845400	27.313852	6.608735E-5	20.710810
2163.562465	-3.003200	3.277300	-9.842000	27.273779	6.602135E-5	20.727874
2164.560849	-2.998000	3.276600	-9.822400	27.216814	6.417321E-5	20.723761
2165.567745	-3.013300	3.276000	-9.870600	27.185254	6.384319E-5	20.698099
2166.566494	-2.965600	3.276800	-9.716800	27.183466	6.377718E-5	20.721906
2167.561192	-3.001100	3.276200	-9.830600	27.185554	6.437123E-5	20.714997
2168.565423	-2.996700	3.278100	-9.821900	27.212082	6.258910E-5	20.696634
2169.572887	-3.038900	3.273800	-9.947000	27.253607	6.357917E-5	20.724179
2170.563580	-2.984600	3.274800	-9.772700	27.234207	6.159902E-5	20.711302
2171.573499	-3.010600	3.275200	-9.859100	27.294422	6.090597E-5	20.726353
2172.568095	-3.002800	3.274400	-9.831700	27.332846	6.420621E-5	20.730392
2173.569352	-3.000100	3.274000	-9.821300	27.266586	6.338115E-5	20.716845
2174.572217	-3.022400	3.273500	-9.892800	27.265067	6.087297E-5	20.728120
2175.565825	-2.987900	3.272800	-9.778300	27.300696	6.123600E-5	20.735036
2176.569032	-2.995800	3.271700	-9.800400	27.344704	6.130200E-5	20.709602
2177.564884	-2.994600	3.272800	-9.799100	27.411933	6.189605E-5	20.726026
2178.572657	-3.002300	3.271200	-9.820400	27.445787	6.034493E-5	20.704607
2179.571603	-2.993200	3.272200	-9.793000	27.506762	5.981689E-5	20.728970
2180.571637	-2.980100	3.271400	-9.748500	27.499270	6.057595E-5	20.701991
2181.570426	-3.000200	3.270400	-9.810900	27.441619	5.816677E-5	20.733132
2182.569761	-3.000000	3.271100	-9.812400	27.361574	5.975089E-5	20.729420
2183.570381	-2.991200	3.269700	-9.778900	27.341397	5.942086E-5	20.721924
2184.575692	-3.020400	3.269900	-9.876100	27.373896	5.813377E-5	20.723322
2185.570326	-3.007100	3.269200	-9.830300	27.380966	5.892583E-5	20.726167
2186.572716	-2.999200	3.270600	-9.808200	27.448511	5.796876E-5	20.729634
2187.581243	-3.009200	3.268000	-9.832900	27.423336	5.846379E-5	20.722325
2188.572484	-3.002800	3.267100	-9.809600	27.416364	5.951987E-5	20.737123
2189.574388	-3.003400	3.267700	-9.813300	27.394352	5.833178E-5	20.710235
2190.576624	-3.007300	3.267300	-9.824900	27.446845	5.532856E-5	20.729381
2191.575340	-3.019600	3.265700	-9.860400	27.491123	5.569159E-5	20.730305
2192.577881	-3.005400	3.266200	-9.815200	27.447561	5.780375E-5	20.732472
2193.575053	-3.019600	3.265700	-9.859900	27.415341	5.806777E-5	20.722817
2194.576423	-2.996200	3.264200	-9.779100	27.396708	5.470152E-5	20.724935
2195.586002	-3.002600	3.265400	-9.803700	27.406508	5.529556E-5	20.706817
2196.576865	-3.000800	3.264600	-9.795200	27.433520	5.529556E-5	20.723087
2197.577112	-3.001800	3.264500	-9.798200	27.458670	5.582360E-5	20.732743
2198.578204	-3.000200	3.263700	-9.791300	27.464821	5.374445E-5	20.719965
2199.577856	-2.988200	3.264500	-9.754000	27.461222	5.311740E-5	20.726776
2200.579937	-3.011500	3.262300	-9.822600	27.435723	5.585660E-5	20.731942
2201.580919	-2.996300	3.263900	-9.778000	27.414685	5.585660E-5	20.732115
2202.578176	-2.984200	3.261700	-9.732800	27.430636	5.252336E-5	20.725402
2203.578993	-3.003200	3.262500	-9.796600	27.430930	5.390946E-5	20.717636
2204.580417	-2.986200	3.261500	-9.738900	27.476579	5.344743E-5	20.736062
2205.578213	-2.986200	3.262500	-9.741300	27.518492	5.377745E-5	20.737454
2206.580323	-3.012700	3.261100	-9.824100	27.437779	5.447050E-5	20.745866
2207.580059	-2.970100	3.260700	-9.683700	27.463383	5.057622E-5	20.743175
2208.580130	-2.986300	3.260500	-9.735200	27.485583	4.955314E-5	20.734215
2209.580156	-2.986600	3.259600	-9.733800	27.474988	4.994917E-5	20.744419
2210.581883	-3.011500	3.258800	-9.812700	27.447028	5.080723E-5	20.743316
2211.580757	-2.981000	3.260100	-9.717300	27.440583	4.770501E-5	20.750109
2212.581691	-2.995900	3.257700	-9.758900	27.442939	4.829905E-5	20.720235
2213.580621	-2.995000	3.258500	-9.758700	27.441072	4.988317E-5	20.732582
2214.582113	-2.995000	3.259800	-9.762300	27.410510	4.915711E-5	20.733130
2215.584600	-3.007100	3.255900	-9.790700	27.439756	4.915711E-5	20.729835
2216.581707	-3.012200	3.257000	-9.809800	27.470292	4.869508E-5	20.732108
2217.582650	-2.989500	3.256100	-9.732900	27.489860	4.899210E-5	20.736621
2218.586612	-3.007800	3.255700	-9.791600	27.436090	4.882709E-5	20.746063
2219.584014	-3.017600	3.255500	-9.823000	27.470366	4.803503E-5	20.735027
2220.586656	-2.979900	3.255700	-9.700800	27.504647	4.717697E-5	20.743913
2221.586792	-2.981900	3.255000	-9.704200	27.530812	5.001517E-5	20.746530
2222.584789	-3.013300	3.255400	-9.808600	27.486787	4.579087E-5	20.755342
2223.587121	-3.022400	3.252400	-9.829300	27.426388	4.575786E-5	20.754794
2224.586747	-3.022000	3.252800	-9.828000	27.430250	4.734198E-5	20.739713
2225.584820	-3.005400	3.253300	-9.775800	27.463419	4.625290E-5	20.745107
2226.587308	-3.008600	3.252200	-9.783500	27.464312	4.582387E-5	20.731307
2227.588311	-2.999700	3.252400	-9.755100	27.480514	4.740798E-5	20.756617
2228.584275	-3.002900	3.251800	-9.764000	27.503534	4.575786E-5	20.747060
2229.585281	-2.991100	3.252200	-9.727100	27.476199	4.641791E-5	20.748957
2230.586562	-3.000700	3.252000	-9.756400	27.492101	4.638491E-5	20.737454
2231.588679	-2.997100	3.250900	-9.742600	27.474258	4.532883E-5	20.754591
2232.590724	-2.988200	3.251700	-9.716100	27.460891	4.542784E-5	20.752996
2233.587170	-2.985300	3.251200	-9.705100	27.417084	4.486680E-5	20.739744
2234.588549	-3.012700	3.249900	-9.790700	27.451838	4.437176E-5	20.735353
2235.588510	-2.985300	3.248800	-9.697200	27.450180	4.410774E-5	20.765454
2236.588604	-2.992700	3.249600	-9.724600	27.495822	4.582387E-5	20.725550
2237.589790	-3.008700	3.248200	-9.771800	27.569559	4.414074E-5	20.755170
2238.588821	-2.996000	3.248800	-9.732700	27.567870	4.387672E-5	20.754893
2239.592491	-3.000800	3.248100	-9.746100	27.533566	4.549384E-5	20.760681
2240.592458	-3.004500	3.248200	-9.758600	27.566781	4.374472E-5	20.742417
2241.589182	-3.000400	3.247900	-9.744100	27.582803	4.341469E-5	20.761858
2242.590623	-3.026600	3.245600	-9.821700	27.566132	4.183057E-5	20.749350
2243.593899	-3.004300	3.246500	-9.752800	27.576530	4.496580E-5	20.740847
2244.595872	-2.985200	3.245500	-9.687300	27.598378	4.404174E-5	20.769469
2245.590814	-3.003200	3.246700	-9.749800	27.583341	4.331568E-5	20.754338
2246.590503	-3.003200	3.244500	-9.743300	27.636792	4.262263E-5	20.742687
2247.592036	-2.991600	3.245000	-9.704900	27.622258	4.077450E-5	20.767892
2248.591098	-2.983200	3.244300	-9.677400	27.607521	3.991643E-5	20.749270
2249.591010	-3.001500	3.242500	-9.730400	27.639717	4.120353E-5	20.753692
2250.593018	-2.994200	3.243900	-9.712200	27.659355	4.051048E-5	20.757331
2251.592794	-2.999000	3.241700	-9.720800	27.685596	4.001544E-5	20.769986
2252.592239	-2.982300	3.242400	-9.669000	27.639791	4.021346E-5	20.763249
2253.595630	-2.979900	3.242500	-9.661300	27.630060	4.291965E-5	20.751086
2254.593528	-2.977500	3.241600	-9.650600	27.655383	4.202859E-5	20.751911
2255.629637	-2.991300	3.240800	-9.693400	27.632122	3.922338E-5	20.739885
2256.593729	-3.006100	3.242800	-9.747900	27.660915	3.965241E-5	20.753211
2257.594244	-3.013600	3.239700	-9.761900	27.676018	4.100551E-5	20.757977
2258.594677	-2.981900	3.239800	-9.659800	27.689218	3.889336E-5	20.761777
2259.595514	-3.009500	3.237700	-9.743300	27.679299	3.826631E-5	20.766494
2260.596724	-2.998400	3.238300	-9.709000	27.668234	3.849733E-5	20.754886
2261.595812	-3.019100	3.237200	-9.772900	27.687236	3.991643E-5	20.777800
2262.595487	-3.005200	3.237500	-9.728600	27.695620	4.189658E-5	20.768693
2263.594868	-3.003400	3.236200	-9.719300	27.732494	4.004844E-5	20.757910
2264.595068	-2.991900	3.237600	-9.685600	27.682426	3.737525E-5	20.772960
2265.597375	-2.981300	3.236900	-9.649700	27.622931	3.734225E-5	20.781372
2266.601563	-3.014300	3.235300	-9.751600	27.630251	3.783728E-5	20.772616
2267.598323	-2.998400	3.236800	-9.704200	27.680695	3.965241E-5	20.765054
2268.598825	-3.028400	3.234700	-9.794900	27.680548	3.724324E-5	20.772967
2269.606394	-3.017000	3.235700	-9.760700	27.684967	3.480106E-5	20.771724
2270.598076	-2.989700	3.234800	-9.670600	27.690743	3.457004E-5	20.787494
2271.602562	-3.033800	3.232600	-9.806100	27.747487	3.605515E-5	20.763989
2272.604330	-3.014400	3.233200	-9.745700	27.741191	3.750726E-5	20.753385
2273.600513	-3.025300	3.232400	-9.778600	27.745780	3.674820E-5	20.773652
2274.601646	-2.968800	3.233900	-9.600100	27.706795	3.526309E-5	20.774723
2275.604453	-2.969800	3.234700	-9.605600	27.711336	3.542810E-5	20.772654
2276.600765	-3.012100	3.231800	-9.733800	27.646034	3.519709E-5	20.766213
2277.601189	-2.973700	3.232400	-9.611400	27.648268	3.806830E-5	20.762770
2278.603642	-2.997800	3.231300	-9.686000	27.659706	3.539510E-5	20.764797
2279.603830	-2.969900	3.230900	-9.593800	27.635674	3.463605E-5	20.793721
2280.605153	-2.998600	3.229900	-9.685200	27.673947	3.608815E-5	20.779127
2281.605029	-2.998600	3.231400	-9.688800	27.699814	3.308493E-5	20.767224
2282.609806	-3.011500	3.229100	-9.723300	27.726280	3.579113E-5	20.785322
2283.605601	-2.978700	3.228900	-9.617000	27.779938	3.470205E-5	20.781947
2284.605979	-3.001500	3.228000	-9.688600	27.818921	3.315094E-5	20.787514
2285.605985	-2.992700	3.227700	-9.658600	27.804493	3.414101E-5	20.781529
2286.604908	-3.023800	3.229800	-9.765200	27.728109	3.305193E-5	20.783370
2287.605422	-3.019100	3.226600	-9.740300	27.752317	3.100578E-5	20.787342
2288.604890	-2.984600	3.227200	-9.631200	27.777637	3.255689E-5	20.793857
2289.605362	-2.974000	3.226100	-9.593500	27.733526	3.239188E-5	20.786450
2290.611507	-2.998200	3.225700	-9.670600	27.723111	3.186384E-5	20.784030
2291.606068	-3.009200	3.225400	-9.705900	27.746450	3.136881E-5	20.780489
2292.608289	-2.975200	3.225700	-9.596500	27.724378	3.206186E-5	20.801900
2293.606709	-2.973800	3.223200	-9.584600	27.728594	3.100578E-5	20.783857
2294.607344	-2.992500	3.224000	-9.647100	27.737246	2.932266E-5	20.793039
2295.609256	-2.975900	3.224500	-9.595600	27.760033	3.301893E-5	20.798426
2296.612300	-3.008800	3.222100	-9.693800	27.823579	2.968568E-5	20.796470
2297.607260	-3.003200	3.222900	-9.678400	27.877702	3.173183E-5	20.792146
2298.609491	-2.985300	3.223500	-9.622800	27.871089	2.843159E-5	20.802086
2299.607988	-3.006800	3.222600	-9.688700	27.832555	2.899263E-5	20.787485
2300.612050	-3.000900	3.223600	-9.673200	27.769843	2.912464E-5	20.792652
2301.611347	-2.996300	3.220600	-9.647900	27.768161	2.928965E-5	20.785743
2302.614653	-3.001700	3.220100	-9.664700	27.802726	2.965268E-5	20.791605
2303.615054	-3.027600	3.218900	-9.744400	27.834746	2.806856E-5	20.798700
2304.612772	-2.984000	3.221200	-9.611600	27.829159	3.031273E-5	20.792603
2305.611220	-3.007400	3.219400	-9.681000	27.852300	2.872861E-5	20.796926
2306.612647	-3.016200	3.217200	-9.703100	27.816598	2.737551E-5	20.771427
2307.613180	-3.013300	3.217500	-9.694400	27.754675	2.988370E-5	20.812000
2308.612355	-3.022100	3.216900	-9.721100	27.766699	2.853060E-5	20.789487
2309.613377	-3.010000	3.216100	-9.679800	27.788501	2.869561E-5	20.792462
2310.612026	-2.976600	3.218300	-9.578700	27.796786	2.730951E-5	20.801274
2311.613045	-3.022900	3.216400	-9.722000	27.832226	2.876162E-5	20.796163
2312.617580	-2.991400	3.216300	-9.620500	27.796322	2.803556E-5	20.795117
2313.615982	-2.999500	3.215500	-9.644300	27.818692	2.674847E-5	20.809569
2314.617427	-3.001900	3.216600	-9.655300	27.891318	2.661646E-5	20.806798
2315.617518	-3.003600	3.214500	-9.654200	27.874400	2.714450E-5	20.796884
2316.616788	-3.023100	3.214300	-9.716300	27.869598	2.595641E-5	20.791102
2317.617719	-3.027300	3.214900	-9.731400	27.853556	2.486733E-5	20.792026
2318.616295	-3.008100	3.215800	-9.673100	27.855887	2.407527E-5	20.790579
2319.617961	-2.998200	3.212700	-9.631100	27.906320	2.457031E-5	20.803880
2320.621228	-2.984300	3.214100	-9.591100	27.864343	2.796956E-5	20.803830
2321.616381	-2.981000	3.211600	-9.572200	27.852962	2.552738E-5	20.794274
2322.617243	-3.005400	3.212300	-9.653200	27.833409	2.483433E-5	20.789767
2323.615748	-3.000300	3.210100	-9.630700	27.803053	2.374525E-5	20.803788
2324.617037	-2.995500	3.209900	-9.614200	27.746692	2.351423E-5	20.795432
2325.617867	-2.991100	3.209700	-9.599400	27.791899	2.404227E-5	20.812477
2326.617377	-2.986500	3.209200	-9.582900	27.823888	2.414128E-5	20.791091
2327.621775	-2.988400	3.209800	-9.591000	27.892525	2.476832E-5	20.818918
2328.620453	-2.993300	3.209700	-9.607700	27.947758	2.318421E-5	20.807181
2329.620569	-2.994200	3.210000	-9.610200	27.929019	2.394326E-5	20.813450
2330.623381	-3.013000	3.207500	-9.663200	27.974219	2.338222E-5	20.805839
2331.618822	-2.987700	3.209000	-9.587000	27.963066	2.298619E-5	20.803149
2332.619273	-2.996400	3.205600	-9.603700	27.977345	2.295319E-5	20.825581
2333.618681	-3.006200	3.206700	-9.639400	28.013219	2.305220E-5	20.822336
2334.618561	-2.995000	3.206000	-9.601500	27.986515	2.249115E-5	20.795931
2335.619642	-3.000600	3.206400	-9.620300	27.950592	2.272217E-5	20.807662
2336.619513	-2.997500	3.203700	-9.602600	27.975063	2.503234E-5	20.826129
2337.620937	-2.999500	3.206000	-9.615500	27.985946	2.169910E-5	20.829971
2338.622485	-3.013000	3.205600	-9.657700	27.968363	2.206212E-5	20.807532
2339.620679	-2.995200	3.204300	-9.597000	27.968297	2.140207E-5	20.826905
2340.621479	-2.966900	3.202300	-9.500000	27.929619	2.054401E-5	20.810261
2341.618582	-3.012400	3.202000	-9.645100	27.947398	2.153408E-5	20.820569
2342.622175	-3.001300	3.201700	-9.608600	28.011812	2.226014E-5	20.826610
2343.620117	-2.999800	3.201100	-9.601600	28.044112	2.348123E-5	20.817398
2344.621922	-3.019100	3.199800	-9.658900	28.044137	2.259016E-5	20.812681
2345.620251	-2.984200	3.199200	-9.545600	28.085441	1.945493E-5	20.827232
2346.621058	-3.007300	3.200400	-9.622800	28.024028	2.173210E-5	20.803345
2347.626312	-3.008100	3.199600	-9.623800	27.969759	2.166609E-5	20.799928
2348.621270	-3.018700	3.198300	-9.653100	28.015996	2.123706E-5	20.850735
2349.623549	-3.004000	3.197900	-9.605900	28.043592	2.202912E-5	20.828728
2350.621747	-3.010500	3.197800	-9.626400	28.089575	2.133607E-5	20.834238
2351.623731	-2.994400	3.197700	-9.574600	28.125347	2.107205E-5	20.814774
2352.618915	-3.023600	3.195300	-9.660500	28.088138	1.820084E-5	20.836110
2353.621334	-2.984400	3.196800	-9.539500	28.121702	1.810183E-5	20.830070
2354.629992	-3.009500	3.195300	-9.615100	28.113768	2.014798E-5	20.838204
2355.625229	-2.979300	3.195300	-9.519200	28.151797	1.767280E-5	20.835236
2356.623056	-2.990100	3.194800	-9.551700	28.029234	1.816784E-5	20.826603
2357.626485	-3.006400	3.193200	-9.599600	28.043781	1.889389E-5	20.836978
2358.628917	-2.997900	3.193200	-9.572100	28.037786	1.856387E-5	20.835685
2359.625820	-2.992500	3.192300	-9.552500	28.048718	1.691374E-5	20.838155
2360.628158	-2.990100	3.192700	-9.544600	28.042019	1.899290E-5	20.831886
2361.626606	-2.996000	3.192200	-9.563400	28.047549	1.902590E-5	20.848831
2362.627102	-3.002400	3.191100	-9.580300	28.027141	1.717776E-5	20.855789
2363.631369	-2.985300	3.191100	-9.526000	27.992981	1.737578E-5	20.851750
2364.634442	-3.021900	3.189100	-9.636600	28.052106	1.763980E-5	20.843462
2365.624055	-2.994600	3.189600	-9.550800	28.077217	1.816784E-5	20.846454
2366.629878	-3.013500	3.189400	-9.610600	28.116214	1.757379E-5	20.843037
2367.625312	-2.981800	3.187600	-9.503800	28.124814	1.744178E-5	20.834625
2368.628368	-2.981400	3.190100	-9.509600	28.077046	1.661672E-5	20.846756
2369.630022	-3.001200	3.188000	-9.566800	28.001582	1.549464E-5	20.849977
2370.624989	-2.995000	3.186400	-9.542600	27.937028	1.618769E-5	20.839528
2371.628911	-2.991200	3.185700	-9.528200	27.922840	1.641871E-5	20.844687
2372.628850	-2.978600	3.185600	-9.487400	27.982489	1.648471E-5	20.851146
2373.628735	-3.009600	3.184400	-9.583100	27.984184	1.532963E-5	20.829620
2374.628956	-2.990700	3.183800	-9.521100	28.010288	1.526362E-5	20.871066
2375.628212	-3.000700	3.184400	-9.554600	28.030292	1.612169E-5	20.858486
2376.627851	-3.023100	3.181700	-9.617500	28.059270	1.661672E-5	20.843560
2377.629590	-3.016500	3.182900	-9.600300	28.066935	1.773881E-5	20.838948
2378.632074	-3.005500	3.181600	-9.560500	28.084687	1.691374E-5	20.855870
2379.630421	-3.001900	3.182100	-9.551500	28.103399	1.490060E-5	20.839145
2380.630717	-2.988700	3.182100	-9.509500	28.053299	1.622069E-5	20.863628
2381.632100	-3.022500	3.178800	-9.607000	28.073547	1.371251E-5	20.850345
2382.633072	-3.012300	3.178200	-9.571900	28.149704	1.364650E-5	20.857310
2383.632633	-3.031200	3.177800	-9.631800	28.190630	1.509861E-5	20.872433
2384.632048	-3.022400	3.177900	-9.604000	28.243347	1.466958E-5	20.857703
2385.631991	-3.003700	3.178500	-9.546200	28.265676	1.453757E-5	20.867857
2386.637526	-3.008600	3.177500	-9.558300	28.232166	1.400953E-5	20.859723
2387.633210	-3.009500	3.176000	-9.557600	28.175601	1.344849E-5	20.868208
2388.633799	-3.008500	3.174800	-9.550700	28.164151	1.278844E-5	20.868534
2389.634305	-2.980800	3.175500	-9.464100	28.198728	1.397653E-5	20.847395
2390.635590	-2.974900	3.175000	-9.444500	28.142779	1.305246E-5	20.852235
2391.643612	-2.987000	3.174800	-9.481800	28.138840	1.024725E-5	20.872925
2392.634468	-2.975400	3.174700	-9.445000	28.094956	1.160035E-5	20.861465
2393.635388	-3.021500	3.172400	-9.584400	28.139726	1.153435E-5	20.878084
2394.635487	-2.975200	3.172200	-9.437200	28.148008	1.235941E-5	20.880732
2395.636046	-3.034200	3.171600	-9.622600	28.121510	1.117132E-5	20.868282
2396.636456	-2.990300	3.172300	-9.485300	28.152694	1.163336E-5	20.881181
2397.639881	-2.988700	3.170200	-9.473400	28.109484	1.212839E-5	20.883201
2398.637362	-2.998800	3.169400	-9.503100	28.090773	1.143534E-5	20.883805
2399.641160	-2.980200	3.168900	-9.442800	28.104407	9.290184E-6	20.874772
2400.641448	-3.007400	3.167900	-9.526400	28.088369	1.285445E-5	20.857679
2401.639548	-3.000000	3.167700	-9.502100	28.102670	1.179837E-5	20.874919
2402.640316	-3.000400	3.166100	-9.497400	28.101153	1.202939E-5	20.866754
2403.637768	-2.996100	3.166400	-9.485900	28.148577	1.087430E-5	20.863288
2404.637650	-2.987900	3.165500	-9.457700	28.230655	1.193038E-5	20.875271
2405.640796	-2.988300	3.164300	-9.454700	28.305981	9.752218E-6	20.873824
2406.639177	-2.985500	3.165100	-9.447900	28.386976	1.153435E-5	20.853910
2407.639131	-3.014200	3.163000	-9.533300	28.430817	1.245842E-5	20.873399
2408.642173	-2.986700	3.162100	-9.443400	28.416000	1.070929E-5	20.866065
2409.638422	-2.999200	3.163100	-9.486000	28.421497	1.014825E-5	20.853110
2410.643850	-2.985400	3.163200	-9.442500	28.414165	9.620208E-6	20.846675
2411.641275	-2.995100	3.160400	-9.464900	28.391263	9.719215E-6	20.874821
2412.639947	-2.974400	3.161100	-9.401600	28.313198	1.080830E-5	20.853591
2413.639870	-3.016100	3.158800	-9.526000	28.254796	8.597133E-6	20.848842
2414.640919	-2.996500	3.158200	-9.463100	28.253543	1.061028E-5	20.860383
2415.639417	-3.007700	3.158700	-9.499700	28.288759	8.333113E-6	20.839890
2416.639799	-3.002600	3.156800	-9.478300	28.331613	1.034626E-5	20.838942
2417.642696	-2.996800	3.156700	-9.459400	28.342566	7.739070E-6	20.858504
2418.641824	-2.983800	3.155100	-9.413600	28.281671	9.983235E-6	20.852193
2419.642060	-2.975500	3.156400	-9.390700	28.214852	8.069094E-6	20.852249
2420.642296	-2.986800	3.153400	-9.416400	28.137109	7.508053E-6	20.841786
2421.642113	-3.013600	3.154100	-9.504000	28.115865	7.739070E-6	20.845056
2422.641618	-2.998200	3.152300	-9.450000	28.250693	9.818223E-6	20.841867
2423.642056	-3.025400	3.151200	-9.532500	28.246999	8.795147E-6	20.829139
2424.641162	-3.009900	3.152100	-9.486200	28.251359	8.762145E-6	20.846805
2425.643598	-3.010400	3.150600	-9.483700	28.244197	9.290184E-6	20.838172
2426.643786	-3.008900	3.150200	-9.477500	28.322257	9.851225E-6	20.847065
2427.643827	-2.989800	3.151200	-9.420100	28.270350	7.442048E-6	20.828468
2428.643866	-2.999900	3.148800	-9.444900	28.349440	7.442048E-6	20.839823
2429.652127	-3.009600	3.146500	-9.468800	28.370680	6.748997E-6	20.827545
2430.647726	-2.980600	3.146900	-9.379300	28.279176	5.725922E-6	20.848259
2431.647448	-3.000700	3.146300	-9.440000	28.264779	8.069094E-6	20.839928
2432.650473	-2.962800	3.144800	-9.316800	28.175517	4.570836E-6	20.839201
2433.645951	-2.998100	3.145000	-9.427500	28.221696	7.706067E-6	20.828321
2434.648409	-2.992900	3.142600	-9.405000	28.228583	4.207810E-6	20.830512
2435.650275	-2.979500	3.143700	-9.366400	28.284827	3.910788E-6	20.826923
2436.650183	-2.991300	3.143500	-9.402200	28.339900	4.372822E-6	20.824053
2437.647236	-2.991700	3.141700	-9.398300	28.361990	3.745776E-6	20.841080
2438.648377	-3.019300	3.140600	-9.481400	28.427039	6.583985E-6	20.812698
2439.648674	-3.007300	3.140100	-9.441500	28.445531	4.339819E-6	20.824682
2440.648931	-3.010900	3.137800	-9.446700	28.454056	2.953717E-6	20.827102
2441.649358	-2.996100	3.137400	-9.398800	28.345429	2.524686E-6	20.803542
2442.649082	-3.026300	3.137400	-9.493500	28.253543	4.141805E-6	20.827193
2443.651767	-3.030300	3.136200	-9.503100	28.242767	4.867858E-6	20.807335
2444.650653	-2.970000	3.135800	-9.311800	28.212424	2.986720E-6	20.820882
2445.654835	-2.981600	3.134600	-9.345400	28.202607	1.897640E-6	20.821904
2446.655590	-2.996400	3.134200	-9.390900	28.221225	3.283742E-6	20.825950
2447.652038	-3.002000	3.132800	-9.404200	28.202227	2.095654E-6	20.818202
2448.650542	-3.024300	3.130700	-9.467000	28.284576	1.996647E-6	20.817661
2449.651573	-2.983000	3.131100	-9.339000	28.380188	1.501611E-6	20.801558
2450.654319	-2.997600	3.130200	-9.382700	28.484598	1.897640E-6	20.825142
2451.651868	-3.003000	3.129000	-9.395600	28.466859	2.524686E-6	20.823400
2452.655658	-3.002800	3.129000	-9.394400	28.453529	2.359674E-6	20.813296
2453.654631	-2.989500	3.128300	-9.350900	28.496149	1.567615E-6	20.819231
2454.652866	-3.026600	3.127100	-9.463500	28.535595	1.369601E-6	20.821023
2455.654686	-3.015800	3.126500	-9.427800	28.539110	2.326671E-6	20.801330
2456.656127	-3.019600	3.125100	-9.436200	28.475952	2.425679E-6	20.804582
2457.652881	-3.008300	3.125300	-9.401200	28.487985	2.194662E-6	20.793466
2458.655211	-3.020300	3.122500	-9.429800	28.465085	1.270594E-6	20.826829
2459.655865	-3.012600	3.122200	-9.406100	28.410618	1.138584E-6	20.809914
2460.654792	-3.017400	3.121700	-9.418100	28.423454	8.085595E-7	20.790597
2461.656247	-3.008800	3.122400	-9.393800	28.479339	2.161659E-6	20.801354
2462.656436	-2.989700	3.121100	-9.330700	28.527706	-2.805207E-7	20.801699
2463.659466	-2.997100	3.119200	-9.346600	28.573472	1.369601E-6	20.815073
2464.656597	-3.005900	3.118800	-9.374100	28.562222	2.755703E-6	20.790467
2465.656685	-3.005500	3.117800	-9.369200	28.584374	-1.006574E-6	20.810406
2466.660656	-3.021800	3.116200	-9.415700	28.605009	2.623693E-6	20.807006
2467.658654	-3.014000	3.115900	-9.390400	28.592720	2.062652E-6	20.823552
2468.660443	-3.024700	3.114100	-9.417800	28.513972	-5.115377E-7	20.821532
2469.663409	-3.015100	3.113300	-9.385200	28.518869	4.950364E-8	20.809395
2470.660912	-3.001400	3.112500	-9.341400	28.551631	1.650122E-8	20.811094
2471.661125	-3.023300	3.110500	-9.402900	28.613305	-3.465255E-7	20.812517
2472.660550	-3.027700	3.111200	-9.418400	28.634808	-1.039577E-6	20.792448
2473.663592	-3.022800	3.109100	-9.396900	28.590652	-1.963645E-6	20.791124
2474.662444	-3.033900	3.108600	-9.430900	28.570408	-1.155085E-7	20.783538
2475.662769	-3.030700	3.106200	-9.412800	28.634906	-1.204589E-6	20.793969
2476.664407	-3.000700	3.107500	-9.323500	28.635798	6.765498E-7	20.802929
2477.663127	-3.009100	3.105400	-9.344000	28.622481	-1.897640E-6	20.815120
2478.662943	-2.993800	3.105700	-9.296400	28.672933	-2.145158E-7	20.806192
2479.664746	-2.989500	3.104300	-9.279500	28.702493	-6.435474E-7	20.797559
2480.663088	-3.003800	3.103000	-9.319500	28.726023	-2.425679E-6	20.791862
2481.664005	-3.017000	3.100600	-9.354100	28.659128	-5.775425E-7	20.811727
2482.663154	-2.987300	3.100900	-9.261900	28.618415	-3.910788E-6	20.790636
2483.666083	-3.002500	3.100100	-9.306700	28.613536	-3.514759E-6	20.801370
2484.663640	-2.967100	3.099800	-9.195800	28.606474	-4.405824E-6	20.799473
2485.663539	-2.964500	3.099100	-9.185900	28.568389	-2.161659E-6	20.802367
2486.666744	-3.002700	3.096700	-9.297600	28.540067	-5.445401E-7	20.780008
2487.666325	-2.981400	3.096700	-9.231600	28.494372	-3.184735E-6	20.792312
2488.664857	-2.987200	3.095500	-9.246700	28.502743	-2.920715E-6	20.807379
2489.667181	-2.982600	3.094100	-9.227900	28.450999	-3.316744E-6	20.786092
2490.665557	-2.990700	3.093900	-9.251800	28.477440	-1.138584E-6	20.805606
2491.666701	-3.008100	3.091400	-9.298000	28.421181	-3.844783E-6	20.769342
2492.671933	-3.002700	3.089700	-9.275400	28.425217	-3.712773E-6	20.795691
2493.667418	-2.996800	3.089500	-9.257900	28.490372	-3.778778E-6	20.801086
2494.664901	-3.032900	3.088200	-9.364900	28.467869	-2.722700E-6	20.778899
2495.668543	-3.007700	3.087900	-9.286700	28.504124	-4.306817E-6	20.783166
2496.667104	-2.994400	3.087200	-9.243400	28.521911	-3.811781E-6	20.791596
2497.665971	-3.004000	3.085700	-9.268700	28.544015	-3.580764E-6	20.811960
2498.666564	-3.011800	3.084200	-9.287900	28.620927	-4.009795E-6	20.800278
2499.667083	-3.007000	3.083800	-9.272200	28.589879	-4.306817E-6	20.796510
2500.667383	-3.000900	3.080600	-9.244000	28.592550	-3.217737E-6	20.795881
2501.674705	-3.009700	3.080500	-9.270800	28.603776	-5.296890E-6	20.783953
2502.668885	-2.996500	3.080700	-9.230400	28.533522	-4.471829E-6	20.788116
2503.668284	-2.983800	3.079600	-9.188400	28.446723	-5.098876E-6	20.797907
2504.673071	-2.996200	3.077500	-9.219500	28.465882	-3.877786E-6	20.791122
2505.669726	-2.996200	3.079000	-9.223200	28.534397	-6.088948E-6	20.778091
2506.672074	-3.001800	3.074700	-9.228700	28.587079	-1.765630E-6	20.762395
2507.673188	-2.992400	3.075900	-9.203000	28.614733	-3.943790E-6	20.775074
2508.672913	-2.993800	3.074100	-9.202600	28.629627	-4.570837E-6	20.778221
2509.672194	-2.968500	3.074200	-9.124700	28.623158	-5.263888E-6	20.793043
2510.675654	-2.994000	3.071000	-9.193500	28.674203	-5.494905E-6	20.792298
2511.672466	-3.017800	3.069400	-9.261700	28.757127	-6.517980E-6	20.788105
2512.673330	-2.980500	3.069300	-9.146500	28.836058	-3.118730E-6	20.792224
2513.672385	-3.030100	3.067600	-9.292700	28.841804	-6.451975E-6	20.788055
2514.673341	-3.009900	3.066100	-9.227700	28.794069	-5.263888E-6	20.770789
2515.672790	-2.996100	3.064300	-9.180100	28.787625	-4.174807E-6	20.762876
2516.672318	-2.999900	3.064500	-9.192400	28.728817	-8.069094E-6	20.785193
2517.674732	-3.028900	3.061300	-9.271000	28.747102	-6.980014E-6	20.783696
2518.676925	-2.983800	3.063200	-9.138700	28.833834	-8.168102E-6	20.774336
2519.673530	-3.039100	3.060100	-9.298600	28.843352	-1.051127E-5	20.777286
2520.677206	-3.016900	3.060100	-9.231000	28.801736	-8.696141E-6	20.771399
2521.677181	-2.986700	3.059200	-9.136200	28.754640	-5.263888E-6	20.774220
2522.672333	-3.012100	3.056500	-9.205600	28.733928	-5.890934E-6	20.789867
2523.675789	-2.997100	3.056700	-9.160600	28.698501	-8.333114E-6	20.794011
2524.678932	-2.998700	3.055200	-9.161000	28.675483	-8.267109E-6	20.776991
2525.674802	-3.005800	3.053800	-9.178600	28.708362	-6.782000E-6	20.774546
2526.675684	-3.024300	3.053400	-9.233500	28.668404	-7.706068E-6	20.776499
2527.679405	-3.016000	3.051000	-9.201400	28.655895	-6.583985E-6	20.783815
2528.676028	-3.004100	3.049300	-9.159800	28.703368	-7.904082E-6	20.766671
2529.675511	-2.998900	3.047600	-9.139100	28.799598	-6.319965E-6	20.769720
2530.677900	-3.002000	3.047700	-9.147500	28.776777	-7.541055E-6	20.789881
2531.678841	-2.964500	3.047200	-9.032700	28.811390	-8.498126E-6	20.761684
2532.679635	-3.005400	3.044900	-9.150600	28.772119	-8.960160E-6	20.767170
2533.677187	-3.001300	3.043600	-9.134000	28.797966	-7.706068E-6	20.753851
2534.680719	-2.984200	3.042900	-9.080200	28.850164	-8.465124E-6	20.770398
2535.677563	-2.992700	3.041100	-9.100800	28.841092	-4.768851E-6	20.778329
2536.680161	-2.994500	3.040300	-9.103300	28.846025	-6.914009E-6	20.781876
2537.682115	-2.998300	3.039800	-9.113800	28.804207	-8.993162E-6	20.762035
2538.677989	-2.991800	3.037200	-9.086600	28.734670	-8.729143E-6	20.792037
2539.679050	-3.012900	3.035200	-9.143900	28.735814	-9.752218E-6	20.772800
2540.680120	-3.008300	3.034300	-9.126600	28.802533	-6.980014E-6	20.757504
2541.679101	-3.017000	3.032000	-9.146800	28.871326	-7.046019E-6	20.773699
2542.678561	-2.999600	3.032500	-9.095000	28.880098	-9.059167E-6	20.771630
2543.678853	-2.987900	3.031200	-9.055200	28.842144	-8.564131E-6	20.759948
2544.679574	-2.948700	3.030400	-8.934800	28.807888	-8.333114E-6	20.750570
2545.679939	-2.999800	3.027600	-9.080800	28.840335	-8.828150E-6	20.780885
2546.679867	-3.019400	3.027000	-9.139400	28.917604	-8.168102E-6	20.771008
2547.681984	-3.005600	3.025500	-9.092500	28.879456	-9.191177E-6	20.741585
2548.681816	-2.977200	3.024700	-9.003400	28.909254	-7.442048E-6	20.765916
2549.686205	-3.003400	3.021400	-9.073400	28.875342	-9.125172E-6	20.771581
2550.682465	-2.992000	3.022100	-9.040700	28.845097	-6.319965E-6	20.781415
2551.683766	-3.018800	3.020100	-9.116500	28.818763	-6.748997E-6	20.764370
2552.681502	-3.024100	3.017900	-9.124800	28.823073	-9.059167E-6	20.764918
2553.683327	-2.985800	3.017800	-9.009100	28.800235	-1.064328E-5	20.780794
2554.682369	-3.006100	3.016700	-9.067500	28.814869	-8.267109E-6	20.766611
2555.683269	-3.007600	3.014400	-9.065500	28.846809	-8.993162E-6	20.762751
2556.686502	-2.970100	3.014000	-8.950900	28.820866	-9.125172E-6	20.774549
2557.684420	-2.992100	3.011700	-9.011000	28.818861	-8.762145E-6	20.741708
2558.684271	-2.982700	3.010900	-8.979400	28.838556	-7.310038E-6	20.763446
2559.686081	-3.002000	3.009700	-9.033900	28.875074	-7.277036E-6	20.746654
2560.684987	-2.992400	3.009100	-9.004000	28.963904	-6.848004E-6	20.756488
2561.685938	-2.981700	3.007200	-8.965900	28.982374	-5.527907E-6	20.774149
2562.687514	-2.991600	3.005300	-8.989500	29.006034	-6.947012E-6	20.741086
2563.689402	-2.997100	3.004200	-9.002100	29.030310	-8.531128E-6	20.758434
2564.695403	-2.980900	3.003300	-8.952000	28.987111	-7.673065E-6	20.749049
2565.690710	-3.006500	3.000400	-9.020100	29.026740	-6.154953E-6	20.753889
2566.688086	-3.028400	2.999300	-9.081600	29.060769	-8.333114E-6	20.751192
2567.690233	-3.009900	2.998800	-9.025100	29.066740	-7.046019E-6	20.763847
2568.694180	-2.982200	2.997000	-8.936000	29.036818	-9.653211E-6	20.761199
2569.690853	-3.009400	2.996200	-9.015500	28.987979	-8.003089E-6	20.746604
2570.691442	-2.989200	2.995000	-8.951500	28.907672	-7.112024E-6	20.744880
2571.693198	-3.006900	2.993500	-9.000200	28.871058	-7.244034E-6	20.771532
2572.688918	-2.997700	2.991800	-8.967300	28.896571	-8.201104E-6	20.749344
2573.691225	-2.979600	2.990000	-8.908100	28.839174	-7.079021E-6	20.756956
2574.694957	-3.010100	2.989200	-8.997100	28.858918	-9.389192E-6	20.750767
2575.689046	-2.993100	2.988700	-8.943800	28.871821	-9.488199E-6	20.748119
2576.692095	-2.992700	2.986100	-8.935300	28.892935	-1.117132E-5	20.743784
2577.694993	-3.001100	2.984000	-8.954900	28.868063	-9.950233E-6	20.740539
2578.692484	-3.027400	2.982700	-9.029000	28.846436	-1.044527E-5	20.751469
2579.695309	-2.975600	2.982000	-8.872600	28.892830	-9.587206E-6	20.747472
2580.695963	-3.004200	2.978500	-8.946200	28.885306	-1.004924E-5	20.753643
2581.694660	-2.987900	2.979400	-8.901400	28.887684	-9.092170E-6	20.737072
2582.696524	-2.996800	2.976500	-8.918800	28.883344	-1.169936E-5	20.746450
2583.704626	-2.997600	2.976600	-8.921800	28.901553	-1.110532E-5	20.739190
2584.695048	-3.023000	2.973500	-8.988600	28.889267	-7.838077E-6	20.748624
2585.700449	-3.001100	2.972300	-8.918300	28.898014	-1.153435E-5	20.732779
2586.702430	-3.007200	2.971300	-8.934500	28.927592	-1.136934E-5	20.732231
2587.696599	-2.998800	2.970100	-8.905800	28.919469	-9.785221E-6	20.744911
2588.704248	-3.012500	2.969000	-8.943400	28.899004	-8.894155E-6	20.730458
2589.701765	-3.005100	2.967000	-8.915300	28.915007	-1.018125E-5	20.739467
2590.698274	-3.004900	2.964100	-8.905800	28.878149	-1.004924E-5	20.718930
2591.701607	-2.986300	2.963800	-8.850200	28.930716	-1.282144E-5	20.760984
2592.703509	-3.021700	2.961000	-8.945700	28.991054	-1.209539E-5	20.724097
2593.699701	-2.989000	2.962800	-8.854800	29.006664	-1.107232E-5	20.727496
2594.703002	-3.022500	2.958200	-8.939200	28.966826	-1.057728E-5	20.721498
2595.702501	-3.001300	2.958600	-8.878500	28.995223	-7.574058E-6	20.725452
2596.705114	-3.025900	2.956200	-8.944600	28.992539	-9.257182E-6	20.733180
2597.703578	-3.012200	2.954300	-8.898600	28.995742	-1.143534E-5	20.706534
2598.708436	-3.015100	2.952500	-8.901000	29.006682	-1.103931E-5	20.715660
2599.704475	-3.015100	2.951300	-8.897600	29.036758	-1.140234E-5	20.720359
2600.705360	-3.031400	2.949000	-8.938200	29.022909	-1.156735E-5	20.727268
2601.710412	-2.985000	2.949400	-8.802900	29.009836	-1.090730E-5	20.732589
2602.706589	-3.003800	2.947800	-8.853100	28.985657	-1.100631E-5	20.722927
2603.706705	-2.995700	2.945800	-8.823200	28.951308	-9.521201E-6	20.723408
2604.718596	-2.984100	2.944300	-8.785400	28.936572	-1.087430E-5	20.705241
2605.710196	-3.015300	2.943800	-8.876000	28.965825	-1.189738E-5	20.721437
2606.714675	-2.991400	2.942400	-8.800700	29.037657	-8.201104E-6	20.727429
2607.714343	-3.046900	2.936800	-8.946600	29.088481	-1.163336E-5	20.716049
2608.713220	-2.987700	2.938600	-8.778200	29.083897	-1.130333E-5	20.713327
2609.711478	-3.029300	2.936000	-8.892900	29.157524	-1.127033E-5	20.740103
2610.716301	-3.026900	2.933800	-8.879900	29.221864	-9.917231E-6	20.721487
2611.713937	-3.014100	2.931500	-8.835200	29.240043	-1.024725E-5	20.721314
2612.714852	-3.014300	2.930900	-8.834100	29.115425	-9.851226E-6	20.709533
2613.717987	-3.002700	2.929300	-8.794700	29.160023	-1.113832E-5	20.717015
2614.714748	-3.003100	2.927500	-8.791100	29.185561	-9.884228E-6	20.712877
2615.719790	-2.982100	2.927500	-8.729000	29.213095	-9.422194E-6	20.735410
2616.722382	-3.003400	2.923400	-8.778800	29.141347	-1.028026E-5	20.738501
2617.719069	-3.005000	2.921700	-8.779300	29.223269	-1.018125E-5	20.745663
2618.719882	-2.978300	2.920400	-8.697100	29.217825	-1.262343E-5	20.720261
2619.724043	-3.002900	2.919400	-8.765700	29.200384	-9.323187E-6	20.708849
2620.718638	-3.029000	2.916700	-8.833300	29.222279	-1.028026E-5	20.716689
2621.727757	-2.988200	2.916700	-8.714600	29.222059	-9.620209E-6	20.704613
2622.724631	-2.983200	2.914800	-8.694500	29.243354	-1.272244E-5	20.708055
2623.720443	-2.987900	2.911600	-8.697800	29.288717	-1.136934E-5	20.718684
2624.722204	-2.990000	2.910700	-8.702200	29.268468	-1.166636E-5	20.715347
2625.723773	-2.990100	2.908900	-8.697100	29.315144	-1.212839E-5	20.717342
2626.721232	-3.013100	2.907500	-8.759600	29.207107	-1.097331E-5	20.704718
2627.722116	-2.997500	2.906100	-8.709300	29.129022	-1.100631E-5	20.699526
2628.723732	-2.990300	2.904000	-8.683200	29.173351	-1.219440E-5	20.696779
2629.718802	-2.976100	2.902700	-8.637700	29.147300	-1.080830E-5	20.713204
2630.723163	-2.990700	2.900300	-8.672600	29.116097	-1.410854E-5	20.713531
2631.738541	-2.997200	2.897300	-8.683100	29.097770	-1.169936E-5	20.715926
2632.720854	-3.008500	2.895500	-8.710000	29.053988	-1.160035E-5	20.711166
2633.721165	-2.998800	2.895600	-8.681000	29.038856	-1.103931E-5	20.703031
2634.722983	-2.986800	2.892100	-8.636900	29.055058	-1.061028E-5	20.710822
2635.727812	-2.971000	2.892200	-8.591400	29.021249	-1.090730E-5	20.732234
2636.723332	-3.017000	2.887200	-8.710000	29.116850	-1.344849E-5	20.710021
2637.720924	-2.996700	2.888000	-8.653900	29.132660	-1.080830E-5	20.727376
2638.722901	-2.978700	2.885400	-8.593400	29.077751	-1.318447E-5	20.700021
2639.723244	-2.978400	2.884200	-8.589600	29.046100	-1.344849E-5	20.699898
2640.723458	-2.988500	2.880600	-8.607900	29.102876	-1.193038E-5	20.715855
2641.724511	-2.999400	2.880200	-8.638200	29.156128	-1.235941E-5	20.712142
2642.721977	-3.016600	2.875900	-8.673800	29.204764	-1.219440E-5	20.712788
2643.724268	-2.988100	2.875900	-8.593500	29.207043	-1.166636E-5	20.703231
2644.725776	-3.004000	2.874500	-8.634400	29.207325	-1.206239E-5	20.710154
2645.728375	-2.999600	2.870600	-8.609500	29.166860	-1.338249E-5	20.713947
2646.726150	-3.003700	2.870300	-8.620200	29.170875	-1.130333E-5	20.719890
2647.727264	-3.022000	2.867400	-8.664100	29.264752	-1.334948E-5	20.694056
2648.727500	-3.009600	2.868000	-8.630300	29.287220	-1.140234E-5	20.704846
2649.728137	-3.026100	2.864000	-8.665600	29.260537	-1.011525E-5	20.708302
2650.729110	-3.017400	2.862300	-8.636000	29.240947	-1.117132E-5	20.715113
2651.726976	-3.030900	2.860400	-8.668800	29.262224	-1.268943E-5	20.706209
2652.726656	-2.998800	2.858600	-8.571100	29.309426	-1.202939E-5	20.699250
2653.730573	-2.985300	2.856600	-8.526500	29.231642	-1.212839E-5	20.712847
2654.730147	-2.996500	2.855000	-8.554300	29.212779	-1.047827E-5	20.694311
2655.729965	-3.000400	2.852900	-8.558700	29.292593	-1.120433E-5	20.695562
2656.730449	-3.002300	2.850800	-8.557300	29.303592	-7.706068E-6	20.717079
2657.730483	-2.987400	2.850000	-8.513100	29.253023	-1.321747E-5	20.705945
2658.732189	-3.003300	2.846600	-8.548100	29.249241	-1.259043E-5	20.707350
2659.734941	-3.011200	2.843500	-8.561400	29.211277	-1.206239E-5	20.702755
2660.731417	-3.004600	2.841700	-8.537200	29.244366	-1.156735E-5	20.712868
2661.731633	-3.008100	2.840800	-8.544200	29.190128	-1.321747E-5	20.707048
2662.734283	-2.987800	2.838300	-8.479300	29.153854	-1.216140E-5	20.704634
2663.731960	-3.002300	2.835900	-8.513300	29.142188	-1.301946E-5	20.695249
2664.734815	-3.006500	2.832200	-8.513900	29.162624	-1.176537E-5	20.703514
2665.737755	-3.006200	2.830700	-8.508600	29.164115	-1.179837E-5	20.715449
2666.734179	-2.992900	2.829600	-8.467800	29.248509	-1.176537E-5	20.717992
2667.735810	-3.014500	2.826100	-8.518600	29.303288	-1.084130E-5	20.713928
2668.738400	-3.002900	2.824600	-8.481300	29.422929	-1.285445E-5	20.726879
2669.738358	-3.017600	2.821400	-8.512400	29.356848	-1.272244E-5	20.694887
2670.737023	-3.031300	2.817900	-8.541100	29.312722	-1.074229E-5	20.694511
2671.736280	-3.021100	2.815900	-8.506600	29.203145	-1.107232E-5	20.703570
2672.733721	-3.010200	2.813600	-8.468800	29.151937	-1.483459E-5	20.694167
2673.737836	-3.030100	2.810800	-8.516300	29.160658	-1.427355E-5	20.700584
2674.737226	-3.020700	2.808200	-8.482400	29.192159	-1.315147E-5	20.693921
2675.733585	-3.031500	2.807200	-8.508900	29.236485	-1.216140E-5	20.701606
2676.736851	-2.993300	2.804800	-8.394700	29.251712	-1.222740E-5	20.706520
2677.735094	-3.010400	2.801500	-8.432700	29.222021	-1.226040E-5	20.703626
2678.737453	-2.979500	2.800900	-8.343000	29.214444	-1.387752E-5	20.720173
2679.738311	-3.001600	2.796700	-8.393600	29.226922	-1.150135E-5	20.702400
2680.738668	-3.014000	2.792100	-8.414700	29.334865	-1.047827E-5	20.712562
2681.736341	-3.000100	2.792000	-8.375400	29.420633	-1.160035E-5	20.725512
2682.739873	-3.021300	2.788000	-8.422400	29.438393	-1.275544E-5	20.696945
2683.740305	-2.994000	2.786100	-8.340800	29.477974	-1.100631E-5	20.708867
2684.736868	-2.997400	2.782100	-8.338800	29.490797	-1.196338E-5	20.717999
2685.738397	-2.991000	2.780600	-8.316300	29.442857	-1.189738E-5	20.704290
2686.738966	-2.986600	2.776300	-8.290900	29.481560	-1.242542E-5	20.718646
2687.737444	-2.995300	2.775200	-8.310700	29.430309	-1.206239E-5	20.707290
2688.739688	-2.996900	2.771100	-8.303600	29.526393	-9.851226E-6	20.709784
2689.740042	-2.986100	2.768700	-8.265100	29.607197	-1.061028E-5	20.724385
2690.739148	-2.978800	2.765500	-8.236800	29.625840	-1.133634E-5	20.700503
2691.739842	-2.987600	2.761000	-8.247500	29.634605	-1.070929E-5	20.729257
2692.740320	-3.006000	2.757700	-8.288400	29.635515	-1.189738E-5	20.710258
2693.739945	-2.989900	2.757100	-8.242400	29.662445	-1.047827E-5	20.699949
2694.741004	-3.015900	2.752700	-8.300500	29.698140	-9.818223E-6	20.703219
2695.741187	-2.971100	2.750800	-8.171600	29.751697	-9.422194E-6	20.727820
2696.739943	-3.019500	2.745700	-8.289500	29.770337	-1.127033E-5	20.724803
2697.742094	-3.002100	2.743100	-8.233800	29.801253	-9.752218E-6	20.729896
2698.739991	-2.998800	2.738800	-8.211400	29.832564	-1.166636E-5	20.686074
2699.741693	-2.984400	2.737600	-8.169000	29.765781	-1.176537E-5	20.721631
2700.745378	-2.996700	2.732900	-8.188600	29.747538	-1.087430E-5	20.726946
2701.744156	-3.023300	2.729400	-8.249900	29.678551	-1.351450E-5	20.700539
2702.744718	-2.996800	2.726800	-8.171000	29.696593	-1.037926E-5	20.719679
2703.743692	-2.988400	2.722500	-8.134700	29.717262	-1.041227E-5	20.707799
2704.744554	-3.017900	2.719800	-8.207000	29.744514	-1.103931E-5	20.720578
2705.742712	-3.014300	2.713900	-8.179700	29.750450	-1.179837E-5	20.722770
2706.745225	-3.009600	2.710300	-8.156100	29.721018	-1.094031E-5	20.729131
2707.747463	-2.939600	2.709400	-7.963500	29.706787	-1.097331E-5	20.725214
2708.746076	-2.998200	2.703000	-8.103100	29.720133	-1.209539E-5	20.724445
2709.745082	-3.027700	2.698700	-8.170300	29.769157	-1.074229E-5	20.725035
2710.746896	-2.999500	2.696700	-8.087400	29.839152	-9.422194E-6	20.710736
2711.745766	-2.991700	2.692100	-8.053100	29.821997	-1.120433E-5	20.730424
2712.746977	-2.955100	2.688900	-7.944900	29.761999	-1.133634E-5	20.739155
2713.756557	-3.028100	2.681700	-8.119300	29.771216	-1.077529E-5	20.732327
2714.748345	-3.005200	2.678300	-8.048000	29.805691	-1.206239E-5	20.745277
2715.748278	-2.987100	2.676200	-7.992300	29.761351	-1.189738E-5	20.729967
2716.750561	-2.999800	2.671500	-8.013400	29.776082	-1.047827E-5	20.757149
2717.752687	-3.005700	2.666300	-8.011700	29.685812	-1.011525E-5	20.731569
2718.750954	-3.001700	2.662800	-7.992300	29.660537	-1.044527E-5	20.723156
2719.755635	-2.998900	2.656800	-7.966400	29.753258	-9.983235E-6	20.742671
2720.751654	-3.004900	2.652000	-7.967600	29.735266	-1.169936E-5	20.730220
2721.751518	-3.021900	2.646900	-7.998000	29.769896	-1.047827E-5	20.730996
2722.752963	-2.985600	2.644000	-7.893300	29.870156	-1.288745E-5	20.725404
2723.751435	-3.018600	2.638100	-7.961800	29.881904	-1.156735E-5	20.714491
2724.754029	-3.008200	2.632300	-7.917200	29.941377	-1.275544E-5	20.721832
2725.753336	-3.021900	2.629000	-7.943200	29.981893	-1.189738E-5	20.721439
2726.753353	-2.993900	2.623600	-7.854100	30.016385	-1.061028E-5	20.736785
2727.753382	-3.006900	2.619100	-7.874700	30.038183	-1.051127E-5	20.742173
2728.757226	-2.982300	2.614600	-7.796600	29.998422	-8.828150E-6	20.719142
2729.759684	-2.999700	2.608300	-7.823300	29.991045	-1.202939E-5	20.742050
2730.753848	-3.011600	2.602200	-7.834400	29.993445	-1.087430E-5	20.733564
2731.755372	-3.005900	2.597600	-7.806700	29.979357	-1.179837E-5	20.736901
2732.755245	-2.995800	2.590800	-7.760800	29.986814	-1.014825E-5	20.755327
2733.754359	-3.028800	2.585900	-7.831500	29.992034	-9.719216E-6	20.753479
2734.755891	-3.028200	2.579500	-7.810800	29.956423	-1.064328E-5	20.731316
2735.756811	-2.981400	2.574500	-7.674200	29.867773	-1.133634E-5	20.737227
2736.757393	-2.987500	2.568700	-7.673100	29.855028	-1.189738E-5	20.737178
2737.759837	-2.992400	2.563600	-7.669300	29.883235	-1.047827E-5	20.737645
2738.756731	-2.968100	2.557000	-7.588400	29.835693	-1.202939E-5	20.743761
2739.757982	-2.982200	2.549800	-7.602700	29.799515	-1.014825E-5	20.763707
2740.758913	-3.003100	2.544300	-7.639700	29.824811	-1.021425E-5	20.745116
2741.757061	-3.017100	2.538100	-7.656800	29.941182	-1.014825E-5	20.724006
2742.759648	-2.998200	2.531600	-7.589500	30.021404	-1.097331E-5	20.748959
2743.757737	-2.993500	2.525900	-7.560200	29.972214	-1.051127E-5	20.750086
2744.756322	-2.989500	2.519500	-7.531400	29.917390	-1.034626E-5	20.733680
2745.757830	-3.033100	2.512600	-7.620400	29.849563	-1.097331E-5	20.739254
2746.760041	-3.014000	2.506900	-7.555000	29.818423	-1.325048E-5	20.767125
2747.757378	-3.009800	2.500800	-7.526000	29.876885	-1.070929E-5	20.742622
2748.758520	-3.019100	2.494200	-7.529200	29.959714	-8.234107E-6	20.729893
