LabVIEW Measurement	
Writer_Version	2
Reader_Version	2
Separator	Tab
Decimal_Separator	.
Multi_Headings	No
X_Columns	One
Time_Pref	Absolute
Operator	admin
Description	Clolumns are: time, Current, Voltage, Power, Battery Temp, and Chamber Temp
Date	2024/08/16
Time	13:07:17.8513970375061035156
***End_of_Header***	
	
Channels	6						
Samples	1	1	1	1	1	1	
Date	2024/09/11	2024/09/11	2024/09/11	2024/09/11	2024/09/11	2024/09/11	
Time	20:41:37.6243510246276855469	20:41:37.6304183006286621094	20:41:37.6353592872619628906	20:41:37.6032509803771972656	20:41:37.6032509803771972656	20:41:37.6032509803771972656	
X_Dimension	Time	Time	Time	Time	Time	Time	
X0	0.0000000000000000E+0	0.0000000000000000E+0	0.0000000000000000E+0	0.0000000000000000E+0	0.0000000000000000E+0	0.0000000000000000E+0	
Delta_X	1.000000	1.000000	1.000000	1.000000	1.000000	1.000000	
***End_of_Header***							
X_Value	Untitled	Untitled 1	Untitled 2	Untitled 3	Untitled 4	Untitled 5	Comment
0.000000	0.012095	4.089500	0.049466	20.779102	0.000465	20.769619
1.009943	-3.010600	3.919100	-11.798000	20.780149	0.000462	20.768769
1.996241	-3.008600	3.912800	-11.771000	20.778780	0.000464	20.782574
3.008728	-3.017400	3.909400	-11.796000	20.804302	0.000461	20.779646
3.997926	-3.028500	3.903800	-11.822000	20.816185	0.000462	20.769718
4.998754	-3.033600	3.901100	-11.833000	20.782669	0.000459	20.774608
6.010030	-3.041400	3.898300	-11.855000	20.805976	0.000460	20.758086
7.001958	-2.987700	3.898100	-11.646000	20.805778	0.000460	20.774010
8.010277	-2.988500	3.896600	-11.644000	20.821623	0.000460	20.756190
9.005342	-2.981100	3.893900	-11.607000	20.820180	0.000458	20.765178
9.999975	-2.991400	3.891900	-11.641000	20.834730	0.000458	20.784944
10.999245	-2.977100	3.891800	-11.584000	20.832009	0.000456	20.772266
11.999207	-3.013500	3.887800	-11.715000	20.861430	0.000456	20.768023
12.998711	-3.007500	3.888800	-11.694000	20.838721	0.000457	20.784194
13.999626	-3.022200	3.887200	-11.747000	20.846707	0.000456	20.777956
15.002725	-3.012900	3.886300	-11.708000	20.868744	0.000455	20.770596
16.001179	-2.976000	3.885100	-11.561000	20.859884	0.000456	20.771218
17.002554	-2.985100	3.884000	-11.593000	20.872438	0.000454	20.765281
18.009306	-3.001000	3.883000	-11.652000	20.892351	0.000455	20.769549
19.001839	-3.006900	3.881300	-11.670000	20.893047	0.000454	20.764081
20.004121	-3.001500	3.881300	-11.649000	20.909217	0.000456	20.775511
21.001681	-2.991600	3.880200	-11.606000	20.905725	0.000453	20.781976
22.007017	-3.007800	3.880300	-11.670000	20.927084	0.000451	20.764931
23.003383	-3.025200	3.878300	-11.732000	20.932069	0.000452	20.764226
24.003059	-2.990300	3.879400	-11.600000	20.958651	0.000452	20.773742
25.002113	-3.004200	3.877300	-11.647000	20.930428	0.000451	20.765904
26.007023	-3.001400	3.877600	-11.637000	20.961438	0.000449	20.759459
27.004802	-2.994800	3.876000	-11.607000	20.954751	0.000448	20.777902
28.003292	-3.025400	3.875100	-11.723000	20.967477	0.000450	20.769293
29.007994	-3.008700	3.874600	-11.656000	20.983196	0.000448	20.759884
30.006689	-3.026800	3.873600	-11.723000	20.992150	0.000448	20.760305
31.007629	-2.997900	3.875300	-11.617000	20.975858	0.000450	20.767718
32.004731	-3.024400	3.874000	-11.715000	21.010342	0.000447	20.739618
33.005768	-3.004900	3.873400	-11.638000	20.995893	0.000447	20.770687
34.017220	-3.001000	3.873400	-11.623000	21.008738	0.000447	20.762671
35.016372	-3.003400	3.873300	-11.633000	21.038682	0.000447	20.761327
36.021584	-3.007500	3.872500	-11.646000	21.050332	0.000446	20.765393
37.008383	-3.020000	3.871700	-11.692000	21.047933	0.000447	20.760148
38.010894	-3.017200	3.871600	-11.681000	21.048106	0.000449	20.747519
39.009972	-3.021000	3.870600	-11.693000	21.061956	0.000446	20.762795
40.006423	-3.014000	3.870500	-11.665000	21.074079	0.000446	20.751213
41.010498	-3.012400	3.869300	-11.654000	21.094661	0.000445	20.776068
42.010076	-3.006900	3.868200	-11.631000	21.110873	0.000448	20.746764
43.017079	-2.993900	3.871000	-11.588000	21.114368	0.000445	20.757847
44.009566	-3.044800	3.868800	-11.778000	21.121157	0.000446	20.762742
45.011884	-2.999200	3.869600	-11.604000	21.118857	0.000445	20.759967
46.008769	-2.977900	3.869800	-11.523000	21.129632	0.000446	20.756994
47.012358	-3.019500	3.868500	-11.681000	21.155228	0.000444	20.751304
48.016265	-3.015900	3.867100	-11.662000	21.143205	0.000444	20.735483
49.011827	-3.000700	3.868000	-11.605000	21.162611	0.000445	20.754421
50.012651	-3.013300	3.868400	-11.656000	21.172268	0.000443	20.770720
51.023495	-3.006200	3.868200	-11.627000	21.193919	0.000444	20.765826
52.014309	-2.990200	3.867200	-11.563000	21.195164	0.000443	20.763752
53.017618	-2.999800	3.866000	-11.596000	21.202076	0.000442	20.749329
54.012527	-3.031300	3.866200	-11.718000	21.219436	0.000445	20.748203
55.024013	-2.983300	3.866900	-11.535000	21.209256	0.000444	20.749873
56.012550	-3.014500	3.864300	-11.648000	21.215916	0.000444	20.759382
57.017092	-2.978000	3.866100	-11.512000	21.216259	0.000444	20.747396
58.016509	-2.991600	3.865800	-11.564000	21.242331	0.000445	20.762573
59.013823	-3.007300	3.866400	-11.625000	21.247244	0.000443	20.768910
60.014061	-3.004200	3.866000	-11.612000	21.261488	0.000443	20.766564
61.013803	-3.008600	3.866100	-11.630000	21.260112	0.000444	20.770877
62.015766	-3.009800	3.865400	-11.633000	21.282561	0.000444	20.743549
63.015553	-2.991600	3.865200	-11.562000	21.282260	0.000444	20.763163
64.013560	-3.008300	3.864400	-11.624000	21.297052	0.000443	20.758520
65.020882	-3.001500	3.863200	-11.595000	21.321622	0.000443	20.757498
66.016630	-2.991300	3.864800	-11.559000	21.321495	0.000444	20.752154
67.024118	-2.995200	3.864200	-11.574000	21.301861	0.000444	20.738675
68.020668	-2.976600	3.864700	-11.503000	21.322591	0.000443	20.757518
69.017408	-2.978900	3.864500	-11.509000	21.321742	0.000442	20.782748
70.023531	-2.995600	3.863500	-11.572000	21.343094	0.000444	20.759539
71.017664	-3.005500	3.863600	-11.611000	21.360873	0.000442	20.755515
72.017078	-2.999500	3.861800	-11.583000	21.352643	0.000444	20.757712
73.017527	-2.990800	3.862100	-11.549000	21.390804	0.000442	20.756537
74.020534	-3.005900	3.862500	-11.609000	21.390902	0.000444	20.746679
75.018732	-2.997700	3.862200	-11.577000	21.384095	0.000442	20.756937
76.022882	-2.993400	3.862800	-11.562000	21.393474	0.000443	20.758261
77.019748	-2.998300	3.862800	-11.580000	21.397690	0.000443	20.762005
78.019739	-3.010100	3.860600	-11.620000	21.428444	0.000442	20.753420
79.021239	-3.002100	3.862400	-11.594000	21.426223	0.000445	20.759733
80.023383	-3.008400	3.862000	-11.618000	21.434934	0.000443	20.753276
81.019464	-2.992200	3.862200	-11.555000	21.428547	0.000444	20.751152
82.020743	-3.000200	3.862200	-11.586000	21.455109	0.000445	20.772040
83.022964	-3.000900	3.861200	-11.586000	21.476961	0.000442	20.748385
84.021347	-3.007200	3.860900	-11.609000	21.472194	0.000444	20.741718
85.022651	-3.019700	3.860000	-11.655000	21.472845	0.000444	20.776036
86.021813	-3.019600	3.859600	-11.653000	21.505088	0.000446	20.754245
87.023360	-3.011500	3.859200	-11.621000	21.501528	0.000444	20.744044
88.027921	-3.008100	3.860200	-11.611000	21.522897	0.000445	20.780126
89.023666	-3.020600	3.858400	-11.654000	21.484069	0.000444	20.759766
90.028997	-3.011200	3.859600	-11.621000	21.535143	0.000446	20.766775
91.024535	-3.005100	3.859800	-11.598000	21.545222	0.000446	20.774489
92.024451	-2.998300	3.859200	-11.571000	21.541307	0.000445	20.750183
93.024923	-2.990800	3.858300	-11.537000	21.554999	0.000445	20.763410
94.024809	-2.993400	3.859300	-11.551000	21.580109	0.000446	20.770519
95.033223	-2.978900	3.859300	-11.495000	21.587492	0.000445	20.751828
96.030262	-2.994700	3.858400	-11.554000	21.572927	0.000447	20.758590
97.025866	-2.997900	3.857500	-11.563000	21.585049	0.000447	20.757444
98.026705	-2.975400	3.859500	-11.482000	21.602877	0.000445	20.771966
99.028728	-2.999000	3.858100	-11.570000	21.612626	0.000447	20.763703
100.033623	-3.001100	3.858700	-11.579000	21.613202	0.000449	20.790834
101.029126	-2.988300	3.857900	-11.528000	21.620157	0.000447	20.772663
102.028563	-2.981700	3.858000	-11.502000	21.630705	0.000448	20.782744
103.027632	-2.998200	3.856900	-11.563000	21.639106	0.000446	20.766969
104.033444	-3.002100	3.857300	-11.579000	21.639856	0.000448	20.766771
105.030074	-2.993200	3.857000	-11.543000	21.645442	0.000451	20.759085
106.031291	-3.005000	3.856400	-11.587000	21.661078	0.000447	20.760982
107.029711	-3.012700	3.857300	-11.620000	21.691524	0.000449	20.772960
108.031469	-3.018900	3.855800	-11.639000	21.713248	0.000449	20.759613
109.032072	-2.989500	3.856400	-11.526000	21.703249	0.000448	20.787539
110.029995	-3.005200	3.855600	-11.586000	21.699187	0.000448	20.775887
111.039484	-2.996500	3.857400	-11.558000	21.696093	0.000447	20.757617
112.030096	-3.007800	3.855600	-11.596000	21.713075	0.000448	20.762759
113.033260	-3.002600	3.855800	-11.576000	21.706195	0.000448	20.767727
114.031184	-3.003800	3.855400	-11.580000	21.730810	0.000449	20.762965
115.032301	-3.019600	3.855200	-11.640000	21.749736	0.000450	20.778588
116.031461	-3.008000	3.855400	-11.595000	21.775397	0.000451	20.784830
117.034545	-3.006900	3.855200	-11.591000	21.758239	0.000448	20.770976
118.031221	-2.991700	3.855600	-11.533000	21.787245	0.000449	20.781515
119.032772	-2.997800	3.856000	-11.558000	21.766697	0.000450	20.775648
120.032629	-3.033700	3.853700	-11.690000	21.788320	0.000450	20.782591
121.032739	-2.993400	3.855000	-11.539000	21.787154	0.000451	20.773363
122.034859	-3.030100	3.853000	-11.673000	21.812633	0.000449	20.770415
123.031513	-2.991900	3.852800	-11.526000	21.807748	0.000452	20.754145
124.033759	-3.024800	3.854300	-11.657000	21.815080	0.000451	20.778554
125.043475	-3.011700	3.853400	-11.603000	21.811294	0.000452	20.782826
126.032224	-2.989000	3.853700	-11.518000	21.846050	0.000452	20.786792
127.033986	-3.001700	3.854800	-11.570000	21.864854	0.000452	20.769104
128.031949	-3.003600	3.853300	-11.573000	21.835908	0.000451	20.774744
129.032606	-2.997200	3.854000	-11.550000	21.863408	0.000453	20.780933
130.032413	-2.993600	3.853400	-11.535000	21.876874	0.000454	20.783980
131.031122	-2.995100	3.853200	-11.540000	21.883353	0.000451	20.784776
132.032066	-2.998100	3.852500	-11.550000	21.895649	0.000453	20.767211
133.035192	-2.992500	3.852500	-11.528000	21.883506	0.000454	20.792041
134.032523	-3.004600	3.852100	-11.573000	21.912801	0.000453	20.770155
135.033393	-2.995000	3.852600	-11.538000	21.916916	0.000453	20.792766
136.035981	-3.003300	3.851500	-11.565000	21.929953	0.000452	20.797755
137.034964	-2.989900	3.852400	-11.517000	21.920582	0.000455	20.754709
138.036007	-3.005500	3.851300	-11.575000	21.945634	0.000453	20.785477
139.034571	-3.013300	3.850500	-11.601000	21.935736	0.000455	20.797380
140.033940	-2.998800	3.851900	-11.550000	21.946927	0.000454	20.785823
141.034947	-3.016600	3.851200	-11.616000	21.966076	0.000454	20.782232
142.036583	-3.017100	3.850500	-11.615000	21.969767	0.000454	20.782133
143.044222	-3.004800	3.851000	-11.570000	21.983977	0.000456	20.786874
144.037744	-3.018200	3.849300	-11.618000	21.997536	0.000457	20.793809
145.037563	-2.993100	3.851300	-11.527000	21.992276	0.000456	20.798502
146.036855	-2.977800	3.849600	-11.462000	22.002997	0.000457	20.803544
147.044565	-3.002200	3.850700	-11.559000	22.022042	0.000458	20.797005
148.046350	-3.003300	3.849600	-11.560000	22.023961	0.000457	20.784227
149.040165	-3.027200	3.849100	-11.651000	22.017582	0.000457	20.792065
150.038599	-3.016500	3.847800	-11.606000	22.050638	0.000457	20.801449
151.039015	-2.998500	3.848900	-11.540000	22.081201	0.000459	20.803123
152.041978	-2.988400	3.849500	-11.503000	22.069233	0.000458	20.794461
153.040210	-2.972900	3.850000	-11.444000	22.080077	0.000459	20.810058
154.043874	-2.987600	3.848500	-11.497000	22.080728	0.000458	20.790795
155.042399	-2.984500	3.849600	-11.488000	22.070658	0.000458	20.790672
156.040922	-3.014200	3.847600	-11.597000	22.092045	0.000460	20.790746
157.041807	-2.991400	3.848100	-11.510000	22.109347	0.000457	20.794791
158.041776	-2.996400	3.848600	-11.530000	22.123011	0.000458	20.803729
159.041381	-2.989700	3.848200	-11.503000	22.132455	0.000460	20.796588
160.046814	-2.999100	3.847300	-11.536000	22.136445	0.000459	20.808644
161.042146	-2.986600	3.848300	-11.493000	22.154475	0.000460	20.806306
162.043060	-3.000200	3.847300	-11.542000	22.139064	0.000460	20.812214
163.043994	-2.995700	3.848000	-11.527000	22.159832	0.000462	20.800765
164.043129	-3.011500	3.845400	-11.580000	22.159087	0.000462	20.796699
165.045746	-2.993000	3.847800	-11.516000	22.149520	0.000458	20.792811
166.043070	-2.990200	3.847700	-11.504000	22.181350	0.000460	20.814721
167.042941	-3.000500	3.847200	-11.542000	22.177437	0.000461	20.800847
168.046402	-3.010000	3.846100	-11.576000	22.191501	0.000463	20.808763
169.045669	-2.990100	3.846500	-11.501000	22.187613	0.000462	20.791121
170.046212	-3.000300	3.845800	-11.538000	22.172187	0.000461	20.825461
171.046452	-3.009800	3.846500	-11.576000	22.196216	0.000465	20.810165
172.044507	-2.996000	3.846300	-11.523000	22.195021	0.000464	20.805176
173.050080	-3.009500	3.845800	-11.573000	22.193028	0.000465	20.817405
174.048516	-2.995600	3.845100	-11.518000	22.212095	0.000465	20.794769
175.045106	-3.009300	3.844500	-11.569000	22.212074	0.000466	20.790481
176.047166	-3.004700	3.844700	-11.551000	22.213470	0.000464	20.807052
177.049203	-3.033100	3.843400	-11.655000	22.245524	0.000466	20.798843
178.046340	-2.992400	3.846100	-11.508000	22.237700	0.000464	20.814717
179.051555	-2.984400	3.845500	-11.475000	22.245005	0.000467	20.814919
180.046974	-2.974500	3.844500	-11.435000	22.255996	0.000468	20.815966
181.052121	-2.979300	3.843600	-11.450000	22.251165	0.000465	20.813026
182.048868	-2.964000	3.845800	-11.398000	22.273719	0.000467	20.805737
183.046613	-2.991300	3.843300	-11.495000	22.290494	0.000468	20.787447
184.049822	-3.001000	3.843700	-11.534000	22.331267	0.000468	20.815945
185.049758	-3.003800	3.842900	-11.542000	22.308192	0.000468	20.819392
186.048343	-2.997600	3.843200	-11.519000	22.337666	0.000470	20.819033
187.052743	-2.992800	3.842500	-11.499000	22.347569	0.000469	20.828475
188.049768	-3.006700	3.841900	-11.550000	22.357389	0.000468	20.821239
189.051590	-3.004400	3.842300	-11.543000	22.342784	0.000470	20.808511
190.052747	-3.012000	3.841200	-11.569000	22.350681	0.000470	20.819264
191.053183	-3.020600	3.840700	-11.600000	22.361527	0.000470	20.819219
192.054824	-3.017600	3.841700	-11.592000	22.374983	0.000468	20.832693
193.051665	-3.015100	3.841500	-11.582000	22.367555	0.000470	20.791116
194.051027	-3.002900	3.841700	-11.536000	22.383053	0.000470	20.813748
195.051461	-3.004100	3.841100	-11.538000	22.402495	0.000473	20.810932
196.052015	-3.009600	3.841700	-11.561000	22.378820	0.000472	20.828949
197.055259	-2.975700	3.841400	-11.430000	22.379191	0.000474	20.809406
198.054753	-2.999500	3.839800	-11.517000	22.403137	0.000471	20.834808
199.053344	-3.011500	3.839000	-11.560000	22.410787	0.000471	20.806433
200.054620	-2.979900	3.840200	-11.443000	22.418684	0.000472	20.836152
201.056366	-3.006300	3.840800	-11.546000	22.425868	0.000470	20.822010
202.054440	-2.990300	3.840600	-11.483000	22.418886	0.000471	20.819285
203.057146	-3.003100	3.839200	-11.528000	22.437355	0.000473	20.833039
204.053535	-3.003700	3.840100	-11.533000	22.461750	0.000474	20.830442
205.053368	-2.984800	3.840300	-11.462000	22.462672	0.000473	20.831365
206.054949	-3.020400	3.838200	-11.592000	22.463820	0.000474	20.824929
207.054290	-2.993100	3.839500	-11.492000	22.493076	0.000472	20.841425
208.056192	-2.998300	3.839700	-11.512000	22.520635	0.000476	20.847214
209.056848	-3.022500	3.838200	-11.598000	22.524122	0.000477	20.826999
210.062859	-2.993100	3.837900	-11.486000	22.529008	0.000474	20.829048
211.058434	-2.999200	3.839300	-11.513000	22.518272	0.000474	20.837735
212.056383	-3.018800	3.837600	-11.583000	22.520470	0.000475	20.831402
213.058642	-3.015300	3.837700	-11.571000	22.530387	0.000476	20.841334
214.061143	-2.989900	3.839000	-11.477000	22.543845	0.000477	20.840114
215.058403	-3.004800	3.837200	-11.530000	22.562436	0.000476	20.841664
216.058833	-2.997900	3.836200	-11.500000	22.577038	0.000475	20.846805
217.059198	-2.986100	3.837200	-11.457000	22.560094	0.000479	20.845482
218.057365	-2.976400	3.838000	-11.423000	22.557752	0.000478	20.831757
219.062416	-2.996600	3.836900	-11.496000	22.563462	0.000480	20.818035
220.064650	-3.004500	3.836300	-11.525000	22.587182	0.000479	20.848904
221.059223	-3.023400	3.835000	-11.594000	22.623737	0.000478	20.825300
222.059360	-3.008300	3.835600	-11.537000	22.621045	0.000477	20.811224
223.058938	-3.014700	3.835100	-11.561000	22.623412	0.000479	20.843940
224.063146	-2.998700	3.834700	-11.497000	22.607217	0.000480	20.856168
225.062761	-3.012000	3.835300	-11.550000	22.629471	0.000481	20.843371
226.061793	-3.000900	3.836200	-11.511000	22.617089	0.000480	20.846142
227.061667	-2.993600	3.834900	-11.479000	22.623342	0.000481	20.841025
228.065139	-3.000200	3.835000	-11.505000	22.646587	0.000480	20.865255
229.061431	-2.998700	3.835100	-11.498000	22.669211	0.000480	20.853303
230.068162	-2.993800	3.834300	-11.477000	22.661069	0.000483	20.857949
231.066327	-2.993300	3.834200	-11.475000	22.713959	0.000483	20.858770
232.063501	-2.994600	3.835200	-11.484000	22.713312	0.000482	20.855752
233.067866	-3.009600	3.833000	-11.535000	22.732946	0.000483	20.846970
234.065779	-3.005600	3.833400	-11.521000	22.730551	0.000482	20.847415
235.067118	-3.003900	3.834000	-11.517000	22.707109	0.000484	20.854280
236.065169	-3.015200	3.833600	-11.558000	22.696794	0.000484	20.862913
237.065609	-2.997700	3.832200	-11.487000	22.725768	0.000484	20.858271
238.065739	-2.979200	3.832700	-11.417000	22.730501	0.000485	20.848314
239.072659	-3.015900	3.832400	-11.557000	22.754914	0.000484	20.852854
240.067710	-3.004200	3.831900	-11.511000	22.729131	0.000485	20.842200
241.069323	-3.003500	3.831800	-11.507000	22.735700	0.000485	20.854944
242.066641	-2.999000	3.831500	-11.490000	22.738466	0.000485	20.873361
243.069970	-2.997200	3.832000	-11.485000	22.745611	0.000485	20.850648
244.067403	-2.988700	3.832500	-11.453000	22.749472	0.000487	20.862101
245.070824	-3.010200	3.831000	-11.532000	22.765344	0.000486	20.862353
246.071723	-3.007000	3.830700	-11.517000	22.761676	0.000489	20.854886
247.067191	-3.017000	3.830300	-11.555000	22.778593	0.000486	20.883210
248.066391	-3.019000	3.830300	-11.563000	22.786915	0.000487	20.864995
249.072371	-2.998300	3.830200	-11.484000	22.807042	0.000488	20.892742
250.067015	-2.990900	3.830400	-11.455000	22.818225	0.000488	20.865540
251.073531	-2.999900	3.830900	-11.491000	22.838227	0.000490	20.884628
252.068083	-2.999500	3.829300	-11.485000	22.867193	0.000489	20.883775
253.069794	-3.007900	3.830200	-11.520000	22.859748	0.000491	20.878687
254.066247	-3.003100	3.829100	-11.498000	22.865530	0.000490	20.876420
255.066983	-3.020600	3.829100	-11.566000	22.863831	0.000490	20.878984
256.075460	-3.010400	3.829600	-11.527000	22.870062	0.000491	20.872425
257.068753	-3.001300	3.830000	-11.494000	22.876988	0.000490	20.870829
258.067938	-3.025100	3.828700	-11.582000	22.912785	0.000489	20.872078
259.068043	-3.012800	3.828900	-11.535000	22.914723	0.000491	20.897252
260.067203	-2.999800	3.827800	-11.481000	22.904587	0.000490	20.890417
261.070138	-2.985600	3.828700	-11.430000	22.881849	0.000491	20.883758
262.071297	-2.988600	3.828500	-11.441000	22.875618	0.000493	20.886999
263.068319	-3.001200	3.828700	-11.489000	22.889117	0.000491	20.887720
264.069253	-2.980800	3.828400	-11.411000	22.913554	0.000494	20.877117
265.070803	-3.008000	3.826600	-11.509000	22.936049	0.000494	20.877842
266.070497	-3.002300	3.826700	-11.488000	22.943646	0.000493	20.900150
267.072501	-2.995900	3.827500	-11.465000	22.943428	0.000494	20.889027
268.069171	-3.011700	3.827200	-11.526000	22.951473	0.000495	20.904673
269.069226	-3.003300	3.825100	-11.487000	22.968584	0.000493	20.884834
270.070864	-3.006500	3.826800	-11.505000	22.975165	0.000495	20.891901
271.071851	-3.003000	3.826300	-11.490000	22.983584	0.000494	20.899862
272.071610	-2.977300	3.827600	-11.396000	22.967494	0.000495	20.888009
273.071005	-2.999500	3.826000	-11.475000	22.983564	0.000495	20.892255
274.070656	-3.006600	3.825700	-11.502000	23.003321	0.000496	20.903988
275.071843	-2.986900	3.826500	-11.428000	23.021283	0.000493	20.893537
276.073030	-3.000900	3.823900	-11.475000	23.032068	0.000494	20.916196
277.071956	-2.974300	3.825900	-11.378000	22.999493	0.000496	20.906792
278.072457	-2.993700	3.824600	-11.449000	23.009238	0.000497	20.889530
279.076319	-2.991600	3.824600	-11.441000	23.012748	0.000497	20.902529
280.071655	-2.973900	3.824300	-11.373000	22.996987	0.000498	20.880575
281.074840	-3.003800	3.824000	-11.485000	23.014896	0.000496	20.895673
282.072027	-2.987400	3.824700	-11.424000	23.030591	0.000496	20.900492
283.077729	-2.985300	3.823700	-11.414000	23.042948	0.000498	20.894383
284.077634	-3.006900	3.823400	-11.495000	23.039986	0.000498	20.881932
285.079338	-2.995300	3.822900	-11.449000	23.063000	0.000497	20.899775
286.074014	-2.984200	3.822600	-11.406000	23.039019	0.000498	20.880963
287.072737	-2.988500	3.821800	-11.421000	23.054861	0.000500	20.899206
288.072171	-3.012300	3.821700	-11.511000	23.048211	0.000498	20.888751
289.079064	-2.995100	3.822700	-11.448000	23.040097	0.000497	20.912861
290.078273	-3.020100	3.821800	-11.541000	23.061066	0.000499	20.891674
291.072171	-3.007500	3.822000	-11.494000	23.097079	0.000500	20.885086
292.074317	-3.014600	3.820200	-11.516000	23.094713	0.000501	20.881767
293.073947	-3.018100	3.820300	-11.530000	23.089689	0.000500	20.876733
294.080977	-3.011500	3.820100	-11.503000	23.107691	0.000501	20.888607
295.086142	-3.005100	3.821000	-11.481000	23.105626	0.000501	20.905976
296.073343	-3.002400	3.821500	-11.473000	23.123553	0.000501	20.880794
297.077394	-3.002000	3.820400	-11.468000	23.149879	0.000502	20.899111
298.079383	-2.982000	3.820700	-11.392000	23.156429	0.000502	20.899985
299.081105	-2.993700	3.819700	-11.434000	23.171772	0.000501	20.896395
300.080218	-2.973700	3.819800	-11.358000	23.173512	0.000504	20.880596
301.080340	-2.978800	3.820200	-11.379000	23.173936	0.000503	20.892400
302.079361	-3.000400	3.819200	-11.457000	23.179914	0.000505	20.904079
303.078468	-2.991000	3.819400	-11.423000	23.184449	0.000503	20.877805
304.086403	-2.977200	3.819500	-11.370000	23.177800	0.000504	20.882522
305.082076	-2.992200	3.818000	-11.424000	23.199047	0.000507	20.881528
306.085797	-2.998100	3.818100	-11.447000	23.198816	0.000505	20.868022
307.083942	-3.011500	3.816800	-11.493000	23.217771	0.000504	20.878955
308.080080	-2.986700	3.818600	-11.404000	23.200565	0.000504	20.867877
309.079205	-2.992200	3.818500	-11.424000	23.203630	0.000505	20.877113
310.082458	-2.997800	3.817900	-11.444000	23.215335	0.000505	20.860869
311.089263	-3.018000	3.815600	-11.514000	23.211805	0.000504	20.856857
312.079750	-2.999800	3.817000	-11.449000	23.209390	0.000504	20.892367
313.081378	-3.017400	3.816500	-11.515000	23.213274	0.000506	20.877768
314.081737	-3.005500	3.816800	-11.471000	23.239647	0.000508	20.855361
315.082774	-2.997900	3.816800	-11.441000	23.234944	0.000507	20.882415
316.093782	-2.970500	3.817000	-11.337000	23.235319	0.000507	20.879471
317.089357	-3.000300	3.817500	-11.453000	23.219660	0.000507	20.877529
318.083510	-3.002600	3.815900	-11.457000	23.263883	0.000508	20.869692
319.088870	-3.014000	3.815600	-11.500000	23.284561	0.000508	20.873819
320.080736	-2.981700	3.816500	-11.379000	23.291806	0.000509	20.854054
321.085953	-3.013500	3.815200	-11.496000	23.300622	0.000509	20.865734
322.083356	-3.022300	3.814700	-11.527000	23.306476	0.000508	20.867808
323.082675	-2.995400	3.814700	-11.426000	23.320176	0.000509	20.868261
324.083298	-2.982500	3.814500	-11.376000	23.332279	0.000511	20.865219
325.084342	-3.007600	3.814000	-11.470000	23.318958	0.000511	20.846179
326.083881	-3.025800	3.813700	-11.538000	23.304963	0.000513	20.862024
327.083951	-3.024400	3.812900	-11.531000	23.314799	0.000511	20.851968
328.083550	-2.999400	3.814100	-11.439000	23.331683	0.000512	20.855138
329.089534	-3.014300	3.811800	-11.489000	23.332802	0.000512	20.849148
330.083835	-3.020400	3.812500	-11.514000	23.360447	0.000512	20.859311
331.084555	-3.015500	3.813200	-11.498000	23.338907	0.000511	20.841991
332.087245	-3.001700	3.813800	-11.447000	23.323467	0.000513	20.867767
333.087258	-3.009500	3.811200	-11.469000	23.341272	0.000513	20.859059
334.086186	-2.999400	3.812200	-11.434000	23.328622	0.000513	20.853493
335.087558	-3.008600	3.810700	-11.464000	23.339104	0.000513	20.860205
336.088776	-2.996600	3.811700	-11.421000	23.347176	0.000514	20.828467
337.089508	-3.009800	3.811400	-11.470000	23.366720	0.000514	20.829090
338.088398	-2.990800	3.810800	-11.396000	23.371373	0.000515	20.860304
339.094214	-2.999100	3.810700	-11.428000	23.387211	0.000513	20.859583
340.089488	-2.982800	3.809800	-11.363000	23.340746	0.000514	20.859480
341.095012	-2.997700	3.810200	-11.421000	23.412999	0.000515	20.847025
342.093157	-2.984700	3.809700	-11.370000	23.418330	0.000517	20.857109
343.092285	-2.982200	3.811500	-11.366000	23.424780	0.000515	20.864522
344.091586	-3.005700	3.810300	-11.451000	23.420819	0.000515	20.848698
345.091415	-3.009900	3.809300	-11.465000	23.423731	0.000516	20.840712
346.098227	-3.008000	3.808100	-11.454000	23.442028	0.000517	20.860947
347.092814	-2.996700	3.809000	-11.414000	23.456993	0.000515	20.862197
348.092278	-2.993500	3.809300	-11.402000	23.460773	0.000515	20.824262
349.092851	-3.003700	3.808600	-11.439000	23.429955	0.000517	20.845054
350.092159	-2.993200	3.807300	-11.395000	23.446454	0.000516	20.843099
351.094716	-3.002800	3.807700	-11.433000	23.488110	0.000515	20.847870
352.098707	-3.013500	3.807500	-11.473000	23.478399	0.000516	20.838610
353.096970	-3.005700	3.807800	-11.444000	23.476881	0.000519	20.838985
354.094832	-3.006400	3.807300	-11.445000	23.480517	0.000516	20.841207
355.094373	-2.982100	3.807200	-11.352000	23.473245	0.000517	20.861417
356.094192	-2.991500	3.807800	-11.390000	23.433488	0.000517	20.863767
357.095022	-2.998900	3.806800	-11.415000	23.451168	0.000517	20.846402
358.100750	-3.011800	3.805000	-11.459000	23.487140	0.000519	20.837888
359.096605	-2.999200	3.806600	-11.416000	23.459033	0.000517	20.835320
360.095335	-3.010700	3.805700	-11.457000	23.486173	0.000516	20.836919
361.095358	-3.020500	3.803800	-11.488000	23.501911	0.000518	20.847952
362.096354	-2.994500	3.806100	-11.397000	23.518767	0.000518	20.831659
363.096594	-3.009600	3.804500	-11.448000	23.499924	0.000519	20.828418
364.101632	-3.028900	3.802600	-11.517000	23.488896	0.000517	20.828270
365.097996	-3.014800	3.805100	-11.471000	23.522555	0.000519	20.826447
366.112583	-2.989000	3.804400	-11.371000	23.524151	0.000517	20.813823
367.106744	-2.989600	3.804500	-11.373000	23.531374	0.000519	20.826278
368.098629	-2.997000	3.803300	-11.398000	23.556673	0.000520	20.832199
369.098148	-3.009200	3.803900	-11.446000	23.596059	0.000520	20.824741
370.098305	-2.995400	3.802900	-11.391000	23.607909	0.000520	20.835196
371.099208	-3.004300	3.803600	-11.426000	23.607987	0.000518	20.830534
372.098891	-2.972900	3.805300	-11.312000	23.619939	0.000521	20.834455
373.099381	-3.006000	3.802100	-11.429000	23.593703	0.000520	20.820008
374.099020	-2.974500	3.801900	-11.308000	23.606926	0.000520	20.822358
375.101331	-2.980000	3.801600	-11.328000	23.592691	0.000518	20.829425
376.100876	-2.988300	3.802100	-11.361000	23.603796	0.000520	20.827755
377.101500	-3.011300	3.801500	-11.446000	23.593391	0.000522	20.809738
378.103428	-2.982600	3.801500	-11.338000	23.609732	0.000519	20.828489
379.107204	-2.996200	3.801200	-11.388000	23.601563	0.000521	20.834999
380.103575	-3.000700	3.800300	-11.402000	23.641149	0.000521	20.823950
381.103025	-2.984100	3.800300	-11.340000	23.675178	0.000521	20.822029
382.107620	-3.004500	3.800300	-11.417000	23.662412	0.000521	20.821085
383.104774	-3.001100	3.800300	-11.404000	23.689922	0.000522	20.823060
384.103954	-2.978400	3.801300	-11.321000	23.651892	0.000524	20.833771
385.105242	-2.990500	3.800100	-11.363000	23.656248	0.000521	20.820594
386.102634	-3.013500	3.798400	-11.445000	23.649852	0.000522	20.814657
387.103329	-3.002000	3.798400	-11.401000	23.656207	0.000522	20.813441
388.103463	-2.999600	3.799400	-11.396000	23.637362	0.000524	20.833904
389.106774	-3.015500	3.798200	-11.452000	23.647077	0.000523	20.834634
390.104084	-3.016700	3.798200	-11.457000	23.656388	0.000523	20.817890
391.106863	-2.988600	3.797600	-11.348000	23.650244	0.000525	20.817421
392.104400	-2.996200	3.797800	-11.378000	23.637922	0.000522	20.828775
393.108319	-2.998500	3.798300	-11.388000	23.635932	0.000524	20.814926
394.106587	-3.000600	3.797300	-11.394000	23.620081	0.000524	20.828433
395.106370	-2.994100	3.796700	-11.367000	23.658288	0.000523	20.805097
396.105229	-2.995500	3.797400	-11.374000	23.677959	0.000525	20.832878
397.103940	-3.009600	3.797000	-11.426000	23.720475	0.000524	20.805328
398.105086	-2.998900	3.795500	-11.381000	23.723095	0.000525	20.822179
399.109206	-3.012800	3.797300	-11.439000	23.755401	0.000525	20.817586
400.107584	-2.994000	3.796000	-11.364000	23.750726	0.000525	20.820011
401.108736	-3.025000	3.795700	-11.482000	23.756948	0.000524	20.835732
402.111791	-2.996300	3.796900	-11.376000	23.772558	0.000524	20.832417
403.107250	-2.991700	3.795100	-11.353000	23.775745	0.000526	20.799103
404.110958	-2.995000	3.794800	-11.365000	23.780627	0.000526	20.811584
405.106148	-2.988100	3.794800	-11.339000	23.797503	0.000526	20.812858
406.108514	-2.995500	3.794900	-11.367000	23.791936	0.000524	20.811069
407.110795	-3.003100	3.794400	-11.394000	23.780611	0.000525	20.788334
408.109993	-2.982100	3.795500	-11.317000	23.794950	0.000527	20.800815
409.117366	-3.017400	3.792300	-11.442000	23.807122	0.000527	20.805907
410.111653	-3.001500	3.793100	-11.384000	23.792841	0.000526	20.820037
411.110456	-2.992600	3.793600	-11.352000	23.775594	0.000526	20.804167
412.112460	-3.010900	3.792900	-11.418000	23.815273	0.000527	20.787053
413.114872	-3.003000	3.793100	-11.390000	23.804795	0.000526	20.821117
414.113716	-2.997700	3.792300	-11.367000	23.808484	0.000528	20.817704
415.113850	-2.993900	3.792600	-11.354000	23.802415	0.000528	20.794075
416.112228	-3.033500	3.791100	-11.500000	23.833005	0.000527	20.806729
417.115515	-3.012000	3.790500	-11.415000	23.818896	0.000529	20.792583
418.115915	-3.007300	3.791300	-11.400000	23.835698	0.000529	20.788093
419.113429	-3.015700	3.790800	-11.431000	23.873952	0.000527	20.800845
420.112675	-2.997900	3.790800	-11.363000	23.852056	0.000527	20.788373
421.118286	-2.987700	3.790800	-11.325000	23.847657	0.000530	20.812885
422.113838	-3.005400	3.789800	-11.387000	23.866374	0.000530	20.784238
423.116516	-2.997200	3.791200	-11.362000	23.858069	0.000528	20.789661
424.113526	-3.020800	3.789500	-11.447000	23.899660	0.000531	20.796753
425.114130	-3.000600	3.790000	-11.371000	23.892691	0.000530	20.775539
426.113095	-3.005000	3.789000	-11.384000	23.845951	0.000529	20.803589
427.114396	-3.009000	3.789400	-11.402000	23.855240	0.000530	20.794885
428.118515	-3.002500	3.790300	-11.379000	23.820872	0.000530	20.801202
429.116764	-3.004100	3.788200	-11.379000	23.828640	0.000531	20.794766
430.121404	-3.002100	3.789000	-11.374000	23.807685	0.000530	20.798411
431.120304	-2.978300	3.790100	-11.287000	23.840989	0.000530	20.786285
432.117921	-3.012200	3.787400	-11.407000	23.850274	0.000531	20.806975
433.118286	-2.996200	3.787900	-11.349000	23.867371	0.000531	20.796618
434.120220	-3.013200	3.787300	-11.411000	23.889078	0.000532	20.779503
435.120044	-2.996000	3.787500	-11.346000	23.917622	0.000533	20.782521
436.119250	-3.001100	3.787200	-11.364000	23.923148	0.000532	20.799442
437.119474	-3.025500	3.785600	-11.453000	23.911051	0.000532	20.778303
438.125034	-3.020200	3.785200	-11.431000	23.952168	0.000532	20.781128
439.119650	-2.992100	3.786400	-11.328000	23.942962	0.000532	20.791337
440.120526	-3.002100	3.786100	-11.366000	23.976056	0.000533	20.781849
441.122157	-2.972600	3.787000	-11.255000	23.992013	0.000533	20.782678
442.121977	-2.993700	3.785300	-11.330000	24.008286	0.000532	20.761065
443.123976	-3.005600	3.785100	-11.375000	24.009482	0.000533	20.787869
444.126338	-3.000100	3.784400	-11.353000	23.999327	0.000534	20.779108
445.123582	-2.989200	3.786100	-11.316000	24.004438	0.000533	20.784707
446.123809	-2.993400	3.784000	-11.326000	24.039367	0.000533	20.786072
447.124931	-3.017700	3.784300	-11.418000	24.034664	0.000535	20.780406
448.125244	-2.989700	3.784300	-11.312000	24.006699	0.000534	20.775595
449.125019	-2.994700	3.782900	-11.328000	23.978877	0.000535	20.772824
450.126285	-2.989500	3.783400	-11.309000	23.953069	0.000537	20.758323
451.128993	-3.008500	3.782900	-11.380000	23.957600	0.000534	20.778514
452.126794	-3.006400	3.782400	-11.371000	23.969672	0.000534	20.767386
453.127042	-2.987700	3.784000	-11.305000	24.007345	0.000533	20.765336
454.126984	-3.000000	3.782600	-11.347000	23.981389	0.000534	20.772973
455.127763	-3.018900	3.781000	-11.412000	23.980119	0.000536	20.773121
456.127647	-3.005700	3.781300	-11.364000	23.980197	0.000534	20.759449
457.127162	-3.009300	3.781400	-11.378000	24.010181	0.000534	20.757276
458.128893	-3.004400	3.781800	-11.361000	24.004232	0.000535	20.800148
459.127571	-3.003800	3.781200	-11.357000	23.995898	0.000536	20.762867
460.128594	-3.017700	3.780400	-11.406000	23.979552	0.000536	20.768759
461.133820	-2.997900	3.780100	-11.332000	24.014136	0.000536	20.776889
462.128532	-3.014000	3.780600	-11.394000	24.000902	0.000537	20.770256
463.130183	-2.976800	3.779700	-11.250000	24.019140	0.000536	20.778588
464.129814	-2.997400	3.779300	-11.328000	24.042858	0.000536	20.748794
465.133432	-2.982900	3.779600	-11.273000	24.041164	0.000536	20.769856
466.129999	-2.991600	3.778800	-11.303000	24.084483	0.000537	20.783903
467.135456	-3.012800	3.778900	-11.385000	24.075451	0.000536	20.763939
468.134532	-2.980900	3.779400	-11.265000	24.072344	0.000537	20.765089
469.131211	-2.997800	3.777800	-11.324000	24.063686	0.000534	20.778218
470.134999	-2.989900	3.778400	-11.296000	24.082720	0.000538	20.769806
471.134440	-3.016600	3.776400	-11.391000	24.096829	0.000540	20.757878
472.133292	-3.018900	3.776000	-11.398000	24.088019	0.000537	20.758999
473.139631	-2.969500	3.778900	-11.221000	24.092348	0.000536	20.744848
474.136196	-2.993700	3.777300	-11.307000	24.097298	0.000534	20.755028
475.132829	-3.014200	3.776600	-11.383000	24.103892	0.000535	20.759745
476.136793	-3.007300	3.777600	-11.360000	24.106728	0.000539	20.743624
477.135743	-2.998900	3.776600	-11.324000	24.112274	0.000535	20.765781
478.133404	-3.011100	3.774900	-11.366000	24.132430	0.000536	20.753280
479.134444	-3.027800	3.774600	-11.427000	24.138374	0.000540	20.743120
480.135860	-2.990000	3.776800	-11.292000	24.126235	0.000538	20.771249
481.134381	-3.014800	3.774000	-11.376000	24.168654	0.000537	20.759741
482.134779	-2.991000	3.775000	-11.291000	24.140664	0.000538	20.786669
483.133811	-2.993400	3.775000	-11.299000	24.165867	0.000538	20.757894
484.136479	-2.997100	3.774300	-11.311000	24.136853	0.000537	20.760087
485.133690	-2.995000	3.774400	-11.303000	24.173279	0.000539	20.744464
486.133798	-2.997200	3.773700	-11.310000	24.170319	0.000539	20.752401
487.135899	-2.993900	3.773200	-11.296000	24.145165	0.000539	20.767002
488.135269	-3.001200	3.774200	-11.326000	24.176411	0.000540	20.741442
489.137294	-3.010500	3.772900	-11.358000	24.182684	0.000540	20.750579
490.140684	-3.009900	3.773500	-11.357000	24.178799	0.000538	20.746208
491.139316	-2.993400	3.773600	-11.295000	24.191986	0.000538	20.751374
492.138538	-2.997800	3.771400	-11.304000	24.182812	0.000537	20.759716
493.138006	-2.996400	3.771600	-11.300000	24.170689	0.000538	20.744711
494.138182	-2.974700	3.772400	-11.221000	24.167626	0.000537	20.781944
495.137676	-2.985500	3.771500	-11.258000	24.179700	0.000539	20.742370
496.138773	-2.984600	3.771500	-11.255000	24.191942	0.000537	20.763658
497.142489	-3.010700	3.770400	-11.350000	24.159845	0.000540	20.766078
498.141037	-3.006500	3.770000	-11.334000	24.162981	0.000538	20.759267
499.141782	-2.994800	3.770700	-11.291000	24.194478	0.000538	20.762883
500.148255	-3.000500	3.769300	-11.308000	24.165843	0.000538	20.757395
501.142404	-3.001900	3.770400	-11.317000	24.135015	0.000538	20.771521
502.145108	-3.011400	3.768600	-11.348000	24.144421	0.000538	20.760091
503.147528	-3.019800	3.768600	-11.379000	24.150415	0.000539	20.752826
504.142791	-3.000400	3.768600	-11.306000	24.181394	0.000537	20.760190
505.147487	-2.990600	3.768500	-11.269000	24.172288	0.000538	20.748687
506.146156	-3.002300	3.769000	-11.315000	24.196373	0.000539	20.742498
507.146853	-3.010200	3.768400	-11.343000	24.215829	0.000538	20.747788
508.146624	-2.999600	3.768200	-11.302000	24.249465	0.000538	20.748336
509.147119	-3.001900	3.768400	-11.312000	24.204857	0.000537	20.737731
510.147507	-3.006700	3.768700	-11.330000	24.229817	0.000539	20.752336
511.146296	-2.997700	3.768500	-11.296000	24.263099	0.000536	20.735933
512.148659	-3.013700	3.767500	-11.354000	24.283873	0.000537	20.752979
513.147851	-3.025500	3.767100	-11.395000	24.261307	0.000538	20.745042
514.147189	-3.008500	3.767000	-11.332000	24.292657	0.000537	20.741401
515.146598	-3.007300	3.766600	-11.326000	24.308083	0.000539	20.726528
516.148054	-3.003300	3.765100	-11.306000	24.317187	0.000539	20.737084
517.146977	-3.008200	3.764400	-11.323000	24.313533	0.000537	20.737686
518.148835	-2.992800	3.765800	-11.270000	24.317364	0.000537	20.738210
519.149943	-3.016700	3.764400	-11.354000	24.325075	0.000538	20.768231
520.151619	-3.001700	3.764700	-11.300000	24.318536	0.000536	20.744601
521.148865	-3.008000	3.763300	-11.319000	24.314228	0.000537	20.740280
522.149823	-3.015800	3.762300	-11.346000	24.301342	0.000539	20.761968
523.153772	-3.009700	3.763200	-11.325000	24.343110	0.000538	20.760718
524.149818	-2.993400	3.762800	-11.263000	24.329407	0.000537	20.750291
525.152832	-2.976200	3.764000	-11.200000	24.314503	0.000539	20.750039
526.152265	-2.993700	3.763600	-11.266000	24.326670	0.000539	20.747071
527.154211	-2.996800	3.762700	-11.275000	24.279993	0.000539	20.744819
528.152054	-2.974200	3.764100	-11.193000	24.299107	0.000540	20.738387
529.152325	-3.009900	3.761100	-11.320000	24.321815	0.000540	20.751684
530.150134	-3.009500	3.761600	-11.319000	24.311667	0.000539	20.738659
531.150118	-3.004400	3.762500	-11.303000	24.318704	0.000539	20.736234
532.152294	-3.008200	3.762300	-11.316000	24.328059	0.000542	20.742774
533.151190	-2.988600	3.762100	-11.242000	24.375846	0.000538	20.731443
534.155490	-2.999600	3.762100	-11.284000	24.383133	0.000539	20.749660
535.155807	-2.970900	3.762500	-11.176000	24.424380	0.000539	20.760694
536.152981	-3.011400	3.761000	-11.325000	24.409724	0.000539	20.768750
537.152716	-3.010600	3.760600	-11.320000	24.371465	0.000538	20.756446
538.153253	-2.994400	3.760200	-11.259000	24.379800	0.000539	20.742048
539.156754	-3.012600	3.760800	-11.328000	24.391937	0.000539	20.757069
540.152906	-3.002200	3.759400	-11.286000	24.364527	0.000540	20.765134
541.153248	-2.997700	3.760700	-11.273000	24.362209	0.000540	20.761386
542.157419	-2.997500	3.759800	-11.268000	24.361313	0.000540	20.746262
543.153172	-3.013600	3.758600	-11.326000	24.394571	0.000540	20.769195
544.153859	-2.987700	3.758700	-11.229000	24.378472	0.000540	20.760157
545.157637	-2.987400	3.758600	-11.228000	24.357108	0.000539	20.737302
546.154974	-2.973800	3.758500	-11.177000	24.357503	0.000540	20.750026
547.155190	-3.003900	3.758400	-11.289000	24.396786	0.000540	20.780427
548.158709	-2.990400	3.758700	-11.239000	24.377876	0.000538	20.758611
549.155103	-3.006100	3.757400	-11.293000	24.369167	0.000541	20.758408
550.156091	-2.992100	3.757800	-11.243000	24.383149	0.000539	20.741615
551.158757	-2.975700	3.759100	-11.185000	24.407278	0.000540	20.751597
552.155888	-3.010600	3.756300	-11.308000	24.399441	0.000539	20.770287
553.155902	-2.984400	3.756300	-11.209000	24.407131	0.000540	20.764725
554.157820	-2.994300	3.755500	-11.244000	24.401253	0.000540	20.748871
555.155875	-2.982800	3.756700	-11.205000	24.407619	0.000539	20.740559
556.156292	-2.973300	3.756800	-11.169000	24.391348	0.000538	20.753633
557.160461	-2.990400	3.756000	-11.232000	24.416944	0.000541	20.750862
558.155578	-2.981800	3.755300	-11.197000	24.451918	0.000540	20.757501
559.156350	-2.997100	3.755100	-11.252000	24.442161	0.000541	20.747712
560.164745	-3.009400	3.754500	-11.298000	24.447784	0.000540	20.755249
561.156753	-2.999300	3.753900	-11.258000	24.439848	0.000540	20.738278
562.159070	-3.004200	3.752400	-11.272000	24.465217	0.000540	20.762782
563.164068	-3.037600	3.753300	-11.400000	24.471784	0.000539	20.765103
564.157364	-2.993100	3.752800	-11.232000	24.463996	0.000539	20.763928
565.160010	-2.992900	3.753300	-11.233000	24.472330	0.000539	20.763281
566.158189	-2.993700	3.752600	-11.233000	24.496030	0.000537	20.762402
567.158040	-3.008200	3.753300	-11.290000	24.468939	0.000537	20.758930
568.157799	-3.010400	3.752600	-11.296000	24.430160	0.000540	20.756535
569.159911	-3.009000	3.751600	-11.287000	24.395087	0.000538	20.768290
570.159097	-3.011300	3.752400	-11.299000	24.396677	0.000538	20.773679
571.157743	-3.019200	3.751700	-11.327000	24.431175	0.000538	20.754234
572.158304	-3.000900	3.750200	-11.253000	24.437368	0.000539	20.761396
573.160295	-3.018800	3.751300	-11.323000	24.401103	0.000540	20.775274
574.158614	-3.010000	3.750900	-11.289000	24.424155	0.000539	20.769003
575.161265	-3.005300	3.750900	-11.272000	24.434582	0.000537	20.770928
576.160664	-2.989600	3.751100	-11.214000	24.438482	0.000541	20.770574
577.161348	-2.977700	3.752300	-11.172000	24.441165	0.000539	20.773740
578.162426	-2.999600	3.748900	-11.244000	24.438206	0.000537	20.763659
579.163034	-2.977400	3.750300	-11.165000	24.457707	0.000540	20.770421
580.163230	-2.975700	3.749800	-11.157000	24.481736	0.000539	20.774614
581.163177	-3.001100	3.750000	-11.254000	24.480663	0.000539	20.766425
582.166271	-2.979800	3.749500	-11.171000	24.516930	0.000538	20.785742
583.164943	-2.977500	3.749100	-11.162000	24.575628	0.000537	20.763556
584.163770	-2.992400	3.749000	-11.217000	24.576002	0.000540	20.774837
585.166903	-2.975200	3.750800	-11.158000	24.598281	0.000538	20.780596
586.164567	-3.005900	3.748200	-11.266000	24.613625	0.000538	20.764223
587.164808	-2.999000	3.747300	-11.237000	24.597936	0.000538	20.774560
588.164691	-2.993300	3.747900	-11.216000	24.572788	0.000540	20.779199
589.165390	-2.963300	3.748300	-11.106000	24.592089	0.000538	20.770589
590.168037	-2.977300	3.747400	-11.156000	24.563008	0.000539	20.785032
591.167196	-2.994200	3.746200	-11.215000	24.530823	0.000537	20.771707
592.168743	-2.993800	3.745800	-11.213000	24.501252	0.000539	20.745355
593.169337	-3.005100	3.746600	-11.257000	24.530474	0.000538	20.778468
594.170996	-3.015800	3.746100	-11.296000	24.539182	0.000538	20.770136
595.173234	-2.997800	3.745300	-11.227000	24.514731	0.000541	20.765518
596.170825	-2.994000	3.746100	-11.214000	24.535648	0.000537	20.793143
597.171578	-2.996100	3.745900	-11.223000	24.527835	0.000538	20.785779
598.171480	-3.011400	3.744000	-11.274000	24.529204	0.000537	20.793790
599.170615	-3.026800	3.743900	-11.331000	24.562983	0.000537	20.787853
600.171616	-3.003000	3.743800	-11.242000	24.564647	0.000538	20.780039
601.172265	-3.006600	3.744000	-11.256000	24.583052	0.000539	20.796136
602.176100	-3.016500	3.744800	-11.295000	24.589767	0.000539	20.779639
603.173409	-3.023600	3.743700	-11.319000	24.584293	0.000538	20.791217
604.176419	-2.995900	3.743600	-11.214000	24.589915	0.000536	20.791167
605.176321	-2.994500	3.744700	-11.213000	24.541787	0.000537	20.783181
606.173278	-2.993200	3.742900	-11.202000	24.551883	0.000537	20.798053
607.173633	-3.004100	3.743300	-11.245000	24.545346	0.000537	20.801925
608.177623	-3.027100	3.741800	-11.326000	24.523204	0.000535	20.789666
609.179244	-2.981200	3.742500	-11.156000	24.559342	0.000537	20.780406
610.173658	-3.005200	3.742400	-11.246000	24.582674	0.000536	20.791963
611.177322	-3.012000	3.741300	-11.267000	24.622742	0.000538	20.797080
612.175616	-2.996800	3.741800	-11.213000	24.582497	0.000536	20.795579
613.175555	-3.001400	3.741100	-11.228000	24.608882	0.000535	20.786965
614.174966	-3.003100	3.741800	-11.236000	24.596472	0.000536	20.783523
615.175024	-3.005200	3.741000	-11.242000	24.607740	0.000534	20.777759
616.175108	-3.004100	3.740400	-11.235000	24.634823	0.000536	20.783123
617.175731	-3.000200	3.742200	-11.226000	24.600844	0.000535	20.792651
618.175223	-2.998000	3.740900	-11.214000	24.592860	0.000535	20.805028
619.176426	-3.000500	3.738600	-11.217000	24.592437	0.000532	20.783267
620.179983	-2.992800	3.741100	-11.195000	24.605171	0.000534	20.806001
621.176863	-2.985800	3.740900	-11.169000	24.625063	0.000535	20.793719
622.177559	-3.012500	3.737200	-11.257000	24.644417	0.000535	20.803655
623.179440	-3.006400	3.738300	-11.238000	24.609149	0.000535	20.797665
624.178235	-3.001100	3.738200	-11.218000	24.636227	0.000535	20.793541
625.176001	-2.991300	3.738500	-11.183000	24.661793	0.000533	20.831048
626.181868	-3.001700	3.737600	-11.219000	24.666868	0.000535	20.799157
627.180722	-2.990600	3.738900	-11.181000	24.673326	0.000533	20.815121
628.178241	-2.985100	3.737800	-11.157000	24.681068	0.000534	20.812458
629.181076	-3.016400	3.735900	-11.268000	24.654898	0.000534	20.809431
630.179276	-3.010600	3.736500	-11.248000	24.668527	0.000534	20.807460
631.179970	-3.012500	3.736400	-11.254000	24.686582	0.000534	20.782429
632.185829	-3.009600	3.737000	-11.246000	24.684063	0.000533	20.792229
633.181745	-3.002600	3.736300	-11.218000	24.687345	0.000535	20.823973
634.181309	-3.006000	3.736100	-11.230000	24.723379	0.000534	20.809398
635.182853	-2.994000	3.735000	-11.182000	24.700847	0.000532	20.778726
636.182976	-2.988400	3.735200	-11.161000	24.663966	0.000534	20.809521
637.182458	-3.010100	3.735100	-11.242000	24.666998	0.000534	20.796443
638.184405	-3.004600	3.734500	-11.220000	24.669509	0.000535	20.817928
639.181632	-3.004800	3.733600	-11.217000	24.666669	0.000535	20.809863
640.182332	-3.000800	3.734600	-11.206000	24.697181	0.000533	20.821041
641.186535	-2.987800	3.734900	-11.159000	24.697379	0.000532	20.803695
642.185390	-2.998800	3.734100	-11.197000	24.715383	0.000532	20.817969
643.181282	-3.000200	3.733200	-11.200000	24.686786	0.000531	20.801126
644.182958	-2.989100	3.734200	-11.161000	24.684469	0.000534	20.817767
645.184731	-3.024400	3.731600	-11.284000	24.672701	0.000532	20.797423
646.187356	-3.000300	3.734100	-11.202000	24.708114	0.000534	20.806882
647.186296	-3.002000	3.733700	-11.208000	24.723136	0.000531	20.806309
648.187417	-2.991700	3.732300	-11.164000	24.740889	0.000531	20.828866
649.187394	-3.003900	3.733400	-11.214000	24.779929	0.000533	20.834852
650.187181	-2.984100	3.731400	-11.133000	24.807853	0.000533	20.828738
651.195894	-2.992000	3.732500	-11.166000	24.837117	0.000534	20.830131
652.191199	-2.977300	3.733500	-11.115000	24.860764	0.000531	20.832526
653.192526	-3.019000	3.732500	-11.267000	24.786042	0.000532	20.832452
654.187168	-2.999400	3.731500	-11.191000	24.754086	0.000532	20.844479
655.191442	-2.989500	3.732200	-11.156000	24.725584	0.000531	20.817300
656.190076	-3.001700	3.731300	-11.199000	24.741895	0.000531	20.828927
657.193009	-3.003000	3.731000	-11.203000	24.780064	0.000532	20.800849
658.190662	-3.003600	3.729400	-11.201000	24.742314	0.000531	20.825080
659.193743	-2.988500	3.729900	-11.145000	24.774566	0.000531	20.814298
660.190318	-2.993700	3.729400	-11.164000	24.789061	0.000531	20.831689
661.189843	-3.015700	3.729800	-11.246000	24.785104	0.000531	20.830089
662.192894	-2.996800	3.729800	-11.177000	24.791119	0.000533	20.826168
663.189706	-2.995100	3.728000	-11.165000	24.839733	0.000531	20.821851
664.191655	-3.001600	3.728700	-11.191000	24.853179	0.000530	20.837242
665.191949	-3.005400	3.728200	-11.203000	24.820083	0.000530	20.822993
666.193068	-2.971000	3.729400	-11.079000	24.812721	0.000530	20.834096
667.192658	-2.976300	3.727800	-11.094000	24.808690	0.000529	20.836215
668.193655	-3.001200	3.727500	-11.186000	24.765716	0.000529	20.844770
669.200410	-2.998000	3.726300	-11.171000	24.750818	0.000528	20.835510
670.193050	-2.996900	3.726900	-11.168000	24.728660	0.000527	20.841723
671.192636	-3.014200	3.726600	-11.232000	24.783588	0.000529	20.836627
672.197446	-3.015700	3.726600	-11.237000	24.814968	0.000528	20.852472
673.195931	-2.984200	3.726500	-11.119000	24.856243	0.000531	20.838895
674.199894	-3.015800	3.724500	-11.231000	24.876287	0.000529	20.848106
675.197355	-3.004200	3.726100	-11.192000	24.843881	0.000530	20.856359
676.194234	-3.011600	3.725300	-11.217000	24.855964	0.000527	20.846675
677.193782	-3.022700	3.723700	-11.254000	24.850196	0.000529	20.855110
678.197732	-3.001200	3.724900	-11.178000	24.871476	0.000529	20.832372
679.194932	-2.987300	3.724600	-11.126000	24.886618	0.000526	20.850888
680.196821	-2.979600	3.724900	-11.097000	24.838056	0.000528	20.849091
681.198959	-3.003200	3.723600	-11.182000	24.862348	0.000530	20.851659
682.196175	-2.993200	3.723100	-11.143000	24.842776	0.000530	20.876112
683.194444	-3.001600	3.723600	-11.176000	24.858416	0.000527	20.851032
684.199358	-2.996600	3.723100	-11.155000	24.877313	0.000528	20.860041
685.196858	-2.997200	3.724400	-11.161000	24.846925	0.000527	20.883120
686.196091	-3.002500	3.723300	-11.179000	24.832177	0.000527	20.858363
687.202672	-3.006200	3.721900	-11.188000	24.833048	0.000529	20.849754
688.197711	-3.017900	3.721600	-11.230000	24.834633	0.000528	20.858457
689.197583	-3.023600	3.721700	-11.252000	24.830435	0.000527	20.856615
690.201072	-3.009500	3.722600	-11.202000	24.870691	0.000526	20.854817
691.197280	-3.009800	3.720900	-11.198000	24.887768	0.000525	20.852042
692.196957	-2.976800	3.722100	-11.079000	24.912605	0.000528	20.858004
693.202944	-2.987700	3.721500	-11.118000	24.866160	0.000525	20.862123
694.200606	-2.990900	3.722000	-11.131000	24.823660	0.000524	20.848393
695.197609	-2.973200	3.721400	-11.064000	24.814659	0.000526	20.858325
696.198910	-3.000700	3.721400	-11.166000	24.808841	0.000526	20.855806
697.200815	-3.013800	3.720100	-11.211000	24.794688	0.000525	20.859146
698.200038	-3.007800	3.720500	-11.190000	24.771984	0.000526	20.876664
699.202028	-2.993800	3.721000	-11.138000	24.772083	0.000525	20.856849
700.204486	-3.006000	3.720400	-11.183000	24.833281	0.000527	20.865635
701.201880	-2.980200	3.719200	-11.084000	24.875378	0.000525	20.857150
702.202970	-2.997800	3.719100	-11.147000	24.848572	0.000526	20.858222
703.204113	-3.001700	3.717400	-11.158000	24.864606	0.000525	20.884270
704.201049	-3.003900	3.718400	-11.169000	24.871097	0.000524	20.864707
705.201294	-2.995600	3.718500	-11.138000	24.846083	0.000526	20.877533
706.208213	-3.001800	3.718900	-11.162000	24.856846	0.000524	20.880749
707.201740	-3.000800	3.718800	-11.159000	24.890611	0.000521	20.869119
708.202512	-3.012400	3.717700	-11.198000	24.879051	0.000525	20.867474
709.205162	-3.001300	3.718500	-11.159000	24.862988	0.000525	20.867948
710.212738	-2.986900	3.718000	-11.104000	24.883750	0.000525	20.862708
711.203109	-3.015000	3.716400	-11.204000	24.908242	0.000522	20.852203
712.203510	-2.980800	3.718100	-11.082000	24.892352	0.000524	20.866126
713.205860	-2.996700	3.716100	-11.135000	24.881565	0.000524	20.871419
714.205593	-2.989800	3.716300	-11.111000	24.912671	0.000524	20.876560
715.205994	-2.991400	3.716800	-11.118000	24.946762	0.000523	20.872846
716.209230	-2.992600	3.715600	-11.119000	24.967872	0.000523	20.882180
717.206371	-2.991800	3.716000	-11.117000	24.931847	0.000522	20.862617
718.206902	-3.018200	3.715000	-11.212000	24.929308	0.000521	20.871448
719.206475	-3.008400	3.715000	-11.176000	24.921183	0.000523	20.879414
720.206243	-2.999000	3.715800	-11.143000	24.895056	0.000522	20.872632
721.209732	-2.982800	3.715400	-11.082000	24.916438	0.000522	20.888401
722.209395	-2.987300	3.715600	-11.098000	24.896227	0.000522	20.893720
723.211276	-3.003000	3.716200	-11.159000	24.902993	0.000522	20.888183
724.208063	-3.030900	3.713400	-11.254000	24.898519	0.000522	20.884641
725.207561	-3.003800	3.714300	-11.157000	24.897200	0.000520	20.897542
726.208380	-3.000700	3.715200	-11.147000	24.900536	0.000522	20.887140
727.207870	-3.009200	3.714900	-11.178000	24.897431	0.000521	20.889713
728.214714	-2.997700	3.713700	-11.131000	24.912675	0.000520	20.872772
729.210436	-2.997200	3.712800	-11.128000	24.953031	0.000521	20.884827
730.212411	-2.996600	3.711900	-11.120000	24.943165	0.000520	20.883933
731.210352	-2.976500	3.713200	-11.052000	24.942721	0.000520	20.872109
732.213312	-3.021100	3.711200	-11.211000	24.990240	0.000520	20.874286
733.212377	-2.998700	3.711600	-11.129000	24.991135	0.000519	20.881348
734.210610	-2.975300	3.712000	-11.043000	25.007796	0.000519	20.887639
735.213964	-3.009500	3.711800	-11.169000	24.984674	0.000520	20.863484
736.215455	-3.009200	3.710900	-11.166000	25.006782	0.000520	20.892311
737.213313	-3.012800	3.710400	-11.178000	24.988959	0.000519	20.900499
738.215260	-2.997500	3.712300	-11.127000	25.039782	0.000521	20.881814
739.214477	-2.994500	3.710400	-11.110000	25.035112	0.000520	20.889928
740.214832	-2.975300	3.710300	-11.038000	25.048412	0.000519	20.890951
741.216786	-2.996600	3.710200	-11.117000	25.023385	0.000519	20.899019
742.221190	-2.967600	3.710800	-11.011000	25.043574	0.000518	20.904585
743.214671	-2.987200	3.709000	-11.079000	24.998378	0.000520	20.906634
744.216888	-2.991700	3.709300	-11.095000	25.015713	0.000518	20.889896
745.219239	-3.009400	3.708500	-11.159000	25.021184	0.000519	20.913878
746.215400	-2.983500	3.709700	-11.067000	25.030886	0.000519	20.876679
747.216782	-2.991000	3.709200	-11.093000	25.049111	0.000518	20.896868
748.219292	-2.996400	3.708200	-11.111000	25.064605	0.000517	20.890610
749.221079	-2.993500	3.708100	-11.099000	25.034575	0.000518	20.893182
750.216296	-2.987900	3.707600	-11.077000	25.006907	0.000517	20.912823
751.218715	-3.000600	3.707800	-11.125000	25.005017	0.000520	20.898126
752.218859	-3.000100	3.707200	-11.121000	25.010341	0.000519	20.884978
753.217432	-2.984600	3.708200	-11.067000	25.006734	0.000518	20.862394
754.216273	-3.017000	3.706800	-11.182000	25.008727	0.000519	20.884306
755.218392	-2.997300	3.705800	-11.107000	24.993910	0.000516	20.893616
756.218773	-3.002300	3.705400	-11.123000	24.996301	0.000518	20.887481
757.217837	-3.014400	3.706100	-11.170000	25.027453	0.000517	20.908792
758.220626	-2.983800	3.706500	-11.059000	25.043764	0.000516	20.912362
759.218611	-3.015700	3.706100	-11.175000	25.008263	0.000516	20.884789
760.224900	-3.021000	3.705800	-11.194000	25.023477	0.000517	20.893896
761.218539	-3.007500	3.704300	-11.139000	25.004578	0.000514	20.911434
762.219154	-3.012400	3.704900	-11.159000	25.042791	0.000517	20.904273
763.219438	-2.991600	3.705800	-11.086000	25.066462	0.000517	20.895319
764.219700	-3.001500	3.705100	-11.119000	25.091073	0.000515	20.902006
765.219674	-3.011500	3.703800	-11.153000	25.080829	0.000517	20.902628
766.218229	-2.994000	3.705100	-11.092000	25.105469	0.000515	20.897491
767.219441	-2.972800	3.703700	-11.009000	25.102356	0.000514	20.903374
768.220782	-2.983100	3.705600	-11.053000	25.137558	0.000515	20.905522
769.219870	-3.022200	3.703500	-11.191000	25.123516	0.000514	20.893323
770.220062	-3.004000	3.704300	-11.126000	25.057335	0.000514	20.895640
771.218147	-3.000700	3.704300	-11.115000	25.070964	0.000515	20.910742
772.219445	-2.996900	3.703200	-11.097000	25.103305	0.000514	20.903379
773.222639	-3.000800	3.703600	-11.112000	25.121101	0.000514	20.890899
774.219837	-3.003600	3.702800	-11.121000	25.106360	0.000512	20.887955
775.220088	-2.996000	3.703400	-11.095000	25.108594	0.000513	20.898258
776.229601	-2.990800	3.701700	-11.071000	25.101563	0.000513	20.884562
777.220303	-2.984900	3.703100	-11.053000	25.061089	0.000513	20.888978
778.220509	-2.986200	3.701700	-11.052000	25.060317	0.000513	20.891996
779.219373	-3.006100	3.701800	-11.126000	25.038539	0.000513	20.900480
780.219185	-3.010400	3.701700	-11.143000	25.042840	0.000512	20.891047
781.220645	-2.985100	3.701200	-11.047000	25.065390	0.000513	20.892346
782.222898	-3.020100	3.699100	-11.171000	25.089303	0.000514	20.885057
783.219223	-2.978500	3.701800	-11.025000	25.102356	0.000513	20.890573
784.219979	-2.988200	3.700400	-11.057000	25.102253	0.000513	20.869609
785.220547	-3.000000	3.699000	-11.096000	25.074237	0.000513	20.888425
786.220267	-2.993400	3.698600	-11.071000	25.053001	0.000512	20.895083
787.221916	-3.003400	3.699400	-11.110000	25.057996	0.000510	20.853158
788.220920	-3.008200	3.698600	-11.125000	25.053248	0.000511	20.876840
789.221913	-3.015400	3.698400	-11.152000	25.122254	0.000513	20.863610
790.223833	-3.002300	3.699600	-11.106000	25.136079	0.000509	20.876539
791.221982	-2.995900	3.698800	-11.080000	25.104984	0.000509	20.878514
792.220163	-2.996600	3.698200	-11.081000	25.071965	0.000512	20.888041
793.223889	-2.984100	3.698400	-11.035000	25.028410	0.000510	20.875141
794.225408	-3.001500	3.697800	-11.097000	25.031141	0.000509	20.878831
795.222380	-2.984700	3.698200	-11.037000	25.056903	0.000508	20.857751
796.221490	-3.002200	3.697900	-11.100000	25.045242	0.000510	20.858848
797.224339	-3.004600	3.696600	-11.106000	25.033306	0.000507	20.893331
798.221848	-3.022100	3.697300	-11.172000	25.022039	0.000507	20.873962
799.225569	-2.961500	3.698500	-10.953000	25.070700	0.000506	20.870652
800.223930	-2.980100	3.696500	-11.015000	25.055088	0.000506	20.879635
801.223211	-2.994400	3.696000	-11.065000	25.038978	0.000507	20.861569
802.224967	-3.025300	3.695900	-11.180000	25.042482	0.000508	20.847069
803.227320	-3.021800	3.694700	-11.164000	25.059117	0.000506	20.847172
804.222082	-3.005900	3.694100	-11.103000	25.064338	0.000506	20.863791
805.222879	-2.998200	3.695000	-11.077000	25.093529	0.000505	20.865119
806.222399	-2.988400	3.696000	-11.044000	25.149259	0.000505	20.867485
807.222970	-3.015700	3.695300	-11.143000	25.106578	0.000505	20.854037
808.222457	-2.999200	3.695900	-11.084000	25.064662	0.000506	20.851316
809.223917	-3.024900	3.692700	-11.169000	25.036149	0.000508	20.869159
810.223139	-3.022700	3.692600	-11.161000	25.018720	0.000504	20.853088
811.223103	-3.007400	3.694000	-11.108000	25.001390	0.000505	20.857978
812.223804	-2.996500	3.692800	-11.064000	25.001189	0.000505	20.869629
813.227672	-2.988100	3.692000	-11.031000	25.038679	0.000506	20.858423
814.226039	-3.005400	3.692700	-11.097000	25.016679	0.000506	20.841082
815.223596	-2.998000	3.693100	-11.071000	25.050290	0.000506	20.864389
816.232552	-3.006400	3.693200	-11.102000	25.088325	0.000507	20.887394
817.229564	-3.001000	3.691600	-11.078000	25.098392	0.000505	20.860992
818.234300	-2.994200	3.691500	-11.052000	25.048072	0.000504	20.864533
819.225904	-3.000100	3.692800	-11.078000	25.031692	0.000506	20.862789
820.228443	-3.009200	3.691500	-11.108000	25.004167	0.000504	20.869299
821.227587	-2.982300	3.690800	-11.005000	25.005978	0.000501	20.847885
822.226114	-3.002400	3.690500	-11.079000	25.020897	0.000501	20.836308
823.226918	-3.005100	3.690500	-11.089000	25.028381	0.000502	20.849509
824.226356	-2.980400	3.690900	-10.999000	25.047743	0.000501	20.851402
825.232435	-2.995700	3.690300	-11.054000	25.067110	0.000503	20.848557
826.226556	-2.996500	3.690100	-11.057000	25.076458	0.000502	20.836130
827.225911	-3.010700	3.690400	-11.110000	25.100498	0.000501	20.841770
828.229871	-3.004400	3.690700	-11.088000	25.087228	0.000502	20.862587
829.227939	-3.000700	3.689300	-11.069000	25.071365	0.000501	20.855199
830.226199	-3.010900	3.689900	-11.109000	25.070219	0.000502	20.857367
831.231653	-2.996100	3.690000	-11.055000	25.088896	0.000499	20.850511
832.227708	-2.978400	3.690700	-10.991000	25.103907	0.000500	20.846615
833.229262	-2.985900	3.687900	-11.010000	25.111962	0.000501	20.841424
834.234763	-2.978200	3.688600	-10.984000	25.163198	0.000498	20.841651
835.227220	-2.989900	3.689400	-11.030000	25.137619	0.000498	20.866232
836.229613	-3.002200	3.688200	-11.072000	25.079272	0.000499	20.852705
837.227448	-2.989400	3.689300	-11.028000	25.130190	0.000500	20.827481
838.231779	-2.996700	3.688100	-11.051000	25.129570	0.000497	20.855306
839.227473	-3.018500	3.687300	-11.130000	25.146253	0.000499	20.847873
840.228112	-2.991300	3.687800	-11.031000	25.135710	0.000496	20.833022
841.228656	-2.987100	3.687900	-11.016000	25.146848	0.000497	20.835669
842.242258	-2.971000	3.687500	-10.954000	25.148343	0.000499	20.840963
843.229843	-2.980600	3.687200	-10.988000	25.164874	0.000496	20.823420
844.239467	-2.998500	3.686900	-11.055000	25.193640	0.000495	20.824797
845.239162	-2.985600	3.686700	-11.006000	25.195204	0.000497	20.858609
846.230367	-2.985700	3.685400	-11.002000	25.210490	0.000496	20.837446
847.231978	-3.000900	3.685900	-11.060000	25.213229	0.000496	20.822179
848.234437	-2.990600	3.685700	-11.022000	25.217776	0.000495	20.846657
849.246299	-2.997100	3.684600	-11.041000	25.181881	0.000495	20.830062
850.231041	-2.985100	3.685600	-11.000000	25.202190	0.000497	20.832433
851.234521	-2.985900	3.684800	-11.002000	25.201102	0.000497	20.829444
852.238846	-3.001000	3.683300	-11.052000	25.214700	0.000494	20.828871
853.231591	-3.007300	3.683400	-11.076000	25.158969	0.000493	20.821759
854.244546	-3.033500	3.681700	-11.167000	25.147777	0.000494	20.830912
855.242659	-2.994700	3.684400	-11.033000	25.168760	0.000493	20.820683
856.237152	-3.013800	3.681700	-11.094000	25.162575	0.000493	20.811629
857.238067	-3.005700	3.683300	-11.070000	25.191508	0.000491	20.826451
858.247039	-2.974400	3.682700	-10.953000	25.220170	0.000494	20.831044
859.234932	-2.999200	3.682300	-11.042000	25.223554	0.000493	20.836338
860.245970	-3.023800	3.681500	-11.131000	25.203940	0.000493	20.839879
861.236928	-3.000100	3.681800	-11.045000	25.202749	0.000492	20.832520
862.242034	-3.015500	3.682100	-11.102000	25.234918	0.000492	20.812186
863.237451	-2.988400	3.680700	-10.998000	25.249632	0.000492	20.819846
864.240795	-3.013400	3.680500	-11.089000	25.265616	0.000490	20.811712
865.238239	-2.986700	3.681500	-10.994000	25.251427	0.000491	20.826864
866.245750	-3.001700	3.680500	-11.047000	25.234430	0.000490	20.831135
867.242294	-3.006600	3.679100	-11.061000	25.216857	0.000490	20.812071
868.237990	-3.013800	3.678500	-11.085000	25.218048	0.000490	20.812318
869.237387	-2.997900	3.680500	-11.033000	25.212360	0.000490	20.833634
870.240187	-2.989100	3.680600	-11.001000	25.215839	0.000491	20.839497
871.238880	-2.998200	3.678900	-11.029000	25.230976	0.000489	20.825297
872.249223	-2.992000	3.679500	-11.008000	25.225515	0.000490	20.808435
873.238205	-2.986000	3.679600	-10.987000	25.192730	0.000488	20.830048
874.241476	-3.007700	3.678600	-11.064000	25.213761	0.000489	20.813230
875.239734	-2.987300	3.679400	-10.991000	25.178664	0.000488	20.816401
876.241744	-2.992800	3.678200	-11.007000	25.215453	0.000488	20.808291
877.239175	-3.005000	3.678700	-11.053000	25.190968	0.000489	20.790347
878.240247	-2.995900	3.678400	-11.019000	25.173197	0.000488	20.803327
879.240955	-3.010400	3.677100	-11.069000	25.160967	0.000487	20.829454
880.240119	-3.005900	3.677300	-11.052000	25.160597	0.000489	20.817230
881.242137	-2.995700	3.677200	-11.014000	25.192788	0.000487	20.799760
882.239808	-2.992300	3.677400	-11.002000	25.229774	0.000488	20.788529
883.244142	-2.981600	3.676000	-10.960000	25.254759	0.000486	20.811717
884.248239	-3.001500	3.675100	-11.030000	25.281029	0.000486	20.810118
885.250705	-3.026300	3.674700	-11.120000	25.300116	0.000487	20.796565
886.245689	-3.012000	3.673600	-11.064000	25.328927	0.000486	20.804156
887.250223	-2.982400	3.675500	-10.961000	25.283095	0.000488	20.798915
888.251791	-2.997600	3.674900	-11.015000	25.309836	0.000487	20.798738
889.245814	-2.991600	3.675800	-10.995000	25.292786	0.000486	20.814810
890.242651	-3.013600	3.674000	-11.071000	25.280832	0.000486	20.812290
891.253985	-3.001700	3.673900	-11.027000	25.306379	0.000486	20.813284
892.242355	-2.997400	3.674500	-11.013000	25.331161	0.000486	20.796441
893.241320	-2.984100	3.673500	-10.961000	25.321712	0.000486	20.803549
894.243654	-3.004300	3.673000	-11.034000	25.300835	0.000486	20.799183
895.248724	-2.990900	3.673400	-10.986000	25.292005	0.000484	20.800275
896.248762	-3.003500	3.674300	-11.035000	25.282560	0.000485	20.796482
897.250166	-2.985900	3.673700	-10.968000	25.306173	0.000484	20.786525
898.244449	-2.992800	3.671800	-10.988000	25.327222	0.000483	20.801970
899.249022	-3.012100	3.672000	-11.059000	25.336589	0.000484	20.791934
900.247817	-2.995900	3.672400	-11.000000	25.312156	0.000484	20.813394
901.246389	-2.991000	3.671700	-10.981000	25.286256	0.000482	20.805882
902.245518	-3.015000	3.671600	-11.069000	25.318689	0.000483	20.798143
903.250988	-3.004700	3.672200	-11.033000	25.304522	0.000483	20.809049
904.249228	-2.998800	3.671500	-11.010000	25.316077	0.000484	20.812590
905.251004	-2.986000	3.671200	-10.961000	25.252893	0.000480	20.793723
906.253326	-2.970300	3.671200	-10.903000	25.280285	0.000483	20.782343
907.246975	-2.969300	3.670800	-10.898000	25.271386	0.000481	20.759657
908.255386	-2.988100	3.671200	-10.969000	25.252491	0.000480	20.775775
909.249747	-3.002500	3.670500	-11.020000	25.266408	0.000481	20.801602
910.248501	-3.002700	3.670000	-11.019000	25.274190	0.000481	20.781914
911.248979	-3.007700	3.669200	-11.035000	25.290863	0.000479	20.802921
912.255478	-2.970600	3.671000	-10.904000	25.318947	0.000479	20.779910
913.249983	-3.007300	3.668400	-11.031000	25.347704	0.000481	20.787921
914.248971	-2.993200	3.669600	-10.983000	25.353818	0.000479	20.794535
915.254168	-2.990200	3.669900	-10.973000	25.313953	0.000479	20.791966
916.255284	-3.002700	3.667800	-11.013000	25.293938	0.000478	20.786094
917.251866	-2.998400	3.667500	-10.995000	25.280616	0.000476	20.799746
918.255993	-3.017400	3.667200	-11.064000	25.315661	0.000478	20.789413
919.255170	-2.980200	3.669400	-10.934000	25.317846	0.000478	20.802038
920.256000	-2.986300	3.667600	-10.952000	25.324999	0.000478	20.785987
921.257405	-2.983200	3.666800	-10.938000	25.329171	0.000478	20.788279
922.256067	-2.981600	3.667000	-10.932000	25.285798	0.000478	20.789776
923.254424	-3.002100	3.666200	-11.005000	25.266854	0.000475	20.782610
924.257368	-2.981000	3.667000	-10.930000	25.245032	0.000474	20.786304
925.258596	-3.011300	3.665200	-11.035000	25.277240	0.000474	20.791614
926.255359	-3.006900	3.666100	-11.023000	25.317656	0.000477	20.780985
927.256524	-3.005100	3.665400	-11.013000	25.321229	0.000473	20.791684
928.257784	-3.017200	3.664300	-11.055000	25.334579	0.000475	20.788019
929.260425	-3.008400	3.664700	-11.024000	25.310092	0.000474	20.790460
930.264731	-2.981100	3.665400	-10.925000	25.313870	0.000473	20.781925
931.258269	-2.994400	3.665200	-10.975000	25.348215	0.000471	20.810720
932.258071	-3.013000	3.664500	-11.040000	25.341575	0.000472	20.773233
933.258651	-2.979400	3.664200	-10.916000	25.300864	0.000472	20.782143
934.261159	-2.988200	3.662800	-10.945000	25.288606	0.000474	20.779793
935.262222	-3.008000	3.663900	-11.021000	25.322259	0.000473	20.771381
936.260051	-3.003800	3.663200	-11.002000	25.279875	0.000470	20.778139
937.259683	-2.996200	3.664000	-10.977000	25.326303	0.000471	20.789193
938.262861	-3.024900	3.662100	-11.076000	25.330849	0.000472	20.787119
939.259825	-3.023300	3.661800	-11.069000	25.314715	0.000472	20.769022
940.261112	-2.997300	3.663200	-10.979000	25.319860	0.000471	20.765180
941.260300	-2.997300	3.662100	-10.976000	25.260406	0.000470	20.757642
942.268771	-2.980300	3.663100	-10.916000	25.293587	0.000470	20.789535
943.260771	-2.996600	3.661000	-10.970000	25.318419	0.000470	20.773216
944.262878	-2.991000	3.661900	-10.951000	25.325921	0.000468	20.774584
945.272500	-3.015200	3.661100	-11.037000	25.307376	0.000469	20.762602
946.262622	-2.997400	3.661100	-10.973000	25.301783	0.000470	20.770737
947.262590	-2.989300	3.661100	-10.943000	25.286495	0.000470	20.778147
948.264653	-3.007100	3.660800	-11.007000	25.277246	0.000468	20.759852
949.262898	-2.996000	3.659900	-10.964000	25.292260	0.000468	20.777771
950.268536	-3.009400	3.659000	-11.010000	25.305434	0.000468	20.783886
951.263708	-2.989700	3.659300	-10.940000	25.325022	0.000467	20.778423
952.264323	-2.986100	3.659600	-10.926000	25.329735	0.000468	20.774621
953.266276	-2.977100	3.659200	-10.893000	25.320989	0.000466	20.778641
954.263252	-3.017600	3.658300	-11.038000	25.364803	0.000465	20.787073
955.265674	-3.003900	3.656700	-10.983000	25.390976	0.000465	20.770205
956.264132	-3.000200	3.658000	-10.974000	25.407828	0.000465	20.758677
957.263916	-3.008000	3.657800	-11.002000	25.384587	0.000465	20.769005
958.268143	-2.974200	3.658500	-10.880000	25.348502	0.000464	20.757428
959.271526	-2.987000	3.657400	-10.923000	25.339431	0.000463	20.751639
960.266205	-2.992100	3.657000	-10.941000	25.311322	0.000463	20.765616
961.270913	-3.017100	3.657200	-11.033000	25.322180	0.000463	20.778414
962.264809	-2.995500	3.657300	-10.955000	25.373903	0.000464	20.771554
963.266455	-2.976600	3.657100	-10.885000	25.385979	0.000463	20.790792
964.264225	-3.004800	3.655400	-10.983000	25.349918	0.000463	20.765488
965.265824	-2.995900	3.655700	-10.951000	25.345504	0.000462	20.759634
966.264730	-3.000200	3.655700	-10.967000	25.364143	0.000463	20.760805
967.265384	-3.014500	3.655700	-11.020000	25.385072	0.000461	20.759061
968.265806	-2.973300	3.655300	-10.867000	25.407015	0.000460	20.764499
969.267391	-2.989500	3.655600	-10.928000	25.438529	0.000461	20.748728
970.271214	-2.968000	3.654600	-10.845000	25.464897	0.000461	20.764775
971.267775	-2.999300	3.653300	-10.956000	25.430752	0.000461	20.759885
972.266475	-2.994100	3.652400	-10.935000	25.435474	0.000458	20.773162
973.267868	-3.017500	3.653800	-11.024000	25.468384	0.000460	20.767802
974.269001	-2.996200	3.654800	-10.948000	25.438439	0.000459	20.779458
975.266113	-2.998200	3.653200	-10.952000	25.396886	0.000458	20.756224
976.267963	-3.008600	3.652000	-10.987000	25.348129	0.000459	20.775071
977.268568	-3.025200	3.652100	-11.048000	25.354518	0.000457	20.773901
978.267324	-3.005900	3.652900	-10.979000	25.371321	0.000456	20.767539
979.268210	-3.006500	3.652300	-10.980000	25.350892	0.000458	20.760302
980.268791	-2.985000	3.651100	-10.897000	25.360041	0.000458	20.751471
981.270230	-2.994000	3.651600	-10.932000	25.371251	0.000458	20.762727
982.269559	-2.983200	3.651300	-10.891000	25.382219	0.000456	20.757619
983.272246	-2.983500	3.652200	-10.895000	25.378520	0.000457	20.754378
984.275444	-3.026300	3.648700	-11.041000	25.385406	0.000455	20.757974
985.271447	-3.002800	3.650700	-10.962000	25.389484	0.000456	20.760171
986.270721	-3.008900	3.650200	-10.982000	25.397121	0.000455	20.763099
987.272966	-3.026200	3.650200	-11.045000	25.405945	0.000456	20.752519
988.272007	-2.985100	3.649500	-10.893000	25.448517	0.000456	20.765396
989.271585	-2.994800	3.648500	-10.925000	25.452298	0.000454	20.764926
990.273311	-2.997600	3.648900	-10.937000	25.465376	0.000454	20.771420
991.271106	-3.002100	3.647600	-10.949000	25.400370	0.000454	20.763042
992.272626	-2.998500	3.647600	-10.936000	25.383243	0.000453	20.767656
993.279817	-2.980800	3.647800	-10.873000	25.372810	0.000453	20.761447
994.272006	-2.997500	3.648600	-10.936000	25.389070	0.000455	20.768291
995.276871	-2.996600	3.648000	-10.931000	25.418047	0.000453	20.760878
996.279318	-3.017400	3.646700	-11.002000	25.429360	0.000453	20.751848
997.280115	-2.972000	3.647000	-10.838000	25.409581	0.000453	20.772291
998.275859	-2.993200	3.646100	-10.912000	25.353092	0.000452	20.735009
999.277397	-3.006100	3.645700	-10.959000	25.351675	0.000452	20.762985
1000.276973	-3.001000	3.647400	-10.944000	25.338408	0.000451	20.761518
1001.277268	-3.038200	3.645100	-11.073000	25.370249	0.000449	20.757452
1002.277896	-3.021900	3.644600	-11.013000	25.359810	0.000453	20.751713
1003.279095	-3.005400	3.644700	-10.953000	25.402614	0.000450	20.746328
1004.285748	-3.003500	3.645300	-10.947000	25.435097	0.000452	20.759032
1005.282943	-2.983800	3.644700	-10.874000	25.469045	0.000450	20.740016
1006.288187	-2.992000	3.644600	-10.904000	25.445165	0.000450	20.757762
1007.280672	-3.014100	3.644400	-10.983000	25.421609	0.000450	20.747384
1008.277775	-3.010100	3.643100	-10.965000	25.366537	0.000450	20.762735
1009.281929	-2.999200	3.642700	-10.925000	25.375583	0.000449	20.737678
1010.278497	-3.021800	3.641800	-11.003000	25.357885	0.000449	20.773962
1011.279803	-3.003100	3.641900	-10.937000	25.372627	0.000448	20.756047
1012.279162	-3.003600	3.641300	-10.937000	25.368205	0.000448	20.763461
1013.280833	-3.000400	3.642800	-10.929000	25.369395	0.000447	20.759915
1014.280684	-3.009200	3.642000	-10.959000	25.361569	0.000447	20.738305
1015.281297	-3.020000	3.641800	-10.998000	25.379784	0.000448	20.760863
1016.281306	-3.015600	3.642400	-10.982000	25.351156	0.000447	20.743022
1017.283987	-2.969000	3.642200	-10.813000	25.333855	0.000444	20.754101
1018.282296	-3.000500	3.641800	-10.926000	25.345936	0.000447	20.760068
1019.281909	-2.984100	3.640900	-10.864000	25.389730	0.000445	20.752357
1020.284395	-2.980200	3.641800	-10.852000	25.411751	0.000446	20.757400
1021.282287	-2.979900	3.640600	-10.847000	25.399724	0.000448	20.765713
1022.283618	-3.002000	3.639400	-10.924000	25.418612	0.000445	20.747220
1023.283756	-2.978300	3.639800	-10.839000	25.468713	0.000446	20.747744
1024.283629	-3.015000	3.639900	-10.974000	25.456884	0.000445	20.769057
1025.284961	-3.015200	3.638400	-10.969000	25.448734	0.000447	20.754708
1026.285164	-3.002900	3.639200	-10.928000	25.453677	0.000442	20.751611
1027.288577	-2.960500	3.640500	-10.777000	25.441302	0.000442	20.744874
1028.287214	-2.989300	3.639500	-10.878000	25.454129	0.000443	20.761074
1029.285809	-2.997200	3.638200	-10.904000	25.487944	0.000443	20.759944
1030.284735	-2.984100	3.637000	-10.853000	25.483473	0.000443	20.763515
1031.286149	-2.979400	3.638000	-10.838000	25.478353	0.000442	20.770702
1032.285592	-2.988000	3.637700	-10.869000	25.446615	0.000443	20.758744
1033.285592	-2.995700	3.637300	-10.895000	25.437771	0.000441	20.760295
1034.286853	-3.005700	3.637000	-10.931000	25.448257	0.000441	20.772248
1035.286058	-3.008300	3.637100	-10.940000	25.451439	0.000441	20.762641
1036.287156	-2.977000	3.636600	-10.825000	25.401338	0.000440	20.755953
1037.286659	-2.993300	3.634900	-10.879000	25.432724	0.000441	20.778935
1038.287686	-2.993000	3.635400	-10.879000	25.424249	0.000441	20.763787
1039.288221	-3.009900	3.635100	-10.941000	25.422985	0.000438	20.760146
1040.288217	-2.983400	3.634300	-10.842000	25.445818	0.000441	20.753677
1041.291406	-2.995800	3.635500	-10.890000	25.479770	0.000439	20.765960
1042.288377	-3.010100	3.633800	-10.937000	25.504047	0.000440	20.735336
1043.289596	-3.007100	3.634000	-10.927000	25.502429	0.000439	20.771645
1044.292632	-3.011900	3.634100	-10.944000	25.461577	0.000438	20.766182
1045.291817	-3.028100	3.632500	-10.998000	25.445921	0.000438	20.755202
1046.287692	-3.001200	3.632800	-10.902000	25.453024	0.000437	20.775612
1047.287100	-2.993400	3.632700	-10.873000	25.451509	0.000437	20.793057
1048.287858	-3.010100	3.631100	-10.929000	25.434732	0.000436	20.774313
1049.287323	-3.030200	3.632900	-11.008000	25.444569	0.000437	20.770441
1050.288248	-3.008900	3.632000	-10.928000	25.440792	0.000435	20.776131
1051.287500	-2.999200	3.632400	-10.893000	25.445912	0.000433	20.775109
1052.299346	-2.990900	3.631500	-10.860000	25.455380	0.000434	20.781772
1053.288142	-2.996400	3.631000	-10.879000	25.467854	0.000435	20.768219
1054.291965	-2.985400	3.631300	-10.840000	25.461416	0.000434	20.787832
1055.289281	-3.002600	3.630000	-10.899000	25.489471	0.000436	20.787082
1056.292182	-3.019400	3.631100	-10.963000	25.485993	0.000432	20.766994
1057.289373	-2.996800	3.630300	-10.878000	25.544565	0.000435	20.779347
1058.292605	-2.986200	3.629800	-10.839000	25.564272	0.000435	20.797715
1059.291576	-3.017000	3.629500	-10.948000	25.559826	0.000435	20.784715
1060.291172	-2.990300	3.628700	-10.850000	25.521356	0.000431	20.770264
1061.291160	-2.973100	3.629300	-10.789000	25.498594	0.000431	20.785338
1062.292699	-3.016700	3.627300	-10.941000	25.448421	0.000432	20.778102
1063.297235	-2.994300	3.626900	-10.859000	25.443621	0.000432	20.777075
1064.297255	-3.014900	3.626900	-10.933000	25.430675	0.000430	20.778774
1065.293967	-2.988800	3.629000	-10.846000	25.430075	0.000427	20.778646
1066.293154	-2.998900	3.626500	-10.875000	25.418348	0.000431	20.782518
1067.291866	-3.011200	3.626600	-10.919000	25.408383	0.000431	20.779149
1068.293477	-3.030100	3.626300	-10.987000	25.424738	0.000428	20.786563
1069.292666	-2.997600	3.627100	-10.872000	25.385319	0.000430	20.766895
1070.293844	-3.013700	3.626200	-10.927000	25.448347	0.000431	20.790830
1071.293556	-2.998500	3.625800	-10.871000	25.472079	0.000428	20.785738
1072.296422	-2.999200	3.625100	-10.871000	25.518901	0.000429	20.797670
1073.305529	-3.002000	3.625500	-10.883000	25.511741	0.000427	20.793324
1074.295084	-3.006300	3.625500	-10.898000	25.540669	0.000430	20.788711
1075.298357	-3.000800	3.624400	-10.875000	25.480632	0.000429	20.791007
1076.297111	-2.982800	3.625300	-10.813000	25.435652	0.000427	20.788039
1077.300273	-3.014700	3.623200	-10.922000	25.371855	0.000428	20.803637
1078.295409	-2.981400	3.625800	-10.809000	25.378166	0.000426	20.798594
1079.295223	-3.009900	3.622800	-10.903000	25.423527	0.000427	20.797201
1080.308238	-3.024100	3.623600	-10.957000	25.420541	0.000424	20.802738
1081.297737	-2.992700	3.622400	-10.840000	25.407517	0.000426	20.797246
1082.299992	-2.988400	3.623500	-10.827000	25.423945	0.000422	20.781974
1083.303042	-2.972500	3.622000	-10.766000	25.454613	0.000424	20.792380
1084.301074	-3.012700	3.623300	-10.914000	25.505656	0.000425	20.807603
1085.302483	-2.977000	3.621100	-10.779000	25.510953	0.000422	20.802016
1086.297587	-2.988600	3.620400	-10.819000	25.515847	0.000424	20.793180
1087.303428	-2.997800	3.621300	-10.855000	25.485555	0.000422	20.800693
1088.302034	-2.974500	3.622700	-10.775000	25.458370	0.000424	20.789041
1089.297819	-2.976600	3.620900	-10.776000	25.475418	0.000421	20.789090
1090.306765	-2.976400	3.623100	-10.783000	25.466771	0.000423	20.794158
1091.297340	-2.985900	3.618800	-10.804000	25.460333	0.000419	20.815194
1092.302581	-2.987900	3.620100	-10.815000	25.460632	0.000421	20.785623
1093.298671	-2.965300	3.619800	-10.732000	25.476386	0.000421	20.804288
1094.300109	-2.992100	3.619700	-10.829000	25.464558	0.000419	20.816117
1095.300315	-3.007600	3.618300	-10.882000	25.515925	0.000419	20.790888
1096.299704	-2.968200	3.620200	-10.744000	25.548955	0.000420	20.790394
1097.301359	-2.992200	3.619300	-10.829000	25.554694	0.000422	20.805641
1098.306674	-3.000400	3.619400	-10.859000	25.548011	0.000420	20.801773
1099.298830	-3.008200	3.617000	-10.879000	25.528427	0.000419	20.800598
1100.298741	-2.991400	3.617500	-10.820000	25.518044	0.000417	20.812456
1101.309037	-2.980400	3.616300	-10.777000	25.560713	0.000417	20.779917
1102.299098	-2.984500	3.615800	-10.790000	25.577513	0.000417	20.805324
1103.300108	-3.012000	3.615600	-10.889000	25.620028	0.000416	20.804400
1104.304301	-3.025900	3.615400	-10.939000	25.605098	0.000417	20.828285
1105.302635	-3.001600	3.614700	-10.849000	25.620653	0.000415	20.798389
1106.302974	-3.016600	3.616700	-10.909000	25.657058	0.000417	20.790382
1107.303857	-2.987900	3.615100	-10.801000	25.669484	0.000414	20.798596
1108.305719	-3.024300	3.613500	-10.927000	25.641134	0.000414	20.838873
1109.303881	-3.021200	3.613800	-10.917000	25.608711	0.000415	20.806310
1110.304661	-3.014300	3.614200	-10.893000	25.610082	0.000414	20.797730
1111.307525	-2.988000	3.614100	-10.797000	25.609586	0.000416	20.811456
1112.304791	-3.010900	3.612500	-10.875000	25.567694	0.000414	20.830076
1113.306917	-2.996400	3.613000	-10.825000	25.577609	0.000414	20.800204
1114.314625	-2.983400	3.614000	-10.781000	25.559549	0.000412	20.828534
1115.308934	-2.989900	3.614000	-10.804000	25.574731	0.000414	20.812487
1116.306895	-2.983600	3.612900	-10.778000	25.611158	0.000412	20.813510
1117.306240	-3.016800	3.610100	-10.890000	25.612181	0.000413	20.831132
1118.310100	-3.003600	3.611300	-10.846000	25.585102	0.000412	20.808204
1119.306023	-2.984800	3.611700	-10.779000	25.536025	0.000412	20.811548
1120.305745	-2.978200	3.612600	-10.758000	25.523371	0.000412	20.826341
1121.310214	-3.011900	3.610700	-10.875000	25.527079	0.000411	20.821055
1122.308097	-2.981600	3.610800	-10.766000	25.539979	0.000410	20.828320
1123.309675	-2.977400	3.611100	-10.751000	25.532597	0.000410	20.825648
1124.310230	-2.997700	3.610700	-10.823000	25.579240	0.000412	20.831239
1125.317515	-2.995500	3.609300	-10.810000	25.590276	0.000410	20.814348
1126.308975	-3.002200	3.609600	-10.835000	25.563064	0.000410	20.841073
1127.310283	-2.984200	3.608000	-10.766000	25.583169	0.000409	20.835185
1128.309294	-2.998200	3.609300	-10.821000	25.596138	0.000408	20.818813
1129.309334	-3.016100	3.606100	-10.875000	25.587472	0.000409	20.813429
1130.308930	-3.003700	3.608100	-10.837000	25.597559	0.000411	20.822136
1131.312345	-3.000000	3.608000	-10.823000	25.643107	0.000409	20.817622
1132.313254	-2.991600	3.607400	-10.791000	25.652146	0.000406	20.821010
1133.314577	-3.019600	3.606900	-10.890000	25.658111	0.000408	20.826527
1134.312782	-2.996300	3.607600	-10.809000	25.598503	0.000406	20.846791
1135.311095	-2.999900	3.607300	-10.821000	25.595050	0.000406	20.833841
1136.312743	-3.010500	3.606000	-10.855000	25.636592	0.000406	20.825302
1137.315141	-3.025400	3.605300	-10.906000	25.630656	0.000407	20.835936
1138.313759	-2.988400	3.606000	-10.774000	25.637589	0.000406	20.832943
1139.314535	-3.014900	3.604700	-10.867000	25.641588	0.000406	20.835536
1140.316066	-3.007600	3.605900	-10.844000	25.641046	0.000404	20.830250
1141.314427	-3.006900	3.604000	-10.836000	25.575595	0.000405	20.829949
1142.314739	-2.988400	3.606700	-10.777000	25.565282	0.000403	20.830498
1143.316258	-2.998000	3.604600	-10.805000	25.563693	0.000406	20.832221
1144.316610	-3.004900	3.604300	-10.829000	25.580488	0.000403	20.835338
1145.316950	-2.999600	3.603100	-10.807000	25.592124	0.000402	20.818574
1146.316367	-3.007700	3.603500	-10.837000	25.600022	0.000404	20.838834
1147.318168	-3.012100	3.602600	-10.850000	25.578280	0.000404	20.838810
1148.319201	-3.005200	3.602900	-10.826000	25.577237	0.000403	20.821642
1149.317106	-3.001000	3.603700	-10.814000	25.557560	0.000402	20.852613
1150.319391	-2.995100	3.603000	-10.790000	25.607757	0.000401	20.819577
1151.318818	-2.995200	3.602000	-10.788000	25.578584	0.000400	20.849072
1152.319482	-2.979000	3.602200	-10.730000	25.579558	0.000400	20.845308
1153.319117	-2.989500	3.601500	-10.766000	25.519025	0.000400	20.868916
1154.319386	-2.991800	3.602000	-10.775000	25.519621	0.000398	20.835850
1155.319515	-3.008100	3.598900	-10.824000	25.542357	0.000400	20.845881
1156.320707	-2.982500	3.600300	-10.737000	25.532545	0.000399	20.851200
1157.321687	-2.980200	3.600800	-10.730000	25.595619	0.000399	20.831567
1158.326327	-3.013800	3.600200	-10.849000	25.625234	0.000398	20.851353
1159.328012	-3.000300	3.598700	-10.797000	25.663946	0.000397	20.848508
1160.322863	-3.007000	3.598100	-10.819000	25.680695	0.000396	20.832614
1161.327273	-3.011700	3.598700	-10.838000	25.699312	0.000399	20.847993
1162.325396	-3.017000	3.598300	-10.855000	25.624599	0.000395	20.853085
1163.322471	-2.994100	3.599800	-10.777000	25.618461	0.000399	20.861619
1164.323682	-3.005400	3.599100	-10.816000	25.595903	0.000397	20.832327
1165.326790	-2.999400	3.597300	-10.789000	25.624426	0.000397	20.840585
1166.325543	-3.013200	3.598000	-10.840000	25.609820	0.000396	20.861950
1167.325366	-2.979300	3.597800	-10.717000	25.612057	0.000395	20.870835
1168.327440	-2.991900	3.597300	-10.763000	25.623806	0.000394	20.857031
1169.325518	-2.997100	3.596900	-10.779000	25.621180	0.000394	20.848229
1170.328494	-2.985400	3.597400	-10.738000	25.613803	0.000393	20.869742
1171.329515	-2.993300	3.596600	-10.765000	25.584211	0.000394	20.843344
1172.327905	-2.974300	3.596000	-10.695000	25.611471	0.000392	20.856496
1173.327600	-2.992600	3.596000	-10.761000	25.628319	0.000392	20.861089
1174.331226	-2.978900	3.596500	-10.713000	25.622281	0.000392	20.857869
1175.340195	-3.010500	3.594400	-10.820000	25.623278	0.000392	20.834690
1176.338036	-2.984000	3.594700	-10.726000	25.615631	0.000394	20.853561
1177.330470	-3.004900	3.593900	-10.799000	25.600273	0.000391	20.863267
1178.333625	-2.977300	3.594300	-10.701000	25.589591	0.000393	20.862970
1179.330561	-3.002800	3.593600	-10.790000	25.658095	0.000391	20.876295
1180.331460	-3.009800	3.592800	-10.813000	25.630394	0.000391	20.841836
1181.333574	-3.002400	3.592200	-10.784000	25.668412	0.000391	20.864846
1182.332057	-2.989500	3.593400	-10.742000	25.657997	0.000391	20.846326
1183.334871	-3.001800	3.591800	-10.781000	25.684684	0.000389	20.858431
1184.338933	-3.004100	3.592500	-10.791000	25.656836	0.000390	20.878823
1185.333078	-2.980300	3.592000	-10.704000	25.634795	0.000390	20.871859
1186.333972	-2.996600	3.591400	-10.761000	25.674524	0.000389	20.871933
1187.333659	-3.004200	3.591400	-10.788000	25.671618	0.000388	20.868540
1188.333746	-3.021500	3.590100	-10.846000	25.686449	0.000388	20.881539
1189.335894	-3.011000	3.591400	-10.813000	25.666917	0.000388	20.866664
1190.334711	-3.011700	3.589700	-10.810000	25.682245	0.000387	20.874472
1191.334579	-2.991900	3.590200	-10.741000	25.696289	0.000387	20.873405
1192.333871	-3.006000	3.588800	-10.787000	25.734871	0.000387	20.889397
1193.334672	-2.989900	3.588900	-10.730000	25.742822	0.000387	20.885056
1194.335432	-2.984600	3.590300	-10.715000	25.745851	0.000384	20.871030
1195.334932	-2.994500	3.589200	-10.747000	25.740413	0.000383	20.875998
1196.335778	-2.996500	3.588100	-10.751000	25.707954	0.000384	20.880854
1197.339090	-2.976400	3.589000	-10.681000	25.664823	0.000385	20.880681
1198.338468	-2.990000	3.587000	-10.724000	25.644626	0.000386	20.877465
1199.338340	-3.004400	3.587300	-10.777000	25.670862	0.000385	20.887220
1200.339223	-2.994600	3.588600	-10.746000	25.679088	0.000385	20.890267
1201.339128	-2.987000	3.586000	-10.711000	25.652376	0.000385	20.890939
1202.340853	-3.005300	3.588000	-10.781000	25.686317	0.000385	20.895630
1203.342713	-2.989200	3.586300	-10.720000	25.637540	0.000382	20.878409
1204.338299	-2.992100	3.585500	-10.728000	25.643382	0.000382	20.890440
1205.339575	-3.005000	3.585700	-10.774000	25.662163	0.000382	20.891285
1206.340119	-2.987200	3.584700	-10.707000	25.685948	0.000384	20.883881
1207.341282	-2.983000	3.585700	-10.694000	25.669548	0.000382	20.876418
1208.340523	-2.991100	3.584300	-10.720000	25.655410	0.000381	20.886400
1209.340189	-3.004600	3.584800	-10.771000	25.627507	0.000380	20.893462
1210.340831	-3.025000	3.584200	-10.842000	25.603483	0.000381	20.897783
1211.341615	-3.002600	3.584000	-10.760000	25.545564	0.000380	20.890824
1212.342380	-3.003700	3.584800	-10.766000	25.515346	0.000379	20.885135
1213.343465	-3.008500	3.583000	-10.778000	25.541142	0.000378	20.902030
1214.345056	-2.995700	3.582300	-10.730000	25.576528	0.000378	20.885885
1215.342661	-3.006200	3.582100	-10.767000	25.665239	0.000377	20.889633
1216.343370	-3.005300	3.580700	-10.761000	25.651450	0.000379	20.892853
1217.342866	-2.983400	3.582700	-10.687000	25.650112	0.000378	20.886768
1218.344715	-3.013900	3.580300	-10.789000	25.625189	0.000378	20.900142
1219.344078	-2.986200	3.581900	-10.695000	25.619878	0.000375	20.914721
1220.343060	-3.017300	3.579400	-10.799000	25.612275	0.000376	20.887173
1221.347414	-2.989700	3.581300	-10.706000	25.617994	0.000376	20.901450
1222.343871	-3.000200	3.579600	-10.738000	25.603038	0.000377	20.894965
1223.347196	-2.996800	3.581500	-10.732000	25.645376	0.000377	20.906665
1224.346242	-2.974600	3.581300	-10.651000	25.687101	0.000375	20.885038
1225.343906	-2.993800	3.580300	-10.717000	25.706377	0.000376	20.909613
1226.348170	-2.998000	3.580500	-10.733000	25.765930	0.000377	20.900205
1227.347039	-3.009100	3.578800	-10.768000	25.782083	0.000376	20.890826
1228.344100	-2.988400	3.578600	-10.693000	25.793687	0.000375	20.909119
1229.347532	-3.010400	3.578300	-10.771000	25.738511	0.000373	20.895898
1230.349407	-3.009800	3.577400	-10.766000	25.677088	0.000373	20.913386
1231.346804	-2.975300	3.578600	-10.646000	25.665615	0.000373	20.916561
1232.348633	-2.985200	3.577700	-10.680000	25.638755	0.000375	20.903335
1233.351340	-2.998900	3.576400	-10.724000	25.649043	0.000375	20.893280
1234.346458	-3.026300	3.575700	-10.821000	25.685221	0.000374	20.903538
1235.346927	-3.014300	3.576000	-10.778000	25.694294	0.000374	20.881358
1236.350381	-3.017100	3.574800	-10.784000	25.701621	0.000374	20.914319
1237.347836	-3.015500	3.574000	-10.776000	25.721994	0.000372	20.885946
1238.350946	-2.992100	3.576400	-10.700000	25.719933	0.000370	20.895255
1239.348867	-2.991100	3.576400	-10.697000	25.679134	0.000371	20.905009
1240.347672	-2.997000	3.574400	-10.712000	25.719958	0.000371	20.906185
1241.347540	-2.996600	3.573800	-10.708000	25.742194	0.000370	20.917613
1242.354856	-3.004600	3.574500	-10.739000	25.711342	0.000372	20.899902
1243.348670	-2.997600	3.573400	-10.710000	25.753228	0.000367	20.900722
1244.347711	-2.999400	3.573700	-10.718000	25.783168	0.000373	20.881960
1245.348753	-2.991800	3.573400	-10.689000	25.803642	0.000371	20.880715
1246.349400	-2.996300	3.573000	-10.704000	25.785056	0.000368	20.880063
1247.349227	-2.983800	3.572600	-10.659000	25.782823	0.000369	20.890148
1248.349150	-2.994800	3.572100	-10.697000	25.803839	0.000369	20.899877
1249.350657	-2.982900	3.573200	-10.657000	25.810993	0.000369	20.871979
1250.350664	-2.981200	3.572900	-10.650000	25.743594	0.000369	20.880142
1251.351378	-2.994700	3.570500	-10.692000	25.712635	0.000367	20.887926
1252.351364	-2.992900	3.570800	-10.686000	25.720114	0.000367	20.883110
1253.351171	-2.971900	3.571300	-10.612000	25.764832	0.000366	20.884879
1254.351283	-2.971500	3.571500	-10.612000	25.740708	0.000368	20.870132
1255.352784	-2.997400	3.570700	-10.701000	25.755367	0.000368	20.896233
1256.356276	-2.984700	3.570300	-10.656000	25.714494	0.000365	20.870354
1257.352154	-2.991900	3.570100	-10.681000	25.742395	0.000365	20.868033
1258.354239	-2.989200	3.569400	-10.669000	25.743939	0.000364	20.868161
1259.355683	-3.003300	3.570000	-10.720000	25.731095	0.000365	20.876596
1260.353352	-3.005500	3.567700	-10.721000	25.695715	0.000364	20.889422
1261.356335	-2.988300	3.568800	-10.663000	25.740782	0.000364	20.868309
1262.356000	-2.990800	3.567900	-10.670000	25.766593	0.000364	20.899448
1263.353242	-2.995800	3.567900	-10.688000	25.769253	0.000362	20.888371
1264.359692	-3.023600	3.567100	-10.785000	25.800608	0.000363	20.879090
1265.353366	-3.000900	3.566300	-10.701000	25.794870	0.000361	20.857207
1266.353511	-3.006800	3.567100	-10.725000	25.805427	0.000362	20.871129
1267.353449	-3.008100	3.567200	-10.729000	25.725828	0.000360	20.872255
1268.353706	-3.007500	3.566000	-10.724000	25.723940	0.000360	20.877470
1269.356178	-3.014400	3.564700	-10.744000	25.685358	0.000360	20.871435
1270.353341	-2.970600	3.565400	-10.590000	25.748536	0.000360	20.871830
1271.352953	-2.972100	3.565300	-10.595000	25.734679	0.000361	20.869291
1272.360868	-3.012500	3.563700	-10.734000	25.763297	0.000358	20.869114
1273.363892	-2.983300	3.565800	-10.637000	25.739227	0.000357	20.863429
1274.353129	-2.998300	3.563900	-10.684000	25.742704	0.000357	20.864550
1275.355465	-2.990400	3.564500	-10.659000	25.758262	0.000359	20.875909
1276.354406	-2.997600	3.563900	-10.682000	25.715973	0.000359	20.848133
1277.357659	-3.009100	3.563100	-10.721000	25.743957	0.000357	20.873869
1278.357224	-3.006700	3.561500	-10.708000	25.773322	0.000355	20.855477
1279.355333	-3.025700	3.561200	-10.774000	25.726343	0.000357	20.850014
1280.356099	-3.006900	3.562000	-10.709000	25.684580	0.000357	20.872076
1281.358710	-2.992200	3.562000	-10.658000	25.707338	0.000355	20.860321
1282.358343	-3.022500	3.561500	-10.764000	25.688007	0.000354	20.863665
1283.356092	-2.990300	3.561100	-10.648000	25.689104	0.000354	20.863344
1284.360178	-3.007700	3.560300	-10.708000	25.660960	0.000355	20.859733
1285.358191	-2.981300	3.561100	-10.616000	25.634966	0.000354	20.872031
1286.359667	-2.996400	3.561300	-10.671000	25.690102	0.000354	20.856760
1287.359444	-3.004900	3.560200	-10.696000	25.715269	0.000351	20.842684
1288.360155	-3.008500	3.559800	-10.708000	25.721111	0.000353	20.851870
1289.361205	-2.986300	3.560900	-10.633000	25.706501	0.000353	20.854266
1290.361680	-3.013600	3.558500	-10.723000	25.695530	0.000353	20.845143
1291.364466	-2.986100	3.559800	-10.629000	25.703875	0.000353	20.839774
1292.361582	-3.010600	3.558300	-10.712000	25.702291	0.000351	20.832494
1293.361393	-2.993500	3.557500	-10.648000	25.721695	0.000349	20.852457
1294.363475	-2.985500	3.557300	-10.619000	25.733447	0.000353	20.847192
1295.361315	-2.982900	3.558600	-10.614000	25.781551	0.000352	20.838613
1296.360800	-2.997500	3.556500	-10.660000	25.823759	0.000352	20.851138
1297.363751	-2.995500	3.557700	-10.656000	25.780779	0.000351	20.840682
1298.362205	-2.995900	3.556600	-10.654000	25.770999	0.000349	20.844608
1299.361881	-3.004200	3.556000	-10.682000	25.753332	0.000350	20.857682
1300.366319	-3.001600	3.556500	-10.675000	25.724270	0.000350	20.868319
1301.363220	-2.982100	3.556100	-10.604000	25.710404	0.000350	20.843013
1302.363495	-2.975000	3.555300	-10.576000	25.709287	0.000348	20.849478
1303.365050	-3.008700	3.555400	-10.696000	25.716122	0.000349	20.843067
1304.364162	-2.981800	3.554700	-10.599000	25.789167	0.000347	20.857642
1305.381212	-2.993000	3.554000	-10.637000	25.797191	0.000350	20.851004
1306.368608	-3.004300	3.554400	-10.678000	25.820989	0.000348	20.848357
1307.363911	-3.016500	3.553700	-10.718000	25.858632	0.000350	20.845393
1308.364763	-2.986600	3.554700	-10.616000	25.853956	0.000349	20.851601
1309.367911	-2.999600	3.553100	-10.657000	25.829372	0.000348	20.848716
1310.366934	-3.002300	3.551600	-10.661000	25.795907	0.000348	20.836438
1311.365403	-3.005400	3.553900	-10.680000	25.756301	0.000347	20.847862
1312.368981	-3.031200	3.550400	-10.761000	25.816135	0.000347	20.850119
1313.364089	-2.998800	3.551700	-10.650000	25.842933	0.000348	20.840054
1314.365783	-3.006300	3.553000	-10.680000	25.809925	0.000346	20.835821
1315.364732	-2.998400	3.551300	-10.647000	25.804979	0.000347	20.833697
1316.366736	-2.992300	3.551700	-10.627000	25.821278	0.000346	20.837268
1317.365691	-3.004900	3.551100	-10.670000	25.788487	0.000345	20.837994
1318.368017	-2.992800	3.550000	-10.623000	25.765008	0.000345	20.842384
1319.367456	-3.003900	3.549800	-10.662000	25.743766	0.000344	20.835272
1320.367520	-3.020100	3.549400	-10.719000	25.795071	0.000344	20.827064
1321.373950	-3.007200	3.549700	-10.673000	25.758527	0.000344	20.824969
1322.369440	-3.003500	3.548800	-10.658000	25.723099	0.000344	20.832057
1323.367764	-2.981800	3.549500	-10.583000	25.758134	0.000344	20.846384
1324.374474	-2.989400	3.548900	-10.608000	25.793286	0.000343	20.837598
1325.374727	-3.020600	3.547500	-10.714000	25.783270	0.000344	20.855038
1326.370785	-3.003400	3.547100	-10.652000	25.828388	0.000342	20.838719
1327.369761	-2.997700	3.546900	-10.631000	25.861871	0.000342	20.816880
1328.373867	-3.001900	3.545600	-10.643000	25.791738	0.000340	20.827508
1329.371803	-3.000400	3.546300	-10.639000	25.812910	0.000341	20.807999
1330.373015	-3.002900	3.546000	-10.647000	25.802422	0.000340	20.829232
1331.372068	-2.998600	3.546000	-10.632000	25.833128	0.000340	20.816455
1332.372779	-3.009400	3.546200	-10.671000	25.800579	0.000339	20.813156
1333.372662	-3.025800	3.545300	-10.726000	25.767885	0.000340	20.812084
1334.372901	-3.007700	3.544800	-10.661000	25.754594	0.000338	20.817226
1335.374690	-2.994400	3.546100	-10.617000	25.768554	0.000341	20.829351
1336.373907	-2.998900	3.546000	-10.633000	25.829048	0.000339	20.831322
1337.373841	-3.003800	3.543400	-10.643000	25.865786	0.000338	20.824131
1338.374495	-2.996300	3.544100	-10.618000	25.850731	0.000336	20.822284
1339.374806	-3.010900	3.544000	-10.670000	25.838729	0.000338	20.826349
1340.375147	-3.006300	3.544000	-10.653000	25.856169	0.000337	20.810677
1341.379359	-3.013800	3.542800	-10.676000	25.876637	0.000336	20.825074
1342.375337	-3.007800	3.542600	-10.654000	25.871391	0.000334	20.826917
1343.376399	-2.992000	3.542600	-10.598000	25.847265	0.000335	20.810268
1344.379124	-3.004000	3.542900	-10.642000	25.836208	0.000334	20.834247
1345.379468	-3.008800	3.540500	-10.651000	25.799513	0.000334	20.828207
1346.377579	-2.983300	3.541900	-10.565000	25.754419	0.000336	20.831748
1347.377666	-3.023400	3.541300	-10.706000	25.742937	0.000336	20.817371
1348.380026	-2.999100	3.540600	-10.617000	25.749895	0.000333	20.812032
1349.382474	-3.018600	3.539400	-10.683000	25.784280	0.000332	20.824285
1350.380536	-3.025800	3.538900	-10.706000	25.787634	0.000331	20.835240
1351.383455	-3.008900	3.539600	-10.650000	25.780303	0.000332	20.815548
1352.379490	-3.010200	3.538500	-10.650000	25.774437	0.000332	20.843795
1353.379964	-3.000600	3.539300	-10.618000	25.763108	0.000331	20.809656
1354.381646	-3.000700	3.540000	-10.621000	25.756425	0.000331	20.819539
1355.380402	-3.017600	3.538500	-10.676000	25.792177	0.000331	20.799502
1356.381447	-2.994300	3.539800	-10.598000	25.816801	0.000331	20.821391
1357.385342	-2.994000	3.537700	-10.591000	25.822756	0.000331	20.823105
1358.382348	-2.983100	3.537600	-10.552000	25.792050	0.000331	20.815969
1359.379850	-3.010300	3.536100	-10.644000	25.779531	0.000331	20.804342
1360.379467	-2.960100	3.538800	-10.474000	25.809466	0.000329	20.813548
1361.379773	-3.003500	3.536500	-10.621000	25.846927	0.000328	20.821308
1362.380901	-2.972200	3.537600	-10.514000	25.839031	0.000331	20.804367
1363.382174	-2.995200	3.535000	-10.587000	25.800271	0.000330	20.824227
1364.380525	-3.003900	3.536000	-10.622000	25.799307	0.000329	20.818043
1365.380021	-3.001900	3.535200	-10.611000	25.797021	0.000328	20.810531
1366.381665	-3.007400	3.536400	-10.634000	25.779379	0.000326	20.802767
1367.380162	-3.006600	3.535400	-10.629000	25.800743	0.000328	20.831339
1368.379463	-2.995300	3.534500	-10.586000	25.770907	0.000327	20.824602
1369.379642	-2.983000	3.533500	-10.540000	25.762956	0.000329	20.820883
1370.383886	-3.000000	3.533700	-10.600000	25.798334	0.000327	20.804737
1371.383795	-3.026300	3.533600	-10.692000	25.797361	0.000328	20.811820
1372.383668	-2.994500	3.532200	-10.577000	25.793658	0.000326	20.824222
1373.387178	-3.016800	3.532900	-10.657000	25.732789	0.000325	20.782996
1374.384918	-3.033700	3.531000	-10.711000	25.756260	0.000325	20.832649
1375.383040	-3.009400	3.532800	-10.630000	25.804206	0.000324	20.802575
1376.386617	-3.005700	3.531100	-10.612000	25.819709	0.000326	20.785431
1377.384731	-3.029200	3.530400	-10.693000	25.857199	0.000326	20.788953
1378.383362	-2.997600	3.530800	-10.583000	25.865642	0.000322	20.821141
1379.383442	-2.995000	3.529700	-10.569000	25.857888	0.000323	20.827577
1380.384899	-2.987100	3.531900	-10.549000	25.876965	0.000322	20.791739
1381.384651	-2.978000	3.530700	-10.514000	25.869138	0.000324	20.800946
1382.382843	-2.985800	3.532100	-10.545000	25.865662	0.000324	20.807885
1383.382787	-3.009300	3.528800	-10.619000	25.867820	0.000323	20.813847
1384.387367	-2.984000	3.528400	-10.528000	25.873041	0.000322	20.809609
1385.384181	-2.983600	3.528600	-10.527000	25.874428	0.000320	20.805786
1386.383811	-2.997200	3.528000	-10.573000	25.846256	0.000322	20.827271
1387.388708	-2.993000	3.527900	-10.558000	25.892266	0.000324	20.797627
1388.384732	-2.991300	3.526500	-10.548000	25.865058	0.000320	20.813442
1389.385310	-2.981400	3.527700	-10.517000	25.889650	0.000320	20.808750
1390.390026	-3.018700	3.526400	-10.645000	25.849880	0.000317	20.803411
1391.387039	-2.994900	3.526500	-10.560000	25.836339	0.000320	20.804033
1392.393814	-3.019800	3.525500	-10.645000	25.820885	0.000319	20.793251
1393.390311	-2.998900	3.525300	-10.571000	25.814921	0.000317	20.803382
1394.388152	-2.977400	3.525600	-10.496000	25.822621	0.000317	20.809694
1395.386773	-3.022100	3.525100	-10.653000	25.881253	0.000318	20.803159
1396.393629	-2.991400	3.524900	-10.543000	25.846591	0.000318	20.804375
1397.388756	-2.997300	3.524400	-10.563000	25.830867	0.000317	20.785735
1398.387599	-3.018600	3.523100	-10.634000	25.825925	0.000315	20.803530
1399.390868	-2.997900	3.523900	-10.564000	25.839191	0.000314	20.815433
1400.392020	-3.016600	3.522600	-10.625000	25.850667	0.000316	20.794245
1401.388368	-3.020600	3.523200	-10.641000	25.798248	0.000316	20.812238
1402.390778	-3.026700	3.521700	-10.659000	25.782819	0.000315	20.810489
1403.392187	-2.969300	3.523800	-10.463000	25.778168	0.000315	20.788274
1404.389339	-3.006700	3.523000	-10.591000	25.764926	0.000316	20.767386
1405.389530	-3.007100	3.522000	-10.590000	25.795633	0.000315	20.804869
1406.390923	-3.007600	3.521500	-10.589000	25.761720	0.000312	20.780761
1407.389854	-3.005200	3.521400	-10.582000	25.784973	0.000313	20.790368
1408.390822	-3.011200	3.520600	-10.600000	25.779924	0.000312	20.784348
1409.390886	-3.008800	3.520200	-10.590000	25.779063	0.000314	20.783957
1410.391392	-3.017700	3.519900	-10.620000	25.769067	0.000310	20.786244
1411.391938	-3.014100	3.519700	-10.608000	25.781438	0.000312	20.779705
1412.394576	-2.992700	3.520800	-10.536000	25.796116	0.000313	20.771215
1413.393046	-2.988100	3.520000	-10.517000	25.775892	0.000311	20.781721
1414.393598	-2.997700	3.519700	-10.550000	25.786253	0.000313	20.774584
1415.395583	-2.998500	3.517300	-10.546000	25.792389	0.000311	20.786438
1416.394733	-2.976200	3.519500	-10.473000	25.804234	0.000310	20.791224
1417.395368	-3.001700	3.517900	-10.559000	25.850940	0.000311	20.781242
1418.397405	-2.997800	3.517300	-10.543000	25.866914	0.000309	20.796815
1419.394019	-3.004000	3.516500	-10.563000	25.882362	0.000308	20.781988
1420.395398	-3.036700	3.517400	-10.681000	25.898882	0.000308	20.779617
1421.396527	-3.006700	3.516500	-10.572000	25.948956	0.000310	20.780611
1422.396006	-3.022200	3.515000	-10.622000	25.866138	0.000308	20.784656
1423.396019	-3.013200	3.516500	-10.595000	25.853566	0.000306	20.798105
1424.396528	-3.023800	3.514900	-10.627000	25.828274	0.000306	20.785975
1425.399965	-3.007600	3.514800	-10.569000	25.807579	0.000307	20.777040
1426.396632	-3.028300	3.514900	-10.643000	25.868415	0.000306	20.791685
1427.401618	-3.001600	3.515000	-10.550000	25.855326	0.000306	20.790865
1428.399582	-3.008500	3.514700	-10.573000	25.884890	0.000305	20.772199
1429.398439	-3.017700	3.513800	-10.603000	25.873558	0.000304	20.787368
1430.403296	-3.005500	3.513100	-10.558000	25.838482	0.000305	20.773469
1431.400709	-3.009400	3.512600	-10.570000	25.840817	0.000303	20.793833
1432.398939	-2.999000	3.512800	-10.534000	25.836938	0.000304	20.784247
1433.403258	-3.004000	3.513900	-10.555000	25.867274	0.000303	20.761615
1434.402436	-2.997900	3.513000	-10.531000	25.932432	0.000305	20.772071
1435.400882	-2.982200	3.512600	-10.474000	25.980597	0.000303	20.779208
1436.406831	-3.000000	3.510300	-10.529000	25.960151	0.000304	20.783797
1437.402631	-2.987700	3.511300	-10.490000	25.913283	0.000302	20.782231
1438.402089	-3.000000	3.509300	-10.527000	25.935638	0.000302	20.771972
1439.402628	-3.013400	3.508200	-10.571000	25.909728	0.000300	20.773444
1440.405739	-3.013200	3.509400	-10.573000	25.829370	0.000301	20.774748
1441.403007	-3.007700	3.509600	-10.555000	25.817393	0.000303	20.759397
1442.403831	-3.012000	3.508900	-10.567000	25.865420	0.000302	20.763071
1443.402838	-2.996500	3.509200	-10.514000	25.909212	0.000303	20.763442
1444.405579	-2.982800	3.509300	-10.467000	25.909487	0.000303	20.771305
1445.403645	-3.023600	3.507500	-10.605000	25.926178	0.000301	20.776694
1446.406446	-2.976900	3.508700	-10.444000	25.946871	0.000299	20.765714
1447.402362	-2.983400	3.509500	-10.469000	25.914280	0.000302	20.782285
1448.403097	-2.964200	3.508800	-10.400000	25.882805	0.000302	20.767734
1449.411589	-2.980800	3.507800	-10.456000	25.895849	0.000301	20.778467
1450.403997	-2.983100	3.507800	-10.464000	25.951743	0.000300	20.772505
1451.402987	-2.998000	3.508000	-10.516000	25.938799	0.000300	20.761871
1452.405414	-2.976100	3.505800	-10.433000	25.953552	0.000300	20.766736
1453.404733	-2.974700	3.507300	-10.433000	25.920917	0.000300	20.776624
1454.403419	-3.015000	3.505100	-10.567000	25.891601	0.000297	20.769932
1455.407136	-2.967100	3.505800	-10.401000	25.860950	0.000297	20.772806
1456.406021	-2.992800	3.503900	-10.485000	25.874884	0.000298	20.756457
1457.405626	-2.973100	3.505500	-10.420000	25.930554	0.000299	20.779667
1458.407368	-3.015800	3.503100	-10.563000	25.887279	0.000298	20.762271
1459.408108	-3.002500	3.503900	-10.519000	25.871330	0.000297	20.771853
1460.407765	-3.003700	3.503100	-10.520000	25.834090	0.000297	20.765739
1461.407815	-3.008200	3.502100	-10.534000	25.857293	0.000298	20.780986
1462.407253	-3.009700	3.502900	-10.541000	25.860921	0.000296	20.764716
1463.407283	-2.999400	3.501900	-10.503000	25.826066	0.000296	20.743453
1464.408036	-2.993600	3.502300	-10.484000	25.868522	0.000298	20.773775
1465.410038	-2.991800	3.502900	-10.478000	25.912216	0.000296	20.753183
1466.408198	-2.982300	3.502700	-10.445000	25.964924	0.000297	20.752082
1467.407508	-2.986300	3.500900	-10.454000	25.968950	0.000296	20.754230
1468.406426	-3.001600	3.500400	-10.506000	25.996845	0.000295	20.770401
1469.412002	-2.995000	3.499700	-10.481000	25.995896	0.000296	20.762810
1470.407992	-2.973200	3.500800	-10.407000	25.982677	0.000293	20.768496
1471.408736	-2.993900	3.499100	-10.474000	25.954861	0.000295	20.751455
1472.411202	-2.988300	3.499300	-10.456000	25.940402	0.000293	20.760163
1473.408148	-2.998100	3.498400	-10.487000	25.898027	0.000294	20.783026
1474.409508	-2.996100	3.497900	-10.479000	25.893878	0.000292	20.748511
1475.414474	-2.999800	3.499200	-10.496000	25.884856	0.000293	20.762208
1476.407929	-3.035300	3.496400	-10.612000	25.883165	0.000292	20.778527
1477.408744	-3.020700	3.497200	-10.563000	25.891862	0.000291	20.755970
1478.408526	-3.023700	3.496600	-10.571000	25.877649	0.000292	20.734578
1479.409994	-3.002600	3.497500	-10.501000	25.926706	0.000291	20.757783
1480.408790	-3.001700	3.498100	-10.500000	25.946307	0.000292	20.777476
1481.414894	-3.015300	3.495800	-10.539000	25.896204	0.000290	20.768867
1482.409944	-3.037300	3.495600	-10.617000	25.917119	0.000289	20.745781
1483.410284	-3.005600	3.496900	-10.509000	25.916868	0.000290	20.766392
1484.410763	-3.007000	3.495700	-10.511000	25.954429	0.000290	20.775678
1485.411074	-3.032200	3.494100	-10.593000	25.972712	0.000289	20.752320
1486.411770	-3.014500	3.495200	-10.535000	25.967738	0.000289	20.767712
1487.410086	-2.997000	3.494000	-10.471000	25.936318	0.000287	20.789251
1488.411095	-2.999800	3.494500	-10.482000	25.900074	0.000286	20.775599
1489.410350	-2.986300	3.493700	-10.432000	25.879906	0.000288	20.779046
1490.411214	-2.982600	3.493700	-10.420000	25.881273	0.000288	20.762401
1491.412012	-2.996700	3.494400	-10.471000	25.879508	0.000285	20.787181
1492.410779	-3.008600	3.492000	-10.505000	25.877123	0.000284	20.763923
1493.411697	-2.981700	3.491900	-10.411000	25.954458	0.000286	20.773336
1494.414517	-2.995400	3.493200	-10.463000	25.937340	0.000284	20.771786
1495.411072	-3.002900	3.491900	-10.485000	25.948593	0.000285	20.767918
1496.410637	-2.997200	3.491800	-10.464000	25.924125	0.000286	20.777950
1497.411158	-2.998700	3.491400	-10.468000	25.886140	0.000284	20.750695
1498.411490	-3.031300	3.489300	-10.576000	25.914558	0.000283	20.755536
1499.410452	-3.005000	3.490600	-10.488000	25.888726	0.000282	20.762302
1500.411716	-3.000900	3.490500	-10.474000	25.901568	0.000285	20.771410
1501.411294	-2.983600	3.490800	-10.415000	25.935423	0.000284	20.770808
1502.410352	-2.984800	3.490000	-10.416000	25.944297	0.000284	20.784464
1503.412538	-2.984500	3.488700	-10.411000	25.905816	0.000284	20.768091
1504.411980	-3.004600	3.488700	-10.482000	25.902237	0.000283	20.778721
1505.411334	-2.990200	3.488800	-10.432000	25.920300	0.000281	20.772685
1506.414227	-3.009400	3.487400	-10.494000	25.951848	0.000284	20.789680
1507.416820	-3.014100	3.487100	-10.510000	25.997328	0.000283	20.788431
1508.412534	-3.011000	3.486700	-10.498000	25.967320	0.000281	20.795267
1509.412619	-3.012700	3.487100	-10.505000	25.967172	0.000279	20.785635
1510.413305	-3.004000	3.486100	-10.472000	25.982373	0.000280	20.769139
1511.413301	-3.005200	3.485800	-10.474000	25.918855	0.000278	20.791622
1512.413687	-2.991600	3.485600	-10.427000	25.888102	0.000281	20.792970
1513.415596	-3.001800	3.486300	-10.464000	25.930708	0.000280	20.781244
1514.413390	-2.998300	3.486700	-10.453000	25.979365	0.000280	20.782712
1515.414576	-3.000000	3.484000	-10.451000	25.959941	0.000278	20.788802
1516.417139	-2.996800	3.484900	-10.442000	25.947444	0.000278	20.790471
1517.414110	-2.969100	3.485100	-10.345000	25.921760	0.000279	20.773678
1518.416604	-2.977200	3.484400	-10.372000	25.906505	0.000277	20.794388
1519.415529	-2.992700	3.484800	-10.428000	25.925286	0.000278	20.778642
1520.415397	-2.986600	3.483400	-10.403000	25.893260	0.000278	20.778237
1521.414597	-3.028200	3.483000	-10.546000	25.899126	0.000277	20.800251
1522.421683	-3.009600	3.482800	-10.481000	25.915522	0.000277	20.790170
1523.424110	-2.994300	3.482300	-10.427000	25.930424	0.000277	20.781907
1524.414956	-3.012700	3.481500	-10.488000	25.948880	0.000276	20.789543
1525.414577	-3.009400	3.481000	-10.475000	25.929205	0.000276	20.793011
1526.418969	-2.994300	3.481700	-10.425000	25.976155	0.000277	20.802721
1527.417586	-3.020500	3.481200	-10.514000	25.937425	0.000274	20.785622
1528.418038	-2.988400	3.481800	-10.404000	25.899539	0.000275	20.768424
1529.416932	-3.014800	3.479000	-10.487000	25.927986	0.000275	20.787518
1530.417415	-3.015200	3.478100	-10.486000	25.962336	0.000273	20.799743
1531.418670	-3.002700	3.478600	-10.444000	25.973171	0.000272	20.788343
1532.420054	-2.990200	3.479600	-10.404000	25.983948	0.000272	20.794429
1533.419262	-2.983500	3.479000	-10.378000	25.949991	0.000272	20.797772
1534.419056	-3.010300	3.479900	-10.475000	25.933974	0.000270	20.805862
1535.420085	-3.027800	3.478700	-10.532000	25.928585	0.000273	20.779112
1536.419081	-2.998000	3.478700	-10.428000	25.945994	0.000270	20.819835
1537.419222	-3.012600	3.477000	-10.473000	25.881834	0.000270	20.783829
1538.419456	-2.996900	3.476900	-10.419000	25.878083	0.000273	20.805190
1539.419530	-2.997700	3.477900	-10.425000	25.884637	0.000268	20.798498
1540.420557	-2.993800	3.476900	-10.408000	25.885114	0.000271	20.781433
1541.420385	-2.988100	3.476800	-10.388000	25.898949	0.000270	20.800548
1542.421758	-2.977300	3.476800	-10.350000	25.927813	0.000269	20.803467
1543.420550	-3.013200	3.475000	-10.470000	25.906751	0.000268	20.787523
1544.420113	-3.013500	3.475000	-10.471000	25.907793	0.000268	20.799476
1545.421059	-3.020000	3.474400	-10.492000	25.888048	0.000266	20.791968
1546.419811	-2.993800	3.474700	-10.402000	25.857570	0.000269	20.783635
1547.419911	-2.995600	3.474700	-10.407000	25.892001	0.000267	20.787878
1548.420970	-3.003400	3.473400	-10.431000	25.935674	0.000266	20.788130
1549.421414	-2.998800	3.474500	-10.418000	25.985652	0.000267	20.814633
1550.421271	-2.979100	3.473600	-10.347000	25.950231	0.000268	20.811763
1551.421302	-2.978900	3.473400	-10.345000	25.942708	0.000265	20.806577
1552.424292	-3.009900	3.472400	-10.450000	25.913446	0.000266	20.824120
1553.423998	-3.021700	3.472000	-10.491000	25.907462	0.000265	20.780177
1554.423646	-3.013800	3.473400	-10.468000	25.936331	0.000265	20.797325
1555.425556	-2.989600	3.471500	-10.377000	25.981167	0.000266	20.788316
1556.427000	-2.990600	3.471700	-10.382000	25.992150	0.000264	20.800772
1557.427363	-3.012500	3.473000	-10.461000	26.002586	0.000264	20.803671
1558.425910	-3.004000	3.471700	-10.428000	26.044411	0.000262	20.796856
1559.428532	-2.995700	3.471200	-10.398000	26.049258	0.000264	20.787501
1560.425917	-2.984700	3.470900	-10.358000	26.039799	0.000263	20.791274
1561.430467	-3.001800	3.470900	-10.418000	26.020873	0.000262	20.819199
1562.429299	-3.004300	3.470200	-10.424000	26.016286	0.000264	20.789460
1563.426092	-2.980900	3.470100	-10.343000	26.012810	0.000263	20.811572
1564.429492	-2.978100	3.469700	-10.331000	26.032135	0.000261	20.808229
1565.428838	-2.995100	3.468500	-10.387000	26.007147	0.000263	20.805883
1566.428672	-3.007500	3.467500	-10.428000	25.997142	0.000260	20.810530
1567.429821	-2.997300	3.467100	-10.391000	26.011280	0.000260	20.797233
1568.429494	-2.974500	3.469000	-10.317000	26.002436	0.000262	20.796409
1569.429450	-2.986700	3.468700	-10.359000	26.014210	0.000261	20.817721
1570.430283	-2.991100	3.467500	-10.370000	26.063644	0.000262	20.835619
1571.430158	-2.985500	3.468000	-10.352000	26.043125	0.000262	20.796512
1572.432128	-2.980400	3.467200	-10.332000	25.983646	0.000258	20.816411
1573.432102	-3.013600	3.465700	-10.443000	25.992805	0.000260	20.815181
1574.430573	-2.995800	3.466100	-10.382000	25.933348	0.000257	20.800966
1575.432738	-3.032900	3.465000	-10.508000	25.942217	0.000259	20.809402
1576.429862	-3.010500	3.463900	-10.427000	25.955953	0.000260	20.819883
1577.430920	-3.007100	3.463600	-10.415000	26.010104	0.000258	20.828294
1578.430142	-3.008100	3.465400	-10.424000	26.028259	0.000259	20.807179
1579.431541	-3.012000	3.464400	-10.434000	26.070166	0.000257	20.817991
1580.431051	-3.028500	3.463600	-10.487000	26.080519	0.000258	20.793305
1581.430459	-3.006900	3.464300	-10.416000	26.078906	0.000260	20.816815
1582.435285	-2.992400	3.463600	-10.363000	26.053418	0.000259	20.818233
1583.431147	-3.012900	3.463600	-10.434000	25.964374	0.000260	20.840671
1584.434533	-3.003600	3.462500	-10.399000	25.985391	0.000256	20.813422
1585.433316	-3.010300	3.461200	-10.418000	26.009485	0.000257	20.806809
1586.429894	-2.998900	3.461600	-10.380000	25.994633	0.000256	20.827923
1587.431217	-2.989700	3.461400	-10.348000	25.986630	0.000255	20.816089
1588.433721	-3.006000	3.460200	-10.400000	25.937969	0.000255	20.834531
1589.432808	-3.012600	3.459900	-10.423000	25.970810	0.000253	20.805885
1590.434379	-3.006500	3.459900	-10.401000	25.975308	0.000256	20.802344
1591.436520	-3.000600	3.460500	-10.383000	25.977319	0.000254	20.846088
1592.434277	-2.981700	3.461000	-10.319000	25.979806	0.000254	20.824406
1593.442457	-3.005100	3.458500	-10.392000	26.023499	0.000255	20.803820
1594.434093	-3.002400	3.459700	-10.386000	26.056677	0.000253	20.806335
1595.437031	-2.987300	3.459500	-10.333000	26.034152	0.000256	20.815946
1596.433984	-2.998400	3.459900	-10.373000	26.025761	0.000253	20.826006
1597.432824	-2.991700	3.459800	-10.350000	26.031842	0.000251	20.824530
1598.434888	-3.012300	3.458700	-10.418000	26.056608	0.000251	20.831869
1599.433987	-3.011000	3.458000	-10.411000	26.097320	0.000251	20.814454
1600.433703	-2.993200	3.458200	-10.349000	26.080233	0.000252	20.846596
1601.434809	-3.001700	3.457500	-10.378000	26.043678	0.000250	20.835947
1602.436374	-2.996600	3.457400	-10.360000	26.046957	0.000251	20.819802
1603.434819	-2.990600	3.456300	-10.336000	26.053490	0.000248	20.853866
1604.437325	-3.003300	3.456100	-10.379000	26.016208	0.000249	20.823047
1605.436590	-2.981300	3.455800	-10.302000	25.987872	0.000250	20.841044
1606.435047	-2.976600	3.456300	-10.286000	25.967204	0.000248	20.831660
1607.435711	-2.992600	3.454600	-10.337000	25.991102	0.000247	20.825797
1608.436469	-2.984900	3.455800	-10.314000	25.958837	0.000249	20.842219
1609.435020	-3.000600	3.455100	-10.366000	25.965665	0.000247	20.819683
1610.436336	-2.978300	3.455600	-10.290000	25.952209	0.000250	20.832242
1611.441316	-2.995400	3.455200	-10.349000	25.959063	0.000248	20.824429
1612.436912	-3.007000	3.453400	-10.383000	25.951393	0.000247	20.835689
1613.438113	-2.991600	3.453400	-10.331000	25.900420	0.000248	20.834267
1614.438428	-3.014300	3.452700	-10.407000	25.930552	0.000245	20.846995
1615.437869	-2.999900	3.452200	-10.355000	25.959146	0.000245	20.838262
1616.437949	-3.005500	3.452600	-10.376000	25.939869	0.000247	20.837388
1617.438326	-3.009000	3.452000	-10.386000	25.956515	0.000245	20.841310
1618.440548	-2.999400	3.451800	-10.352000	25.949460	0.000244	20.838964
1619.439487	-2.984500	3.452300	-10.303000	25.988534	0.000244	20.854037
1620.441855	-2.981800	3.452400	-10.293000	26.006419	0.000244	20.834074
1621.442470	-2.989400	3.451100	-10.316000	26.051080	0.000247	20.843858
1622.439092	-2.993900	3.450000	-10.329000	26.061437	0.000244	20.835773
1623.441086	-3.006600	3.450000	-10.372000	26.083937	0.000246	20.850792
1624.440300	-2.996800	3.449800	-10.338000	26.082054	0.000243	20.858857
1625.442929	-2.997600	3.449500	-10.339000	26.102346	0.000243	20.846055
1626.440688	-3.009800	3.449900	-10.382000	26.096388	0.000244	20.826793
1627.442266	-2.997900	3.448800	-10.339000	26.143474	0.000243	20.856560
1628.444342	-3.010600	3.448200	-10.380000	26.099092	0.000242	20.849898
1629.441269	-3.004400	3.448100	-10.358000	26.097307	0.000243	20.851424
1630.444992	-3.012000	3.447400	-10.382000	26.102267	0.000242	20.851192
1631.442534	-2.986300	3.448400	-10.297000	26.109227	0.000241	20.851073
1632.441288	-2.987200	3.446600	-10.295000	26.102744	0.000241	20.847404
1633.440809	-2.959300	3.447000	-10.200000	26.106494	0.000241	20.873930
1634.441897	-3.003400	3.446300	-10.350000	26.152115	0.000242	20.854338
1635.442994	-3.006400	3.446400	-10.360000	26.138435	0.000240	20.848179
1636.443987	-3.012000	3.444900	-10.375000	26.126289	0.000240	20.846406
1637.442381	-3.010600	3.445300	-10.372000	26.094668	0.000240	20.855884
1638.443355	-2.979400	3.446700	-10.268000	26.097902	0.000240	20.852496
1639.444088	-3.014300	3.444200	-10.381000	26.103363	0.000241	20.852767
1640.443064	-3.015400	3.443300	-10.383000	26.075590	0.000238	20.858052
1641.446043	-2.987400	3.444900	-10.289000	26.056291	0.000240	20.861895
1642.443793	-2.985800	3.443100	-10.280000	26.001449	0.000238	20.856106
1643.444911	-2.992400	3.443100	-10.302000	25.997251	0.000237	20.846199
1644.447510	-2.979500	3.443200	-10.258000	25.969902	0.000238	20.853810
1645.446190	-2.967600	3.443600	-10.218000	25.940970	0.000239	20.860778
1646.445294	-3.015600	3.442600	-10.380000	25.954131	0.000237	20.862621
1647.451108	-3.005000	3.442400	-10.343000	26.036151	0.000239	20.853988
1648.446014	-3.015700	3.441300	-10.376000	26.036893	0.000237	20.881759
1649.445895	-3.014500	3.441200	-10.372000	26.051227	0.000236	20.858230
1650.451227	-3.012800	3.441200	-10.366000	26.102695	0.000236	20.858259
1651.445879	-3.002900	3.440500	-10.330000	26.068939	0.000237	20.843784
1652.450452	-2.990700	3.440500	-10.289000	26.060420	0.000235	20.862250
1653.445487	-2.999500	3.440300	-10.318000	26.089334	0.000235	20.855740
1654.449206	-2.989100	3.439800	-10.281000	26.089162	0.000234	20.887334
1655.448966	-2.988500	3.440000	-10.279000	26.149859	0.000234	20.866769
1656.447685	-3.004400	3.440000	-10.334000	26.154282	0.000232	20.855093
1657.451315	-3.042400	3.438700	-10.460000	26.171220	0.000232	20.874483
1658.449286	-3.000700	3.438500	-10.317000	26.110274	0.000234	20.868719
1659.452077	-2.999000	3.438600	-10.312000	26.115489	0.000234	20.866374
1660.452842	-3.018900	3.438500	-10.380000	26.126392	0.000232	20.868794
1661.450378	-2.978900	3.438300	-10.241000	26.171422	0.000233	20.875159
1662.450763	-3.016300	3.436900	-10.366000	26.163818	0.000234	20.886484
1663.453071	-3.010300	3.437400	-10.347000	26.145518	0.000232	20.899389
1664.449747	-3.003600	3.436600	-10.322000	26.143537	0.000234	20.879856
1665.449970	-3.007900	3.437300	-10.339000	26.137550	0.000231	20.888064
1666.453278	-2.991800	3.436400	-10.280000	26.151333	0.000233	20.885792
1667.450965	-3.001400	3.435900	-10.311000	26.144702	0.000231	20.892879
1668.450482	-2.995500	3.435500	-10.291000	26.081070	0.000231	20.887264
1669.449958	-3.012400	3.435300	-10.348000	26.074463	0.000231	20.893902
1670.451736	-3.003000	3.434800	-10.314000	26.054279	0.000230	20.878364
1671.449707	-2.981400	3.435200	-10.240000	26.070796	0.000228	20.857977
1672.452091	-2.994900	3.434600	-10.285000	26.052563	0.000229	20.894657
1673.452423	-2.980200	3.435700	-10.238000	26.064263	0.000231	20.908307
1674.450807	-3.005400	3.432500	-10.315000	26.076906	0.000229	20.871702
1675.450567	-2.979300	3.433500	-10.228000	26.063746	0.000228	20.888350
1676.451263	-2.979700	3.432000	-10.225000	26.065187	0.000228	20.892642
1677.454117	-2.988800	3.433000	-10.259000	26.052174	0.000228	20.881939
1678.456079	-2.981700	3.432600	-10.234000	26.079816	0.000227	20.887900
1679.453392	-3.001200	3.430800	-10.295000	26.136374	0.000226	20.881193
1680.459089	-2.975100	3.433500	-10.214000	26.166283	0.000228	20.882324
1681.453179	-2.996900	3.432300	-10.285000	26.124360	0.000227	20.914163
1682.452399	-2.994300	3.430500	-10.270000	26.141303	0.000225	20.901318
1683.458292	-2.985900	3.430800	-10.243000	26.199117	0.000226	20.900142
1684.451909	-2.995100	3.431600	-10.277000	26.154520	0.000224	20.906063
1685.452953	-2.968400	3.431000	-10.184000	26.117591	0.000225	20.888398
1686.452659	-3.007400	3.430000	-10.314000	26.149035	0.000225	20.898655
1687.455963	-2.979700	3.430000	-10.219000	26.170741	0.000225	20.905767
1688.453564	-2.982100	3.429400	-10.226000	26.174668	0.000227	20.892645
1689.454724	-2.973100	3.430100	-10.198000	26.130287	0.000225	20.882189
1690.457903	-2.983100	3.429500	-10.230000	26.082036	0.000224	20.884441
1691.457223	-2.989000	3.429400	-10.250000	26.126521	0.000225	20.904008
1692.457571	-2.995600	3.427000	-10.265000	26.098458	0.000224	20.890036
1693.458192	-2.998000	3.427700	-10.275000	26.144010	0.000223	20.874642
1694.455800	-3.003200	3.426200	-10.289000	26.127789	0.000224	20.873991
1695.457617	-2.989600	3.427600	-10.246000	26.098586	0.000222	20.868829
1696.456939	-3.015000	3.427600	-10.334000	26.115771	0.000224	20.893207
1697.456898	-2.995900	3.425300	-10.261000	26.153398	0.000222	20.891187
1698.459846	-2.993400	3.426500	-10.256000	26.193807	0.000224	20.886273
1699.460592	-2.998100	3.426400	-10.272000	26.157026	0.000223	20.868755
1700.459084	-2.995700	3.425200	-10.260000	26.131967	0.000221	20.883878
1701.462811	-3.006900	3.425500	-10.299000	26.103683	0.000219	20.874899
1702.462164	-2.997200	3.426000	-10.268000	26.092756	0.000224	20.875299
1703.461256	-2.995200	3.425200	-10.258000	26.102223	0.000223	20.865371
1704.462907	-3.010400	3.424300	-10.307000	26.126457	0.000223	20.873600
1705.462519	-3.013900	3.424000	-10.318000	26.178466	0.000219	20.888401
1706.462170	-3.021500	3.422000	-10.339000	26.168036	0.000221	20.889300
1707.463343	-3.010900	3.422500	-10.304000	26.153580	0.000221	20.875723
1708.465484	-2.995500	3.422300	-10.250000	26.112949	0.000222	20.857657
1709.462648	-3.008100	3.421900	-10.292000	26.097200	0.000220	20.883082
1710.463855	-3.004300	3.422000	-10.279000	26.096408	0.000219	20.859055
1711.465823	-2.985800	3.422100	-10.218000	26.128693	0.000220	20.863046
1712.464568	-3.001200	3.421300	-10.267000	26.132365	0.000219	20.880011
1713.464102	-3.010700	3.420700	-10.298000	26.130453	0.000220	20.857228
1714.465353	-3.007600	3.418900	-10.282000	26.114208	0.000219	20.863189
1715.464055	-2.990300	3.419800	-10.225000	26.117265	0.000220	20.844925
1716.464859	-2.975100	3.421000	-10.177000	26.173541	0.000217	20.855005
1717.465724	-2.994000	3.419200	-10.236000	26.138893	0.000217	20.856700
1718.466032	-3.011000	3.418900	-10.293000	26.141253	0.000218	20.856700
1719.468792	-2.992500	3.418200	-10.228000	26.141749	0.000215	20.880905
1720.469693	-2.986900	3.419400	-10.213000	26.137699	0.000216	20.877309
1721.465352	-3.012500	3.419300	-10.300000	26.123641	0.000216	20.879779
1722.469938	-2.990100	3.418700	-10.222000	26.127116	0.000213	20.856720
1723.467969	-2.979900	3.419300	-10.188000	26.098734	0.000216	20.868503
1724.466182	-3.009000	3.417900	-10.284000	26.083657	0.000213	20.848141
1725.465974	-3.011800	3.417900	-10.294000	26.108889	0.000214	20.861164
1726.468805	-2.998300	3.417000	-10.245000	26.127543	0.000214	20.846244
1727.468760	-2.997600	3.415900	-10.238000	26.138023	0.000212	20.843972
1728.467916	-2.987600	3.416300	-10.205000	26.147038	0.000211	20.852082
1729.467643	-3.010900	3.415800	-10.284000	26.151934	0.000212	20.858897
1730.470331	-3.011100	3.414600	-10.280000	26.176549	0.000212	20.867510
1731.469566	-3.020700	3.415600	-10.316000	26.233943	0.000214	20.851217
1732.469178	-2.994700	3.415100	-10.226000	26.270623	0.000210	20.853464
1733.470816	-3.018800	3.413800	-10.304000	26.261334	0.000210	20.852664
1734.468206	-3.000800	3.413100	-10.241000	26.272761	0.000212	20.843285
1735.470522	-2.999100	3.413200	-10.236000	26.284807	0.000209	20.855390
1736.471447	-2.986300	3.412700	-10.191000	26.271276	0.000209	20.854121
1737.469675	-3.005600	3.413200	-10.257000	26.243660	0.000209	20.834904
1738.468691	-3.008600	3.411800	-10.263000	26.219075	0.000210	20.842914
1739.470617	-3.016900	3.413400	-10.297000	26.201223	0.000208	20.845838
1740.473939	-2.990600	3.412900	-10.206000	26.235068	0.000208	20.842391
1741.469950	-3.012400	3.412400	-10.278000	26.203258	0.000208	20.844564
1742.469807	-2.992600	3.411400	-10.208000	26.201523	0.000208	20.833338
1743.471721	-3.007200	3.411500	-10.258000	26.159458	0.000205	20.831846
1744.471367	-2.981700	3.412200	-10.173000	26.123944	0.000207	20.841679
1745.471684	-3.006900	3.411700	-10.257000	26.117416	0.000206	20.839861
1746.474092	-2.997000	3.411500	-10.224000	26.155688	0.000207	20.838014
1747.470385	-2.997200	3.411200	-10.223000	26.185263	0.000205	20.835965
1748.471449	-2.999100	3.410100	-10.227000	26.198180	0.000205	20.835668
1749.477131	-3.016900	3.410000	-10.287000	26.199522	0.000205	20.822792
1750.473246	-3.009400	3.410200	-10.262000	26.260369	0.000205	20.820876
1751.473706	-2.996600	3.409200	-10.215000	26.237795	0.000201	20.853665
1752.474712	-2.995500	3.407800	-10.207000	26.273860	0.000203	20.836804
1753.474490	-3.027200	3.406500	-10.310000	26.242592	0.000204	20.850899
1754.472588	-3.013500	3.406900	-10.266000	26.201448	0.000205	20.843693
1755.475775	-3.017500	3.406900	-10.279000	26.165242	0.000200	20.836709
1756.475137	-3.012700	3.407000	-10.263000	26.116093	0.000200	20.847066
1757.473548	-2.993000	3.406600	-10.195000	26.142297	0.000202	20.829775
1758.476222	-3.003700	3.407800	-10.236000	26.160577	0.000202	20.848143
1759.475174	-3.003100	3.405500	-10.226000	26.177368	0.000201	20.838937
1760.473196	-3.006500	3.405600	-10.238000	26.195200	0.000202	20.811338
1761.474547	-3.003200	3.405400	-10.226000	26.260294	0.000202	20.831706
1762.473504	-2.993800	3.407000	-10.199000	26.308818	0.000202	20.824045
1763.474281	-3.003400	3.405900	-10.228000	26.222351	0.000199	20.822025
1764.474735	-3.022700	3.404100	-10.288000	26.212816	0.000203	20.832358
1765.474428	-2.989500	3.404500	-10.177000	26.224017	0.000201	20.809001
1766.475942	-3.008200	3.403400	-10.237000	26.209989	0.000200	20.820509
1767.476244	-3.006300	3.402800	-10.229000	26.219770	0.000200	20.815639
1768.476239	-3.006100	3.403200	-10.229000	26.246896	0.000200	20.839104
1769.480123	-2.982800	3.403700	-10.151000	26.220497	0.000199	20.828223
1770.476657	-2.994900	3.403200	-10.191000	26.205320	0.000199	20.812972
1771.478013	-3.002700	3.402400	-10.215000	26.159004	0.000200	20.798673
1772.478657	-3.006500	3.401700	-10.226000	26.127835	0.000201	20.803390
1773.477931	-2.995600	3.402000	-10.190000	26.181206	0.000199	20.817190
1774.478838	-2.998600	3.401800	-10.199000	26.249378	0.000199	20.834012
1775.488072	-3.013500	3.400100	-10.244000	26.276768	0.000198	20.814123
1776.478194	-3.000100	3.401100	-10.203000	26.251044	0.000197	20.820988
1777.478080	-2.997100	3.401900	-10.195000	26.261272	0.000199	20.820835
1778.480465	-3.016900	3.399700	-10.254000	26.262216	0.000196	20.807084
1779.479877	-3.010800	3.400600	-10.238000	26.251467	0.000196	20.813352
1780.479615	-3.007300	3.399500	-10.222000	26.236875	0.000195	20.827611
1781.482558	-2.982700	3.399800	-10.139000	26.199132	0.000195	20.817185
1782.482958	-3.042100	3.398100	-10.337000	26.208593	0.000195	20.807727
1783.479811	-2.990700	3.399900	-10.166000	26.237302	0.000195	20.804808
1784.483215	-3.014200	3.398500	-10.242000	26.240158	0.000194	20.805307
1785.481451	-2.994100	3.399200	-10.177000	26.241618	0.000193	20.813412
1786.481892	-3.015400	3.398400	-10.247000	26.255547	0.000194	20.806073
1787.485091	-2.987200	3.396500	-10.145000	26.233690	0.000193	20.820618
1788.482799	-2.992800	3.397000	-10.165000	26.227286	0.000192	20.799484
1789.481546	-2.978600	3.398100	-10.120000	26.244842	0.000193	20.785358
1790.483044	-3.003300	3.396700	-10.200000	26.247467	0.000192	20.814548
1791.482476	-3.007900	3.395300	-10.212000	26.237961	0.000195	20.796461
1792.483737	-3.026900	3.394600	-10.273000	26.218734	0.000192	20.798477
1793.482988	-3.002800	3.394900	-10.193000	26.232314	0.000193	20.804063
1794.483051	-2.997300	3.396600	-10.180000	26.225709	0.000192	20.802641
1795.483198	-2.993500	3.395200	-10.163000	26.220268	0.000192	20.809027
1796.483142	-3.014600	3.393700	-10.229000	26.275821	0.000191	20.818386
1797.482519	-3.022900	3.394400	-10.260000	26.305614	0.000193	20.811343
1798.487536	-2.997000	3.393900	-10.171000	26.307354	0.000194	20.805980
1799.483155	-3.013400	3.393600	-10.226000	26.275119	0.000191	20.814835
1800.485420	-2.982800	3.394500	-10.124000	26.303255	0.000191	20.819404
1801.484048	-3.004300	3.392800	-10.192000	26.335608	0.000188	20.816357
1802.484916	-2.999700	3.393000	-10.177000	26.354578	0.000189	20.792274
1803.484999	-3.006900	3.392100	-10.199000	26.333712	0.000190	20.796433
1804.486185	-3.004100	3.391900	-10.189000	26.291077	0.000187	20.823761
1805.485132	-2.995600	3.392800	-10.162000	26.258197	0.000188	20.793563
1806.487932	-3.002400	3.392200	-10.184000	26.221812	0.000190	20.800147
1807.488028	-2.980500	3.391000	-10.106000	26.233387	0.000188	20.811779
1808.488658	-3.009900	3.390500	-10.204000	26.215132	0.000187	20.785374
1809.490610	-3.001900	3.389900	-10.176000	26.216745	0.000186	20.799797
1810.494227	-3.013700	3.391100	-10.218000	26.251960	0.000185	20.791563
1811.490172	-3.002000	3.389600	-10.174000	26.305625	0.000186	20.812302
1812.490796	-3.036400	3.389400	-10.290000	26.321666	0.000186	20.799974
1813.494274	-2.995800	3.388300	-10.150000	26.295688	0.000186	20.801842
1814.490657	-3.022800	3.387800	-10.240000	26.280643	0.000186	20.805215
1815.489789	-2.992000	3.388500	-10.138000	26.283470	0.000185	20.804262
1816.494684	-3.013500	3.388000	-10.209000	26.290724	0.000186	20.809181
1817.491732	-3.015700	3.386400	-10.212000	26.266189	0.000184	20.788792
1818.492723	-3.002500	3.387200	-10.169000	26.258615	0.000185	20.775965
1819.495246	-2.991100	3.387500	-10.132000	26.310146	0.000186	20.804044
1820.491938	-3.017600	3.386700	-10.218000	26.254516	0.000182	20.797451
1821.492555	-2.990000	3.387300	-10.127000	26.239590	0.000184	20.801891
1822.491497	-3.002700	3.386400	-10.168000	26.272770	0.000184	20.779284
1823.491762	-3.009600	3.386200	-10.190000	26.255362	0.000182	20.800671
1824.491726	-3.008900	3.385400	-10.185000	26.227228	0.000181	20.803694
1825.491515	-3.002100	3.384900	-10.161000	26.218435	0.000182	20.792961
1826.491823	-2.980400	3.386400	-10.092000	26.234080	0.000182	20.798251
1827.491582	-2.994500	3.385300	-10.136000	26.254118	0.000181	20.795154
1828.492732	-3.027200	3.384500	-10.244000	26.258193	0.000180	20.789291
1829.494941	-2.992800	3.384800	-10.129000	26.218111	0.000181	20.801170
1830.492968	-2.999000	3.383200	-10.145000	26.220490	0.000179	20.792181
1831.493408	-2.996800	3.383500	-10.139000	26.203110	0.000181	20.787518
1832.498682	-3.013800	3.381700	-10.191000	26.293923	0.000180	20.768300
1833.494050	-3.009000	3.382100	-10.176000	26.345222	0.000177	20.793776
1834.493812	-3.002900	3.383600	-10.160000	26.355031	0.000180	20.791781
1835.493025	-3.024100	3.382000	-10.226000	26.364786	0.000180	20.779300
1836.495461	-3.003800	3.382700	-10.160000	26.368290	0.000180	20.788985
1837.494066	-3.023000	3.381300	-10.220000	26.337841	0.000178	20.797264
1838.494644	-2.987700	3.381500	-10.102000	26.344495	0.000177	20.810589
1839.496161	-3.008500	3.380400	-10.169000	26.336273	0.000180	20.775774
1840.501039	-2.996700	3.381200	-10.131000	26.271734	0.000177	20.784407
1841.494395	-2.993900	3.381100	-10.122000	26.279180	0.000178	20.791890
1842.495065	-2.978800	3.381200	-10.070000	26.258838	0.000178	20.784250
1843.496018	-2.984400	3.378900	-10.083000	26.292140	0.000176	20.799699
1844.496965	-2.992900	3.379700	-10.113000	26.358257	0.000177	20.782694
1845.496655	-2.983300	3.380100	-10.083000	26.337223	0.000178	20.777202
1846.498792	-3.001000	3.379600	-10.141000	26.366494	0.000177	20.792395
1847.495553	-2.972700	3.380000	-10.047000	26.386952	0.000177	20.784033
1848.499961	-2.990500	3.379900	-10.107000	26.369443	0.000174	20.810058
1849.499898	-2.977200	3.379100	-10.059000	26.370976	0.000175	20.780305
1850.498890	-2.990000	3.377100	-10.096000	26.312150	0.000174	20.781876
1851.499103	-2.989900	3.376600	-10.094000	26.336630	0.000173	20.762381
1852.501055	-2.997900	3.377300	-10.123000	26.338365	0.000172	20.800635
1853.500107	-2.986900	3.376700	-10.085000	26.350405	0.000170	20.778123
1854.500740	-2.996400	3.376100	-10.116000	26.343520	0.000174	20.782109
1855.503457	-2.993500	3.375100	-10.103000	26.362888	0.000172	20.779289
1856.501146	-3.000200	3.375100	-10.125000	26.351143	0.000171	20.781709
1857.501791	-2.988100	3.375200	-10.084000	26.392659	0.000169	20.781709
1858.501316	-2.975000	3.375600	-10.042000	26.351015	0.000171	20.797702
1859.503245	-3.001400	3.373700	-10.125000	26.364151	0.000173	20.791938
1860.501047	-3.017700	3.373800	-10.180000	26.349993	0.000168	20.773441
1861.507983	-2.990700	3.373500	-10.088000	26.363105	0.000169	20.780929
1862.502442	-3.018900	3.372600	-10.180000	26.391264	0.000168	20.773668
1863.502777	-3.015600	3.371400	-10.166000	26.384802	0.000168	20.749155
1864.504005	-2.999900	3.372600	-10.117000	26.368471	0.000168	20.766408
1865.502817	-3.014200	3.373000	-10.166000	26.297304	0.000168	20.782603
1866.501106	-3.018400	3.372400	-10.178000	26.327848	0.000168	20.770151
1867.506016	-3.000200	3.372600	-10.117000	26.333510	0.000169	20.790540
1868.505363	-3.013900	3.370800	-10.159000	26.313070	0.000167	20.779482
1869.503582	-2.990900	3.372300	-10.085000	26.342950	0.000168	20.767785
1870.507819	-3.009400	3.370300	-10.141000	26.362589	0.000166	20.753857
1871.506006	-3.000000	3.371500	-10.114000	26.415456	0.000167	20.773327
1872.505575	-3.036600	3.370500	-10.234000	26.420395	0.000168	20.773549
1873.511846	-2.980900	3.371200	-10.048000	26.435815	0.000166	20.734519
1874.508595	-2.996500	3.369300	-10.095000	26.386059	0.000165	20.755160
1875.508814	-2.990300	3.369500	-10.076000	26.376977	0.000164	20.754567
1876.510712	-2.999000	3.368800	-10.102000	26.393863	0.000164	20.763478
1877.508471	-2.954400	3.370300	-9.956500	26.435702	0.000165	20.759062
1878.507753	-3.010100	3.368200	-10.138000	26.426193	0.000165	20.743340
1879.507623	-2.996600	3.369000	-10.095000	26.422128	0.000161	20.746367
1880.507368	-2.987900	3.367800	-10.062000	26.435682	0.000164	20.764732
1881.508201	-3.005800	3.366700	-10.118000	26.403853	0.000163	20.766880
1882.519033	-2.984300	3.367800	-10.049000	26.406069	0.000162	20.745873
1883.508181	-2.994500	3.367900	-10.084000	26.441848	0.000161	20.773775
1884.509333	-2.973400	3.366600	-10.009000	26.484805	0.000161	20.751518
1885.509331	-2.969100	3.366800	-9.995700	26.445401	0.000162	20.738938
1886.508139	-3.006700	3.366400	-10.121000	26.468447	0.000161	20.751671
1887.515211	-2.979900	3.367300	-10.032000	26.473263	0.000162	20.755564
1888.514220	-3.007200	3.365200	-10.119000	26.390780	0.000160	20.748999
1889.511168	-2.974500	3.366700	-10.014000	26.380504	0.000162	20.748629
1890.511744	-2.970400	3.366400	-9.998200	26.423115	0.000160	20.745936
1891.511411	-2.994000	3.365700	-10.076000	26.418869	0.000160	20.735030
1892.512817	-2.990200	3.363600	-10.057000	26.492608	0.000162	20.747507
1893.516043	-3.030500	3.363200	-10.191000	26.526277	0.000160	20.767600
1894.514730	-3.005200	3.363400	-10.107000	26.509841	0.000159	20.724524
1895.512459	-3.007900	3.363500	-10.116000	26.484368	0.000158	20.748233
1896.514467	-3.005800	3.363800	-10.110000	26.496013	0.000159	20.731489
1897.516393	-2.999500	3.362600	-10.085000	26.464300	0.000158	20.719052
1898.513486	-2.992900	3.362400	-10.062000	26.408761	0.000160	20.745734
1899.511255	-2.998000	3.362400	-10.080000	26.424751	0.000158	20.756591
1900.515985	-3.005000	3.362800	-10.104000	26.384573	0.000157	20.767892
1901.512593	-2.999500	3.361700	-10.083000	26.393930	0.000156	20.760701
1902.512490	-2.983100	3.361900	-10.028000	26.443214	0.000156	20.743853
1903.515361	-2.994200	3.360900	-10.062000	26.446271	0.000159	20.735071
1904.512734	-2.994900	3.361000	-10.065000	26.502431	0.000157	20.752166
1905.517301	-3.006800	3.359700	-10.100000	26.476334	0.000156	20.739210
1906.518418	-3.019800	3.359500	-10.144000	26.466182	0.000154	20.737540
1907.514368	-3.018600	3.359100	-10.138000	26.465809	0.000155	20.735742
1908.515358	-2.986400	3.360600	-10.035000	26.496516	0.000155	20.735787
1909.516428	-2.985200	3.358400	-10.025000	26.534105	0.000155	20.752235
1910.516444	-2.997300	3.358100	-10.064000	26.545992	0.000155	20.744268
1911.516403	-2.999500	3.358000	-10.072000	26.546217	0.000155	20.726951
1912.516004	-3.005500	3.358300	-10.093000	26.539859	0.000153	20.763235
1913.519707	-3.019700	3.356400	-10.134000	26.479578	0.000154	20.760489
1914.517141	-3.006900	3.358500	-10.097000	26.413657	0.000151	20.751603
1915.516612	-3.016900	3.356200	-10.125000	26.415170	0.000152	20.746486
1916.520460	-3.001600	3.357700	-10.078000	26.431107	0.000152	20.729312
1917.517707	-2.999400	3.356000	-10.064000	26.441805	0.000151	20.747178
1918.517086	-3.015700	3.355600	-10.118000	26.428144	0.000154	20.723489
1919.518673	-3.008700	3.356000	-10.096000	26.430478	0.000152	20.760450
1920.517404	-3.019200	3.355600	-10.130000	26.454164	0.000153	20.747747
1921.516829	-2.993800	3.355500	-10.044000	26.503097	0.000153	20.732445
1922.517652	-2.989300	3.355600	-10.030000	26.539763	0.000152	20.747490
1923.517076	-3.014900	3.353400	-10.109000	26.548823	0.000149	20.742373
1924.516946	-3.002500	3.353100	-10.067000	26.556739	0.000152	20.751279
1925.516851	-2.997400	3.352600	-10.047000	26.577116	0.000150	20.739993
1926.516906	-2.997900	3.353300	-10.052000	26.586800	0.000147	20.761583
1927.518950	-3.003400	3.353900	-10.073000	26.612988	0.000149	20.741914
1928.517843	-2.986800	3.351600	-10.009000	26.619287	0.000150	20.746350
1929.519065	-3.002800	3.352200	-10.065000	26.634798	0.000148	20.742977
1930.521638	-2.999100	3.352900	-10.054000	26.623503	0.000148	20.760072
1931.519372	-3.012100	3.351400	-10.094000	26.610272	0.000147	20.756728
1932.523203	-3.004400	3.351400	-10.067000	26.554682	0.000146	20.731192
1933.520447	-3.010900	3.352100	-10.092000	26.499291	0.000145	20.748534
1934.524731	-2.986500	3.352000	-10.009000	26.537003	0.000147	20.713895
1935.525511	-3.027000	3.351100	-10.143000	26.473641	0.000145	20.738873
1936.525546	-3.040300	3.350100	-10.184000	26.479326	0.000144	20.746959
1937.523076	-3.018300	3.349800	-10.110000	26.518926	0.000146	20.740770
1938.523268	-3.002100	3.350100	-10.057000	26.546978	0.000143	20.742889
1939.525326	-2.991700	3.350100	-10.022000	26.510677	0.000145	20.741961
1940.524140	-2.993900	3.349600	-10.027000	26.508367	0.000145	20.751968
1941.524111	-2.992900	3.348900	-10.021000	26.481504	0.000143	20.733500
1942.524471	-2.977000	3.347900	-9.965700	26.475892	0.000145	20.736394
1943.526076	-3.004300	3.347900	-10.056000	26.443313	0.000144	20.743478
1944.524787	-2.990800	3.347400	-10.011000	26.411857	0.000142	20.755485
1945.526640	-2.997300	3.347300	-10.032000	26.436954	0.000141	20.757950
1946.525392	-3.007700	3.348200	-10.070000	26.442399	0.000139	20.752516
1947.524555	-3.024600	3.346000	-10.120000	26.441352	0.000140	20.744826
1948.526464	-3.016400	3.345600	-10.091000	26.463347	0.000140	20.761245
1949.525710	-3.011800	3.347100	-10.079000	26.483735	0.000140	20.742855
1950.524159	-2.989200	3.347000	-10.003000	26.522711	0.000140	20.777766
1951.525937	-2.990300	3.346400	-10.006000	26.553573	0.000141	20.734819
1952.524160	-3.006700	3.344300	-10.054000	26.633385	0.000140	20.736815
1953.528785	-2.981200	3.346800	-9.976100	26.612509	0.000138	20.747597
1954.526078	-2.984300	3.344800	-9.980400	26.639148	0.000140	20.744979
1955.525493	-3.018600	3.343400	-10.091000	26.614223	0.000138	20.767813
1956.527524	-2.972800	3.345000	-9.943400	26.579791	0.000139	20.742682
1957.528687	-2.988100	3.344500	-9.993000	26.618493	0.000138	20.759303
1958.526722	-3.004700	3.343800	-10.046000	26.615265	0.000138	20.759377
1959.527935	-3.016400	3.343000	-10.083000	26.663428	0.000138	20.753741
1960.529346	-2.991700	3.343800	-10.002000	26.688322	0.000137	20.747948
1961.527108	-3.012600	3.342300	-10.068000	26.650969	0.000136	20.731731
1962.529158	-3.024000	3.341900	-10.106000	26.551641	0.000136	20.756586
1963.526910	-2.999100	3.342600	-10.024000	26.575300	0.000136	20.758557
1964.526891	-2.995400	3.341700	-10.009000	26.602436	0.000136	20.763076
1965.527006	-2.997800	3.341500	-10.017000	26.683336	0.000137	20.761427
1966.527217	-2.994200	3.341400	-10.004000	26.688175	0.000137	20.750644
1967.530607	-2.995400	3.341700	-10.008000	26.660869	0.000136	20.754487
1968.530774	-3.004200	3.340600	-10.035000	26.636293	0.000135	20.747799
1969.528103	-2.991700	3.339700	-9.990800	26.658113	0.000135	20.754087
1970.533524	-3.009500	3.339700	-10.050000	26.646149	0.000132	20.749172
1971.529150	-3.007600	3.339500	-10.043000	26.663826	0.000135	20.778798
1972.530947	-2.993400	3.337600	-9.989300	26.700118	0.000135	20.755539
1973.534580	-3.008600	3.339400	-10.045000	26.720541	0.000133	20.752364
1974.529478	-2.966000	3.340100	-9.906100	26.728862	0.000134	20.767369
1975.532384	-3.003100	3.337100	-10.021000	26.725729	0.000133	20.757579
1976.533015	-3.006700	3.337100	-10.032000	26.718286	0.000132	20.780917
1977.530175	-2.997200	3.338400	-10.004000	26.739681	0.000132	20.759278
1978.531737	-2.994500	3.338800	-9.996900	26.731963	0.000132	20.757209
1979.533069	-3.003200	3.336100	-10.018000	26.705876	0.000130	20.759431
1980.531791	-2.997000	3.336900	-9.999400	26.699617	0.000132	20.753139
1981.533949	-2.965900	3.338200	-9.900100	26.672655	0.000129	20.787674
1982.535709	-3.017800	3.335400	-10.064000	26.674949	0.000128	20.769591
1983.530912	-3.037700	3.334600	-10.129000	26.718782	0.000128	20.753914
1984.531435	-3.029100	3.334500	-10.099000	26.752090	0.000130	20.767013
1985.532962	-3.019200	3.335400	-10.069000	26.800960	0.000129	20.758775
1986.535442	-3.010800	3.334000	-10.037000	26.807960	0.000128	20.762494
1987.532382	-2.995400	3.335600	-9.990100	26.845214	0.000125	20.766287
1988.539590	-2.976700	3.335000	-9.926700	26.882418	0.000126	20.768609
1989.534241	-3.023200	3.333700	-10.078000	26.876706	0.000129	20.771874
1990.536259	-3.003500	3.334200	-10.013000	26.865865	0.000127	20.761447
1991.539405	-2.976000	3.333700	-9.919800	26.809424	0.000125	20.743577
1992.538497	-3.020800	3.332300	-10.066000	26.758643	0.000125	20.764593
1993.536700	-3.012000	3.332900	-10.038000	26.714606	0.000124	20.776744
1994.537148	-2.999300	3.332200	-9.993800	26.727468	0.000124	20.770708
1995.537544	-3.006800	3.331200	-10.016000	26.679562	0.000127	20.764746
1996.537438	-3.032000	3.330500	-10.097000	26.691673	0.000124	20.775499
1997.537535	-2.991100	3.331400	-9.963400	26.686239	0.000123	20.752492
1998.538394	-3.018500	3.330900	-10.053000	26.685821	0.000124	20.761081
1999.538474	-3.019300	3.329800	-10.052000	26.737027	0.000122	20.770836
2000.537680	-2.997900	3.329800	-9.981300	26.772624	0.000123	20.780072
2001.537422	-3.001300	3.328800	-9.990400	26.747162	0.000122	20.777706
2002.535646	-2.977200	3.330200	-9.913500	26.742490	0.000124	20.767319
2003.538374	-3.005100	3.329600	-10.005000	26.729171	0.000121	20.783326
2004.538955	-2.988700	3.329200	-9.948000	26.726616	0.000120	20.794034
2005.537860	-2.991200	3.328600	-9.955800	26.724283	0.000119	20.775567
2006.538830	-2.985300	3.329200	-9.937500	26.735405	0.000118	20.753557
2007.538336	-3.019700	3.327600	-10.048000	26.725575	0.000120	20.773546
2008.542120	-3.008100	3.326700	-10.007000	26.668733	0.000119	20.766187
2009.543056	-3.000900	3.327600	-9.985100	26.720018	0.000119	20.770805
2010.540601	-3.004300	3.327200	-9.994900	26.804637	0.000118	20.769585
2011.543643	-3.005600	3.325800	-9.995200	26.840609	0.000121	20.769243
2012.539340	-3.003600	3.327500	-9.993300	26.784540	0.000119	20.777354
2013.541012	-3.044800	3.325100	-10.123000	26.781042	0.000116	20.780949
2014.541231	-3.027500	3.323900	-10.062000	26.750314	0.000117	20.772814
2015.543923	-3.011700	3.324300	-10.010000	26.784196	0.000116	20.782697
2016.550235	-3.016000	3.323700	-10.023000	26.746521	0.000119	20.759517
2017.540284	-3.011300	3.323600	-10.007000	26.710059	0.000116	20.778810
2018.546070	-3.021100	3.323100	-10.038000	26.712898	0.000116	20.790199
2019.541755	-3.009800	3.322600	-9.999600	26.742856	0.000113	20.786179
2020.543398	-2.999700	3.324400	-9.971600	26.799025	0.000116	20.778167
2021.546462	-3.021000	3.322800	-10.037000	26.847755	0.000116	20.775006
2022.543622	-3.001800	3.323000	-9.974300	26.872727	0.000117	20.772615
2023.544649	-3.002200	3.321900	-9.972100	26.919042	0.000114	20.784572
2024.546971	-2.993600	3.321200	-9.941100	26.920162	0.000113	20.770525
2025.544503	-2.988900	3.321400	-9.926800	26.888671	0.000113	20.779638
2026.548535	-2.993600	3.320900	-9.941000	26.877801	0.000115	20.783406
2027.547355	-3.008800	3.319000	-9.984700	26.850283	0.000113	20.772807
2028.545553	-2.961700	3.321400	-9.835200	26.812955	0.000113	20.781267
2029.549556	-3.000200	3.319900	-9.959600	26.811545	0.000112	20.786014
2030.549190	-3.003600	3.318400	-9.966500	26.807251	0.000113	20.774584
2031.547732	-2.982100	3.319700	-9.898900	26.851805	0.000114	20.781924
2032.548605	-2.984100	3.320300	-9.906900	26.854516	0.000112	20.793659
2033.546987	-3.008300	3.318000	-9.980600	26.818279	0.000111	20.781879
2034.548991	-2.990200	3.319200	-9.924400	26.849005	0.000109	20.788117
2035.550014	-2.997400	3.318500	-9.946100	26.839677	0.000111	20.791066
2036.550390	-3.005600	3.317600	-9.970400	26.862263	0.000111	20.809508
2037.553447	-3.015000	3.316200	-9.997200	26.858986	0.000109	20.781084
2038.550354	-3.015600	3.317600	-10.003000	26.862960	0.000112	20.790769
2039.549658	-2.994200	3.318100	-9.934000	26.845684	0.000111	20.785252
2040.553027	-2.987300	3.318300	-9.912000	26.902664	0.000110	20.785173
2041.549598	-2.998100	3.316100	-9.941100	26.913318	0.000112	20.793041
2042.553798	-2.989000	3.315900	-9.910000	26.871743	0.000110	20.788695
2043.549726	-2.998500	3.315300	-9.940300	26.879936	0.000110	20.799304
2044.549746	-3.007900	3.314300	-9.968000	26.857080	0.000108	20.779641
2045.549845	-3.012900	3.315700	-9.988900	26.878025	0.000108	20.794063
2046.549443	-3.012700	3.313500	-9.981600	26.878693	0.000107	20.788097
2047.550651	-3.008900	3.314600	-9.971500	26.888945	0.000108	20.785603
2048.549467	-3.004900	3.314400	-9.958700	26.880226	0.000108	20.793432
2049.551654	-3.017000	3.313800	-9.997200	26.905125	0.000108	20.801398
2050.551076	-3.030000	3.312300	-10.035000	26.892093	0.000107	20.784976
2051.549522	-2.968800	3.313200	-9.835300	26.896784	0.000105	20.778313
2052.552145	-2.992100	3.313100	-9.912800	26.901451	0.000106	20.809083
2053.551602	-2.995700	3.312200	-9.921000	26.903209	0.000105	20.796627
2054.550472	-3.001300	3.313000	-9.942600	26.933461	0.000106	20.796227
2055.553191	-2.977400	3.312300	-9.860800	26.901417	0.000103	20.800040
2056.552280	-3.002400	3.311000	-9.939200	26.857464	0.000103	20.792355
2057.555733	-2.974200	3.312400	-9.850700	26.882358	0.000103	20.786092
2058.556243	-2.997900	3.311200	-9.926400	26.899958	0.000103	20.814220
2059.556195	-2.994800	3.309900	-9.911500	26.911442	0.000103	20.791629
2060.560053	-3.005400	3.309300	-9.944800	26.949980	0.000102	20.819476
2061.558970	-2.997300	3.309100	-9.916500	26.968271	0.000102	20.809894
2062.584612	-2.997400	3.307800	-9.914000	26.906677	0.000103	20.799166
2063.559187	-2.975000	3.310300	-9.847100	26.916899	9.935378E-5	20.826514
2064.557282	-2.993000	3.308200	-9.900500	26.994327	0.000100	20.799586
2065.559036	-2.981100	3.309000	-9.863600	26.955191	0.000101	20.809069
2066.562684	-2.998100	3.307700	-9.915800	26.950908	0.000101	20.796701
2067.561625	-3.027000	3.307200	-10.010000	26.995024	9.925478E-5	20.807400
2068.559700	-2.987500	3.308100	-9.882300	26.994906	0.000102	20.803014
2069.562550	-3.001400	3.307600	-9.926400	27.021949	9.974981E-5	20.807449
2070.561395	-2.999000	3.306200	-9.914500	27.021752	0.000101	20.783544
2071.560799	-2.995300	3.306100	-9.902500	27.068257	9.938679E-5	20.808027
2072.563522	-3.008200	3.306200	-9.943800	27.098185	0.000100	20.827220
2073.559281	-2.980800	3.306800	-9.855400	27.089227	9.899076E-5	20.816789
2074.561410	-3.025600	3.305100	-9.999400	27.099103	9.648258E-5	20.807755
2075.563859	-2.988600	3.304900	-9.876100	27.024311	9.565751E-5	20.814566
2076.561191	-3.038900	3.303000	-10.036000	27.006993	9.437042E-5	20.819910
2077.561385	-3.004400	3.304000	-9.925000	26.978806	9.555851E-5	20.813850
2078.565464	-2.960200	3.306400	-9.787000	26.957887	9.367737E-5	20.824582
2079.563058	-2.984800	3.303800	-9.859600	26.914629	9.463444E-5	20.807162
2080.561752	-3.020300	3.302100	-9.971700	26.932302	9.532749E-5	20.827777
2081.566071	-2.984800	3.303200	-9.858600	26.979709	9.565751E-5	20.823767
2082.560163	-3.006000	3.302700	-9.927200	27.002591	9.291831E-5	20.814061
2083.565055	-3.007000	3.301800	-9.927600	27.029791	9.380938E-5	20.834301
2084.565247	-3.014700	3.302100	-9.953400	26.980907	9.364437E-5	20.839195
2085.563587	-3.003600	3.302000	-9.917300	26.994482	9.173023E-5	20.824872
2086.567728	-2.992400	3.301500	-9.878900	27.045433	9.519548E-5	20.823005
2087.569059	-3.012600	3.301700	-9.945700	27.038635	9.146621E-5	20.824230
2088.563823	-2.994100	3.301000	-9.882300	27.024471	9.258829E-5	20.829900
2089.563850	-2.983100	3.301400	-9.847700	27.022511	9.067415E-5	20.807541
2090.568995	-2.994200	3.300600	-9.881900	27.001269	9.331434E-5	20.839284
2091.563359	-2.990300	3.299300	-9.864800	27.024873	9.136720E-5	20.834572
2092.566185	-2.981400	3.299400	-9.836100	26.977482	9.057514E-5	20.826269
2093.568051	-3.007500	3.298000	-9.917000	26.979545	9.027812E-5	20.806058
2094.565233	-2.981500	3.300300	-9.839000	27.012177	9.047614E-5	20.834132
2095.567475	-2.973700	3.299300	-9.809800	27.031886	8.842999E-5	20.829770
2096.571471	-3.002200	3.298600	-9.902300	27.053927	8.905703E-5	20.838660
2097.568989	-3.014100	3.298500	-9.940200	27.084573	8.714289E-5	20.819695
2098.564600	-2.996700	3.299000	-9.885400	27.122270	8.869401E-5	20.810192
2099.572756	-2.992700	3.297500	-9.867600	27.140415	8.608682E-5	20.816113
2100.565858	-3.017500	3.297000	-9.948100	27.107315	8.862800E-5	20.841144
2101.565943	-3.010100	3.297600	-9.925700	27.106402	8.819897E-5	20.852078
2102.570427	-3.019000	3.294600	-9.945400	27.053180	8.582280E-5	20.837434
2103.567122	-3.059300	3.294200	-10.077000	27.038834	8.611982E-5	20.850508
2104.570179	-3.004200	3.295600	-9.899700	27.054697	8.628483E-5	20.823314
2105.571529	-2.998900	3.294800	-9.879800	27.087852	8.876001E-5	20.846225
2106.570848	-2.999300	3.294700	-9.881000	27.053784	8.615282E-5	20.833300
2107.568672	-2.980200	3.295500	-9.820500	27.054560	8.671386E-5	20.827916
2108.572877	-2.995100	3.293900	-9.864800	26.990904	8.763793E-5	20.844032
2109.571366	-3.000700	3.293400	-9.881800	26.999994	8.545977E-5	20.855545
2110.568390	-2.999800	3.294400	-9.881900	26.996596	8.446970E-5	20.824627
2111.573738	-3.013700	3.291400	-9.918600	27.034664	8.427168E-5	20.838728
2112.570391	-2.983200	3.294100	-9.826200	27.056853	8.430469E-5	20.835912
2113.571760	-2.997300	3.291500	-9.864800	27.045714	8.509674E-5	20.835142
2114.573668	-2.979300	3.291300	-9.804500	27.076163	8.252256E-5	20.846323
2115.571516	-2.997100	3.292000	-9.865400	27.052693	8.255556E-5	20.837892
2116.571895	-2.983700	3.290900	-9.818300	27.071699	8.321561E-5	20.832825
2117.575751	-2.966400	3.290600	-9.759900	27.051229	8.308360E-5	20.865817
2118.575399	-2.979500	3.289300	-9.799800	27.103542	8.090544E-5	20.853944
2119.577225	-3.005200	3.289800	-9.884500	27.116129	8.176350E-5	20.851430
2120.576145	-2.982500	3.291900	-9.817400	27.142927	8.196151E-5	20.833338
2121.573116	-2.989700	3.288600	-9.830400	27.154811	8.080643E-5	20.848610
2122.574248	-3.009700	3.288100	-9.895200	27.172804	8.196151E-5	20.858171
2123.579627	-2.991700	3.288200	-9.836300	27.191592	7.955234E-5	20.848619
2124.578628	-2.999300	3.287900	-9.860300	27.187698	8.173050E-5	20.859401
2125.575319	-3.006800	3.287100	-9.882200	27.222489	7.988236E-5	20.857884
2126.577069	-2.994900	3.288200	-9.846700	27.241939	8.014638E-5	20.844732
2127.579276	-2.982900	3.288100	-9.807200	27.213959	7.915631E-5	20.842667
2128.578734	-2.990100	3.285600	-9.823400	27.226466	7.757219E-5	20.850980
2129.579211	-2.967500	3.286500	-9.751100	27.210492	7.951934E-5	20.842973
2130.578271	-2.995100	3.285400	-9.839100	27.206426	7.694515E-5	20.846944
2131.580241	-2.977600	3.286600	-9.784400	27.171350	7.783621E-5	20.833950
2132.579919	-3.005700	3.285700	-9.875000	27.123268	7.826524E-5	20.872833
2133.577875	-3.023200	3.284800	-9.929700	27.124014	7.763820E-5	20.870265
2134.576333	-2.987200	3.285500	-9.813600	27.150243	7.714316E-5	20.836903
2135.579238	-2.990000	3.284700	-9.820500	27.149781	7.572406E-5	20.852085
2136.579752	-2.998600	3.284000	-9.847000	27.184024	7.668113E-5	20.852860
2137.578968	-2.989300	3.282800	-9.812600	27.238810	7.456897E-5	20.865766
2138.579186	-2.978300	3.283000	-9.776500	27.259335	7.687914E-5	20.839471
2139.579169	-3.013100	3.281000	-9.884400	27.347087	7.697815E-5	20.857567
2140.582525	-2.997800	3.283400	-9.842100	27.343871	7.618609E-5	20.873771
2141.580675	-2.969600	3.281900	-9.745200	27.366452	7.565805E-5	20.847175
2142.580475	-3.015300	3.280700	-9.890600	27.368337	7.427195E-5	20.844331
2143.581703	-3.002800	3.282500	-9.854700	27.322125	7.186278E-5	20.873707
2144.583515	-2.996300	3.279300	-9.823900	27.345256	7.513001E-5	20.862836
2145.583251	-2.983500	3.281000	-9.787600	27.351486	7.321587E-5	20.853932
2146.583335	-3.008800	3.280600	-9.870100	27.334370	7.334788E-5	20.847146
2147.586925	-3.019700	3.279400	-9.902200	27.363201	7.110372E-5	20.856707
2148.585671	-3.005800	3.278900	-9.854700	27.385707	7.196178E-5	20.857537
2149.585100	-3.011000	3.278100	-9.869400	27.359317	7.126873E-5	20.873188
2150.588886	-3.013500	3.279000	-9.880800	27.335730	7.173077E-5	20.849936
2151.584623	-2.983000	3.279700	-9.782400	27.346552	7.206079E-5	20.856554
2152.584079	-3.006200	3.277300	-9.850800	27.370202	7.212679E-5	20.858534
2153.588985	-3.001600	3.277600	-9.837500	27.404064	7.054268E-5	20.865098
2154.587447	-3.011200	3.276100	-9.864200	27.318084	7.100471E-5	20.858737
2155.586732	-3.015100	3.276100	-9.877000	27.321791	7.163176E-5	20.852509
2156.590541	-3.020500	3.277000	-9.898200	27.378573	7.153275E-5	20.867903
2157.588232	-3.007500	3.278200	-9.858400	27.384185	7.057568E-5	20.868333
2158.586947	-2.989900	3.275500	-9.792000	27.395531	6.958561E-5	20.877376
2159.590629	-3.022400	3.273200	-9.891700	27.387764	7.146675E-5	20.873830
2160.590061	-3.008800	3.273500	-9.848800	27.318884	6.951960E-5	20.857646
2161.590671	-2.971000	3.274800	-9.728500	27.374896	6.839752E-5	20.869894
2162.596281	-2.974400	3.274400	-9.738600	27.395988	6.856253E-5	20.869775
2163.592505	-3.002000	3.273500	-9.826500	27.404325	6.836452E-5	20.856826
2164.591164	-3.005200	3.273100	-9.834400	27.359003	6.737445E-5	20.870501
2165.595266	-3.010700	3.272200	-9.850300	27.374808	7.011365E-5	20.862693
2166.594960	-2.987500	3.271700	-9.773500	27.308426	6.757246E-5	20.869410
2167.594398	-2.983000	3.272000	-9.759200	27.281759	6.658239E-5	20.878147
2168.595284	-3.015400	3.271400	-9.863500	27.255283	6.740745E-5	20.883283
2169.593912	-2.990400	3.271100	-9.780600	27.308701	6.790249E-5	20.874902
2170.594714	-3.001200	3.271000	-9.816300	27.267323	6.625236E-5	20.888281
2171.599103	-3.039000	3.269100	-9.933600	27.224505	6.480026E-5	20.883145
2172.594709	-3.000000	3.270700	-9.811500	27.259310	6.707742E-5	20.878798
2173.596256	-2.997800	3.269700	-9.800900	27.277620	6.423922E-5	20.876828
2174.597072	-2.986400	3.270200	-9.765300	27.239565	6.572433E-5	20.853724
2175.595659	-2.976500	3.269800	-9.731300	27.234581	6.361217E-5	20.858668
2176.596406	-2.988400	3.267800	-9.764700	27.283110	6.562532E-5	20.890410
2177.599398	-2.995700	3.268300	-9.790500	27.340763	6.176404E-5	20.886291
2178.599035	-2.993700	3.268000	-9.783000	27.382045	6.400820E-5	20.867128
2179.595246	-2.951700	3.269700	-9.649800	27.417394	6.423922E-5	20.877085
2180.602920	-2.997700	3.267300	-9.793300	27.423791	6.262210E-5	20.880675
2181.596007	-2.991100	3.265700	-9.767500	27.308588	6.242408E-5	20.861039
2182.594408	-2.989500	3.265600	-9.761500	27.306703	5.918985E-5	20.880004
2183.600519	-2.985000	3.265600	-9.747100	27.378274	6.021292E-5	20.871869
2184.596870	-2.993800	3.264200	-9.771500	27.403446	6.262210E-5	20.866373
2185.600495	-2.980800	3.266100	-9.734800	27.474220	6.348016E-5	20.860288
2186.599454	-2.997000	3.264500	-9.783100	27.482056	6.295212E-5	20.842567
2187.598631	-2.994400	3.264900	-9.776000	27.430110	6.024592E-5	20.871385
2188.595787	-3.021100	3.262000	-9.853200	27.449733	6.163203E-5	20.868368
2189.600368	-2.987800	3.263300	-9.749500	27.414483	6.037793E-5	20.866096
2190.602144	-2.985400	3.263300	-9.741200	27.398109	5.981689E-5	20.858633
2191.598013	-2.977400	3.262200	-9.711400	27.407683	5.945387E-5	20.856411
2192.604755	-3.006400	3.261100	-9.802900	27.408871	6.034493E-5	20.846227
2193.600837	-2.987100	3.262700	-9.744600	27.387632	6.093898E-5	20.878438
2194.599677	-3.016800	3.261300	-9.837000	27.429604	6.255609E-5	20.865187
2195.598948	-2.981200	3.261500	-9.722400	27.406136	5.955287E-5	20.850588
2196.598557	-3.009900	3.259700	-9.809600	27.428804	6.074096E-5	20.843994
2197.598955	-3.018200	3.259100	-9.836000	27.380429	5.763873E-5	20.847960
2198.600744	-3.015700	3.260500	-9.832000	27.354162	5.892583E-5	20.853778
2199.597867	-3.003600	3.259300	-9.789000	27.384622	5.674767E-5	20.836532
2200.604779	-2.994700	3.259100	-9.759000	27.409229	5.777074E-5	20.840424
2201.603381	-2.989200	3.259800	-9.743100	27.445815	5.720970E-5	20.846410
2202.601369	-2.992200	3.259300	-9.752000	27.462978	5.955287E-5	20.847081
2203.599762	-3.014800	3.256500	-9.817300	27.494058	6.021292E-5	20.838996
2204.606858	-2.979800	3.257700	-9.706900	27.500632	5.800176E-5	20.838023
2205.601542	-2.996600	3.255900	-9.755800	27.496135	5.882682E-5	20.846775
2206.601068	-3.021100	3.256900	-9.839000	27.556231	5.915684E-5	20.854134
2207.606795	-3.011900	3.255200	-9.802900	27.524902	5.773774E-5	20.834467
2208.602688	-2.997900	3.255300	-9.757600	27.475339	5.648365E-5	20.847664
2209.603802	-2.967600	3.255800	-9.661200	27.494343	5.549358E-5	20.861567
2210.607318	-2.990900	3.255300	-9.735300	27.502404	5.562559E-5	20.833168
2211.609110	-2.998800	3.254400	-9.758300	27.537273	5.654965E-5	20.850706
2212.604011	-2.982500	3.254400	-9.705700	27.556894	5.575760E-5	20.832516
2213.609639	-2.985400	3.253500	-9.711600	27.570555	5.645065E-5	20.858589
2214.606348	-3.009600	3.252000	-9.786400	27.608328	5.331542E-5	20.835430
2215.606656	-2.984600	3.254100	-9.711100	27.629082	5.265537E-5	20.843036
2216.610930	-2.999400	3.252100	-9.752400	27.594854	5.453651E-5	20.831830
2217.606767	-3.026200	3.251800	-9.840000	27.569039	5.199532E-5	20.823873
2218.607768	-3.007700	3.250300	-9.774200	27.550822	5.146728E-5	20.835890
2219.613159	-3.015400	3.251000	-9.802300	27.555736	5.255636E-5	20.847471
2220.611519	-3.008300	3.251700	-9.780700	27.522772	5.202832E-5	20.838488
2221.609972	-2.993600	3.251800	-9.733600	27.563870	5.249036E-5	20.825785
2222.614724	-3.017900	3.248500	-9.803000	27.624134	5.225934E-5	20.835213
2223.609414	-3.004000	3.249300	-9.760000	27.639959	5.140128E-5	20.836912
2224.611147	-3.015600	3.248700	-9.796100	27.639414	5.407447E-5	20.846321
2225.616628	-3.007200	3.250200	-9.773500	27.635566	5.120326E-5	20.834862
2226.613035	-3.005200	3.249100	-9.763600	27.621130	5.196232E-5	20.800423
2227.610650	-3.010700	3.247200	-9.775500	27.583657	5.295239E-5	20.823883
2228.613877	-3.030100	3.248900	-9.844000	27.566658	5.136827E-5	20.828116
2229.612254	-2.984600	3.246700	-9.688500	27.604985	5.054321E-5	20.815946
2230.612998	-2.996000	3.247200	-9.728000	27.612201	5.027919E-5	20.827948
2231.615986	-3.010300	3.245000	-9.767800	27.558755	5.186331E-5	20.813526
2232.614714	-2.992900	3.246500	-9.716300	27.516287	5.044421E-5	20.822006
2233.613094	-3.011600	3.243900	-9.768700	27.493145	4.701195E-5	20.827647
2234.615986	-3.007100	3.245500	-9.758600	27.525167	4.823304E-5	20.832363
2235.613211	-2.987900	3.244900	-9.694900	27.569289	4.892610E-5	20.838349
2236.616234	-2.998700	3.244000	-9.726700	27.612942	4.925612E-5	20.830116
2237.622600	-3.004300	3.244900	-9.748300	27.605727	4.938813E-5	20.818114
2238.615850	-2.992400	3.243800	-9.706000	27.605334	4.813404E-5	20.827202
2239.616183	-2.979600	3.243800	-9.664500	27.655676	4.925612E-5	20.843718
2240.618660	-3.012400	3.242400	-9.765600	27.715970	4.671493E-5	20.824258
2241.615463	-2.992000	3.241600	-9.698100	27.751431	4.664893E-5	20.820589
2242.617113	-2.996900	3.242000	-9.715400	27.792348	4.687994E-5	20.826679
2243.622143	-2.998100	3.240600	-9.714900	27.736132	4.793602E-5	20.805194
2244.619125	-3.025900	3.241100	-9.806400	27.670068	4.579087E-5	20.825957
2245.617574	-3.008600	3.240300	-9.747600	27.704170	4.674794E-5	20.818549
2246.619915	-2.989500	3.240900	-9.687800	27.698693	4.546084E-5	20.827261
2247.615992	-2.979000	3.241100	-9.654400	27.755185	4.526283E-5	20.821522
2248.617863	-2.984700	3.240300	-9.669700	27.741894	4.572486E-5	20.841811
2249.618819	-2.989300	3.238600	-9.680600	27.733840	4.569186E-5	20.829914
2250.617527	-3.009000	3.237200	-9.739900	27.716878	4.598888E-5	20.820431
2251.618407	-3.007100	3.237500	-9.734700	27.750581	4.628590E-5	20.803613
2252.620605	-3.004400	3.238300	-9.728500	27.742149	4.552685E-5	20.800344
2253.618457	-2.984800	3.239700	-9.668600	27.766802	4.427275E-5	20.829894
2254.620485	-3.004900	3.235800	-9.722600	27.724549	4.522982E-5	20.811555
2255.623384	-3.004600	3.235500	-9.720500	27.725668	4.278764E-5	20.822164
2256.619108	-3.001600	3.235600	-9.710900	27.778144	4.268864E-5	20.808592
2257.620597	-3.021400	3.233900	-9.769400	27.779288	4.341469E-5	20.830131
2258.619487	-2.993200	3.234200	-9.680400	27.708838	4.199559E-5	20.818979
2259.618577	-3.009000	3.233400	-9.728400	27.698722	3.938840E-5	20.821601
2260.620811	-2.999600	3.234400	-9.701000	27.759828	4.262263E-5	20.798220
2261.618737	-2.999700	3.232800	-9.696500	27.777138	4.110452E-5	20.797622
2262.618863	-2.966400	3.235100	-9.595900	27.777320	4.245762E-5	20.800176
2263.619869	-3.001700	3.232300	-9.701300	27.793957	4.110452E-5	20.787522
2264.618358	-3.006200	3.232600	-9.717000	27.816033	4.173157E-5	20.813531
2265.618826	-3.008200	3.231500	-9.720500	27.804254	3.899237E-5	20.799781
2266.619214	-2.983900	3.232800	-9.644900	27.759799	4.123653E-5	20.807199
2267.622128	-2.974200	3.231900	-9.611500	27.774331	4.140154E-5	20.811867
2268.621155	-3.014300	3.229100	-9.732400	27.787847	4.110452E-5	20.792278
2269.622810	-2.968400	3.229100	-9.584900	27.790061	4.103852E-5	20.799722
2270.625604	-2.982700	3.230200	-9.634100	27.743288	4.014745E-5	20.803386
2271.629014	-3.004300	3.228800	-9.699600	27.710286	4.084050E-5	20.791513
2272.624281	-3.017400	3.228300	-9.739900	27.653418	3.975142E-5	20.780281
2273.622886	-3.032600	3.228700	-9.789700	27.656820	3.876135E-5	20.787497
2274.623631	-2.999800	3.227800	-9.681800	27.614312	3.994944E-5	20.813477
2275.623291	-3.011100	3.226500	-9.713700	27.609256	3.787028E-5	20.794639
2276.624708	-2.994700	3.227400	-9.664400	27.596013	4.097251E-5	20.777046
2277.623348	-2.987700	3.225900	-9.637000	27.616354	4.034547E-5	20.803678
2278.624400	-2.991800	3.225500	-9.649400	27.724358	3.988343E-5	20.783388
2279.625386	-3.002100	3.225300	-9.682200	27.667790	3.928939E-5	20.775777
2280.624206	-2.996800	3.225800	-9.666500	27.651745	3.886036E-5	20.771959
2281.627110	-3.000600	3.223800	-9.672700	27.626721	3.790329E-5	20.779496
2282.625062	-2.992000	3.223900	-9.644800	27.674736	3.592314E-5	20.805051
2283.625627	-3.001100	3.223500	-9.672700	27.737153	3.678120E-5	20.801006
2284.628297	-2.989300	3.223600	-9.636000	27.772442	3.664919E-5	20.807120
2285.625409	-2.986300	3.222700	-9.623100	27.774920	3.760626E-5	20.794916
2286.624847	-2.983700	3.222500	-9.614100	27.695311	3.635217E-5	20.794461
2287.625806	-2.991000	3.223300	-9.640300	27.742680	3.671520E-5	20.796136
2288.628527	-2.991500	3.222200	-9.638800	27.771303	3.519709E-5	20.779896
2289.625581	-2.988200	3.220600	-9.623200	27.775539	3.714423E-5	20.792693
2290.627025	-2.974800	3.220600	-9.579900	27.722768	3.486706E-5	20.781313
2291.626268	-3.004800	3.220100	-9.674600	27.705231	3.509808E-5	20.787848
2292.628175	-2.996300	3.218900	-9.643700	27.690526	3.532910E-5	20.789646
2293.629524	-2.990100	3.219700	-9.626700	27.735288	3.437203E-5	20.794387
2294.631801	-3.000100	3.219100	-9.656300	27.807690	3.490007E-5	20.789488
2295.628517	-3.003100	3.218200	-9.663900	27.845979	3.457004E-5	20.777762
2296.629219	-3.004300	3.216200	-9.661700	27.814261	3.641818E-5	20.804162
2297.630242	-3.000300	3.218400	-9.655800	27.837273	3.598915E-5	20.815467
2298.629648	-3.017700	3.216300	-9.704900	27.812622	3.496607E-5	20.783546
2299.633507	-2.986200	3.216300	-9.603900	27.804912	3.605515E-5	20.796649
2300.638148	-2.995500	3.215400	-9.631200	27.741232	3.341496E-5	20.810800
2301.630421	-3.006600	3.217100	-9.671600	27.773860	3.480106E-5	20.791478
2302.626233	-3.002000	3.214300	-9.648800	27.754611	3.443803E-5	20.798185
2303.629776	-2.985000	3.216400	-9.600000	27.770478	3.367898E-5	20.798506
2304.629958	-2.991000	3.213100	-9.609500	27.802070	3.219387E-5	20.797583
2305.629065	-2.990600	3.214300	-9.611300	27.802664	3.595614E-5	20.777792
2306.629283	-2.987300	3.212500	-9.596000	27.875831	3.344796E-5	20.767503
2307.632045	-3.000100	3.213500	-9.640000	27.885401	3.377798E-5	20.770022
2308.629148	-3.009300	3.213400	-9.669600	27.873701	3.255689E-5	20.775317
2309.630512	-2.989800	3.211700	-9.601700	27.881008	3.390999E-5	20.799267
2310.633567	-2.978800	3.211500	-9.566000	27.851750	3.344796E-5	20.786415
2311.628560	-3.014000	3.209800	-9.673800	27.846160	3.473505E-5	20.791221
2312.628633	-3.002400	3.209400	-9.635000	27.830839	3.239188E-5	20.795242
2313.632147	-2.989500	3.210000	-9.595300	27.850577	3.110479E-5	20.799460
2314.631222	-2.991600	3.210800	-9.605000	27.902321	3.239188E-5	20.778992
2315.630895	-2.984700	3.209800	-9.579500	27.900167	3.265590E-5	20.775401
2316.632981	-3.000100	3.207900	-9.622900	27.879178	2.991670E-5	20.787941
2317.631353	-2.978900	3.207700	-9.554800	27.868912	3.097278E-5	20.791834
2318.632441	-2.990900	3.210300	-9.601200	27.854302	3.206186E-5	20.782345
2319.630128	-3.003700	3.207500	-9.634000	27.856780	2.978469E-5	20.788159
2320.630081	-3.005000	3.205500	-9.632100	27.857723	2.909164E-5	20.786262
2321.633748	-2.992000	3.207200	-9.595000	27.878398	2.935566E-5	20.789053
2322.634240	-2.990800	3.207300	-9.591000	27.890421	3.064275E-5	20.759902
2323.630470	-3.018300	3.204900	-9.672700	27.935597	3.120379E-5	20.768861
2324.634003	-3.000100	3.203400	-9.609000	27.935916	3.027973E-5	20.772502
2325.633196	-2.984300	3.203800	-9.560900	27.873726	2.942166E-5	20.803791
2326.630235	-2.999100	3.203600	-9.607600	27.922073	2.773854E-5	20.786070
2327.632611	-2.979700	3.204900	-9.548900	27.926460	3.041174E-5	20.767726
2328.631751	-2.977700	3.202500	-9.535100	27.905781	2.981769E-5	20.771568
2329.635683	-2.997200	3.200800	-9.592800	27.947997	3.074176E-5	20.787033
2330.644516	-2.980600	3.202100	-9.543400	27.939022	2.800256E-5	20.770413
2331.632699	-2.992100	3.201100	-9.577400	27.928133	2.902563E-5	20.759927
2332.633546	-3.004600	3.201900	-9.619900	27.952055	2.704549E-5	20.778315
2333.632407	-3.022500	3.197800	-9.664500	28.020929	2.833258E-5	20.792639
2334.637102	-3.005800	3.199400	-9.616000	28.008632	2.645145E-5	20.779313
2335.635963	-3.022200	3.198200	-9.664800	28.005011	2.701249E-5	20.769030
2336.634016	-2.999700	3.198500	-9.593800	27.927775	2.717750E-5	20.771420
2337.639811	-2.989000	3.199000	-9.560900	27.952762	2.747452E-5	20.774759
2338.635597	-3.009600	3.198100	-9.624200	27.966296	2.651745E-5	20.780321
2339.637068	-3.004900	3.197000	-9.605400	27.979265	2.655045E-5	20.772512
2340.638686	-2.993800	3.196000	-9.567400	27.920351	2.605542E-5	20.752567
2341.635949	-3.000200	3.195200	-9.585300	27.877156	2.565939E-5	20.792071
2342.635289	-3.002500	3.195100	-9.592000	27.856476	2.790355E-5	20.782163
2343.638698	-2.981300	3.193900	-9.520700	27.820941	2.506534E-5	20.761097
2344.635846	-3.018500	3.194500	-9.642300	27.775907	2.437229E-5	20.756553
2345.636739	-3.004000	3.192800	-9.590400	27.762174	2.424028E-5	20.773554
2346.639086	-3.022300	3.191700	-9.645400	27.796515	2.612142E-5	20.768758
2347.638604	-2.994000	3.194500	-9.563800	27.853547	2.440530E-5	20.786801
2348.637340	-3.006700	3.191600	-9.595200	27.883654	2.440530E-5	20.751668
2349.646995	-2.991700	3.192100	-9.549700	27.909658	2.655045E-5	20.784480
2350.639859	-3.013300	3.190100	-9.610900	27.951359	2.552738E-5	20.772398
2351.637099	-2.996500	3.189800	-9.557500	27.925228	2.440530E-5	20.757477
2352.642063	-2.983000	3.190800	-9.517800	27.934675	2.348123E-5	20.777891
2353.640583	-2.988000	3.189900	-9.530600	27.906758	2.298619E-5	20.754533
2354.638754	-2.986800	3.189100	-9.524700	27.888929	2.275517E-5	20.760297
2355.640733	-3.012500	3.188000	-9.603200	27.871174	2.318421E-5	20.762816
2356.640953	-3.000500	3.188500	-9.565600	27.903259	2.374525E-5	20.793686
2357.640541	-2.989900	3.187300	-9.528900	27.922623	2.315120E-5	20.777614
2358.642243	-3.007100	3.186100	-9.579900	27.996430	2.235914E-5	20.755650
2359.640681	-2.996300	3.186200	-9.545200	28.086893	2.344822E-5	20.752355
2360.641199	-3.006900	3.184700	-9.575300	28.087561	2.146808E-5	20.744018
2361.643272	-2.993700	3.184200	-9.530800	28.056846	2.120406E-5	20.756247
2362.639987	-3.030800	3.183000	-9.646200	28.065766	2.127006E-5	20.739147
2363.640361	-2.998800	3.183500	-9.546200	28.035296	2.077503E-5	20.740718
2364.643317	-2.980400	3.184600	-9.490600	28.030262	2.212813E-5	20.749876
2365.642010	-3.026900	3.181500	-9.628000	27.982386	2.133607E-5	20.758109
2366.642441	-2.996600	3.182000	-9.533800	27.999192	2.001597E-5	20.743731
2367.642758	-2.997100	3.180400	-9.530800	28.029786	2.179810E-5	20.775002
2368.642050	-3.005200	3.180500	-9.557100	28.018756	1.955394E-5	20.762476
2369.641777	-3.024700	3.178600	-9.613500	28.036950	1.932292E-5	20.772255
2370.644350	-3.001200	3.177500	-9.535800	28.018702	1.942193E-5	20.755309
2371.642031	-3.005800	3.178700	-9.553600	28.044168	2.057701E-5	20.759606
2372.642198	-2.992100	3.178400	-9.509400	28.041930	1.909190E-5	20.761621
2373.643306	-3.018500	3.176700	-9.588000	28.088935	1.935592E-5	20.765316
2374.642634	-3.008200	3.177300	-9.556800	28.089901	2.077503E-5	20.761547
2375.643081	-2.997000	3.175400	-9.516000	28.129486	1.994997E-5	20.762515
2376.646599	-2.999900	3.175600	-9.525700	28.071875	1.994997E-5	20.751461
2377.644085	-3.029200	3.174500	-9.615400	28.067979	1.853086E-5	20.766032
2378.646278	-3.004400	3.174000	-9.535000	28.015395	1.757379E-5	20.760515
2379.647502	-3.036200	3.172200	-9.630200	28.027176	1.892689E-5	20.735863
2380.645546	-2.999800	3.172500	-9.516200	28.056773	1.902590E-5	20.757122
2381.646316	-3.010700	3.171700	-9.548400	27.999870	1.664973E-5	20.752000
2382.647621	-3.036000	3.169400	-9.620900	27.995458	1.701275E-5	20.741869
2383.649279	-2.994300	3.171000	-9.494500	28.075433	1.655072E-5	20.777328
2384.646429	-3.000200	3.169500	-9.508300	28.152604	1.856387E-5	20.747856
2385.649697	-3.003400	3.170100	-9.519900	28.131998	1.790382E-5	20.764571
2386.650003	-3.025500	3.167700	-9.582700	28.077513	1.750779E-5	20.742912
2387.647801	-3.000400	3.169100	-9.507200	28.060870	1.952094E-5	20.753660
2388.649801	-2.977200	3.168300	-9.431900	28.066179	1.730977E-5	20.738615
2389.646723	-3.003200	3.167000	-9.509000	28.068259	1.648471E-5	20.763469
2390.649687	-2.990700	3.166500	-9.468700	28.042745	1.668273E-5	20.766235
2391.648508	-2.969400	3.166800	-9.402800	28.092022	1.602268E-5	20.754673
2392.648691	-2.996100	3.165000	-9.481400	28.160096	1.658372E-5	20.752554
2393.652552	-2.982300	3.166000	-9.440800	28.183189	1.780481E-5	20.753991
2394.648036	-2.984600	3.164400	-9.444100	28.201611	1.516462E-5	20.777754
2395.650959	-3.029300	3.162800	-9.580300	28.268153	1.697975E-5	20.754658
2396.648638	-2.979700	3.163200	-9.423700	28.249536	1.453757E-5	20.763416
2397.652337	-2.982300	3.162200	-9.430000	28.256698	1.585767E-5	20.771575
2398.647857	-2.980100	3.161900	-9.421600	28.241923	1.645171E-5	20.766656
2399.648522	-3.008700	3.159900	-9.506200	28.200130	1.410854E-5	20.762986
2400.651532	-2.993100	3.160100	-9.457300	28.179255	1.519762E-5	20.751927
2401.648741	-2.998100	3.159500	-9.471600	28.192462	1.529663E-5	20.756215
2402.649087	-3.001300	3.158000	-9.476900	28.187380	1.615469E-5	20.761055
2403.652714	-3.006500	3.156200	-9.487900	28.281717	1.483459E-5	20.764048
2404.649758	-2.987700	3.157800	-9.433600	28.276881	1.523062E-5	20.795215
2405.652686	-3.014700	3.155500	-9.510600	28.286868	1.325048E-5	20.760226
2406.654674	-3.014600	3.154800	-9.508900	28.290705	1.288745E-5	20.766933
2407.650750	-2.999500	3.153900	-9.458900	28.337772	1.229340E-5	20.763589
2408.650846	-3.012000	3.154800	-9.500500	28.370440	1.348149E-5	20.745749
2409.649908	-3.001800	3.153200	-9.464600	28.279402	1.473558E-5	20.765511
2410.653167	-2.994900	3.152100	-9.439200	28.235928	1.321747E-5	20.775794
2411.652190	-2.997700	3.151000	-9.444900	28.230890	1.400953E-5	20.753178
2412.655071	-3.004800	3.150300	-9.464700	28.216693	1.249142E-5	20.770652
2413.655042	-3.025200	3.149800	-9.527100	28.219887	1.447156E-5	20.766755
2414.653926	-2.994000	3.149800	-9.429800	28.209697	1.127033E-5	20.772144
2415.656342	-3.006600	3.148900	-9.466200	28.247869	1.219440E-5	20.748461
2416.656667	-3.006300	3.146800	-9.459100	28.236787	1.150135E-5	20.753425
2417.654992	-2.993500	3.146900	-9.419600	28.243827	1.084130E-5	20.759090
2418.654558	-2.992900	3.145800	-9.414600	28.198738	1.090730E-5	20.748782
2419.656386	-2.995200	3.144600	-9.417600	28.233069	1.090730E-5	20.782872
2420.657392	-2.982400	3.145500	-9.380300	28.205056	1.219440E-5	20.767946
2421.658904	-3.002600	3.143300	-9.437300	28.241300	1.262343E-5	20.758443
2422.658234	-3.014600	3.142200	-9.471100	28.256121	1.001624E-5	20.780951
2423.658881	-3.005000	3.141900	-9.440400	28.323836	1.057728E-5	20.757144
2424.657526	-3.018600	3.139800	-9.477200	28.359399	1.163336E-5	20.773987
2425.659527	-3.012700	3.140200	-9.460000	28.307497	1.034626E-5	20.762029
2426.658839	-2.986400	3.139300	-9.373400	28.298279	1.206239E-5	20.770292
2427.663286	-3.000200	3.138900	-9.416700	28.318926	9.620208E-6	20.765476
2428.663176	-3.001600	3.136800	-9.414700	28.367601	1.143534E-5	20.765649
2429.658782	-3.028100	3.136000	-9.495100	28.348790	9.389191E-6	20.761407
2430.663216	-2.993100	3.136200	-9.385800	28.347176	1.008224E-5	20.763575
2431.663091	-2.998900	3.136400	-9.405200	28.364947	1.130333E-5	20.785737
2432.661639	-3.004800	3.133800	-9.415700	28.341628	8.267109E-6	20.781223
2433.666937	-3.014500	3.133700	-9.445900	28.320903	8.432121E-6	20.766993
2434.664327	-2.994100	3.134100	-9.383100	28.306677	8.729143E-6	20.769265
2435.663640	-3.004800	3.131200	-9.407800	28.289253	1.140234E-5	20.770213
2436.666390	-3.000100	3.130600	-9.391100	28.320682	7.871079E-6	20.791901
2437.666810	-3.026900	3.129800	-9.472400	28.323532	8.927157E-6	20.769640
2438.665455	-2.988800	3.129800	-9.353700	28.390473	6.055946E-6	20.769714
2439.670476	-3.025000	3.128500	-9.463100	28.422051	6.616987E-6	20.765951
2440.669433	-2.982800	3.127600	-9.328700	28.393593	7.013016E-6	20.778546
2441.666752	-3.005400	3.125900	-9.394200	28.418407	7.772072E-6	20.765600
2442.669071	-2.995200	3.127500	-9.366300	28.382076	7.541055E-6	20.762207
2443.668780	-2.990900	3.125600	-9.346800	28.339543	6.451975E-6	20.774856
2444.666812	-2.995800	3.124900	-9.360700	28.307727	7.838077E-6	20.785969
2445.668876	-2.989500	3.123900	-9.337500	28.299868	8.267109E-6	20.762409
2446.668284	-2.987100	3.122700	-9.326700	28.330954	6.055946E-6	20.779484
2447.666611	-2.999200	3.120300	-9.356100	28.330797	6.616987E-6	20.784068
2448.672657	-2.989800	3.121000	-9.330900	28.365776	6.154953E-6	20.775666
2449.670419	-2.995100	3.118600	-9.339800	28.334701	5.263888E-6	20.781360
2450.670382	-2.989700	3.120300	-9.327400	28.298416	4.405824E-6	20.770904
2451.668426	-3.016200	3.118500	-9.405300	28.343526	6.154953E-6	20.785504
2452.669830	-2.988700	3.117700	-9.316600	28.453167	7.640062E-6	20.775473
2453.669470	-2.978500	3.116600	-9.281800	28.531155	8.927157E-6	20.783835
2454.671481	-2.991000	3.114700	-9.315000	28.545509	4.933863E-6	20.775532
2455.672762	-2.996800	3.114000	-9.330900	28.546005	3.613766E-6	20.779350
2456.669657	-3.015600	3.112900	-9.386400	28.564219	6.385970E-6	20.773038
2457.681786	-2.986800	3.112600	-9.296100	28.520561	3.118730E-6	20.766053
2458.673574	-2.999000	3.111400	-9.330200	28.481437	4.537834E-6	20.791613
2459.673121	-3.007500	3.110300	-9.353400	28.452396	2.227664E-6	20.775645
2460.673789	-3.023500	3.109900	-9.401600	28.467214	6.385970E-6	20.772548
2461.675895	-3.000800	3.107600	-9.324800	28.481466	3.316744E-6	20.775047
2462.675682	-2.985400	3.108600	-9.279100	28.489152	4.702846E-6	20.774252
2463.676766	-3.005900	3.107300	-9.339500	28.475027	5.593912E-6	20.793693
2464.677923	-2.982700	3.106300	-9.264500	28.476022	3.745776E-6	20.782841
2465.676424	-3.009300	3.104200	-9.340400	28.475330	5.692919E-6	20.768868
2466.677126	-3.012100	3.103000	-9.345700	28.457512	3.415751E-6	20.799288
2467.676545	-3.001100	3.102300	-9.309500	28.414491	5.395897E-6	20.792952
2468.676760	-3.012300	3.101500	-9.341300	28.433998	2.557688E-6	20.791257
2469.676536	-2.999000	3.101600	-9.300900	28.496650	5.593912E-6	20.777062
2470.679299	-3.020300	3.099400	-9.359500	28.535602	4.636841E-6	20.789262
2471.678745	-3.003000	3.099000	-9.305400	28.507283	4.306817E-6	20.792986
2472.679464	-2.989300	3.098300	-9.259900	28.474948	4.999868E-6	20.789346
2473.682783	-3.010100	3.096300	-9.319300	28.436906	5.131878E-6	20.775694
2474.678682	-3.008900	3.095700	-9.313500	28.423178	3.415751E-6	20.795534
2475.679409	-3.019400	3.094500	-9.342700	28.424119	5.098875E-6	20.782732
2476.678198	-3.012700	3.094000	-9.321000	28.436367	1.534613E-6	20.783211
2477.680788	-2.975400	3.092900	-9.201500	28.402783	3.679771E-6	20.797757
2478.681776	-3.002100	3.091900	-9.281900	28.432256	2.359674E-6	20.796616
2479.691119	-3.001400	3.090700	-9.274700	28.472574	1.864637E-6	20.798809
2480.680880	-3.016000	3.088800	-9.315500	28.425959	2.128657E-6	20.786481
2481.683118	-2.995600	3.088500	-9.251100	28.413446	1.930642E-6	20.794270
2482.682964	-2.971000	3.088500	-9.175100	28.434782	2.590691E-6	20.810065
2483.683737	-2.989800	3.087000	-9.228500	28.428808	9.075668E-7	20.804523
2484.684094	-2.995200	3.084900	-9.238600	28.478719	2.821708E-6	20.809739
2485.686633	-2.991300	3.084900	-9.226400	28.515444	1.633620E-6	20.777496
2486.684059	-2.997300	3.083300	-9.241000	28.559059	2.359674E-6	20.807195
2487.684010	-2.988900	3.083100	-9.214100	28.635548	3.118730E-6	20.779917
2488.684070	-3.004300	3.081000	-9.255500	28.676980	3.316744E-6	20.773283
2489.685374	-2.978700	3.080800	-9.176300	28.573771	1.534613E-6	20.798779
2490.684384	-2.999100	3.078600	-9.231600	28.496910	1.963645E-6	20.808144
2491.684598	-2.983700	3.078500	-9.185000	28.484222	3.646768E-6	20.801530
2492.687894	-2.981700	3.076600	-9.172600	28.524738	8.250607E-8	20.782115
2493.685172	-2.995500	3.076000	-9.213100	28.576626	1.699625E-6	20.804973
2494.685260	-3.004300	3.073300	-9.231900	28.608492	6.765498E-7	20.805773
2495.689954	-3.027200	3.071700	-9.297900	28.608644	-2.475182E-7	20.793598
2496.686010	-3.002100	3.073500	-9.226200	28.551531	1.485109E-7	20.791553
2497.684534	-3.011900	3.071300	-9.249400	28.550069	1.485109E-7	20.825168
2498.693085	-3.007900	3.069900	-9.232900	28.566106	-2.293669E-6	20.810974
2499.685585	-3.015200	3.068700	-9.252300	28.586095	-6.105450E-7	20.826364
2500.688142	-3.009700	3.067800	-9.232200	28.586100	2.227664E-6	20.797445
2501.692258	-3.022300	3.066700	-9.267300	28.590784	-6.105450E-7	20.788412
2502.690280	-3.012400	3.065900	-9.234600	28.522242	8.250607E-8	20.807576
2503.685586	-3.008100	3.064000	-9.215500	28.475982	6.765498E-7	20.814569
2504.688598	-3.016200	3.062300	-9.235500	28.454544	1.864637E-6	20.808153
2505.686981	-3.008800	3.061500	-9.210300	28.568283	-1.039577E-6	20.802735
2506.686559	-3.004300	3.060300	-9.192300	28.590592	1.369601E-6	20.812401
2507.690602	-2.986700	3.060700	-9.140100	28.614107	-5.775425E-7	20.815695
2508.686335	-2.999200	3.057500	-9.169000	28.676597	-5.115377E-7	20.796131
2509.687050	-2.996000	3.057200	-9.158000	28.639181	-8.745644E-7	20.811551
2510.692312	-2.986300	3.055700	-9.124500	28.687057	-1.650122E-8	20.815201
2511.692859	-3.006100	3.054200	-9.180400	28.653314	-8.415620E-7	20.814406
2512.689811	-3.035600	3.052900	-9.266100	28.652769	-1.567615E-6	20.793943
2513.693244	-2.984400	3.052400	-9.108400	28.683295	-1.468608E-6	20.810465
2514.690196	-3.015300	3.050600	-9.197700	28.741917	1.468608E-6	20.809294
2515.694340	-2.999700	3.050700	-9.150300	28.764914	1.369601E-6	20.825820
2516.697767	-2.994500	3.048600	-9.128500	28.776186	-4.455328E-7	20.818683
2517.693501	-2.987800	3.047300	-9.103500	28.735852	1.897640E-6	20.797494
2518.697034	-2.975000	3.046800	-9.063500	28.771582	-7.095522E-7	20.819261
2519.695180	-3.030800	3.045400	-9.229400	28.794520	8.085595E-7	20.823874
2520.693840	-3.005200	3.042700	-9.142800	28.736131	1.815134E-7	20.828121
2521.695113	-2.962100	3.043700	-9.014800	28.677112	2.805207E-7	20.817512
2522.693944	-2.996300	3.042400	-9.114900	28.617496	-5.445401E-7	20.839496
2523.692703	-2.981200	3.040100	-9.062300	28.625028	-1.815134E-7	20.825272
2524.697449	-3.005700	3.038500	-9.132100	28.602455	1.105581E-6	20.810598
2525.700889	-2.991100	3.037900	-9.085700	28.641677	-1.155085E-7	20.835875
2526.696697	-3.000700	3.036500	-9.110700	28.740657	1.105581E-6	20.808499
2527.695652	-2.978400	3.035200	-9.039100	28.788817	2.095654E-6	20.827613
2528.700199	-3.008900	3.032900	-9.124300	28.756260	-1.402603E-6	20.826585
2529.695574	-3.000600	3.033600	-9.101800	28.688748	6.765498E-7	20.842034
2530.695715	-2.998000	3.032700	-9.091200	28.610547	-1.006574E-6	20.829178
2531.700996	-3.007100	3.030800	-9.113100	28.639907	-1.435606E-6	20.855903
2532.696193	-3.015400	3.029100	-9.132600	28.700836	-8.250608E-8	20.831450
2533.698736	-3.008800	3.027900	-9.109300	28.703582	-6.435474E-7	20.843699
2534.701079	-3.002300	3.025900	-9.083200	28.708809	1.171586E-6	20.826205
2535.696313	-3.017800	3.024000	-9.125100	28.723574	-7.095522E-7	20.837757
2536.700033	-2.999100	3.022800	-9.064800	28.730237	-3.135231E-7	20.804167
2537.694574	-3.008600	3.021600	-9.089200	28.696717	-9.405693E-7	20.820190
2538.697552	-3.007500	3.020400	-9.083100	28.626823	5.445401E-7	20.833243
2539.701975	-2.999400	3.020300	-9.058300	28.638730	-2.491683E-6	20.830537
2540.698566	-2.994000	3.018900	-9.037500	28.617893	-2.326671E-6	20.831836
2541.695271	-3.015900	3.016600	-9.097300	28.612219	-2.953718E-6	20.834656
2542.695405	-3.008300	3.016500	-9.073900	28.651912	-1.534613E-6	20.835752
2543.699041	-2.981700	3.015000	-8.988300	28.645522	-3.580764E-6	20.816515
2544.698239	-2.984900	3.013900	-8.995300	28.677083	-1.699625E-6	20.837397
2545.696559	-2.984400	3.011400	-8.986300	28.705421	-2.557688E-6	20.839388
2546.700439	-2.977600	3.009400	-8.960100	28.794908	-2.194662E-6	20.825213
2547.696293	-3.000500	3.008700	-9.026300	28.781159	-1.237591E-6	20.832700
2548.697016	-2.984500	3.006200	-8.971000	28.845345	1.732628E-6	20.829554
2549.699914	-2.999300	3.005700	-9.014000	28.905566	-2.788705E-6	20.839961
2550.696504	-3.001900	3.003400	-9.014800	28.959813	-1.468608E-6	20.848619
2551.695952	-2.991500	3.002800	-8.981800	28.985476	-2.689698E-6	20.877318
2552.696550	-3.006700	3.000500	-9.020700	29.006178	-1.006574E-6	20.839857
2553.696014	-3.006000	3.000700	-9.018500	28.945963	-3.151732E-6	20.857425
2554.700922	-2.998400	2.999800	-8.992900	28.951116	-3.415752E-6	20.842228
2555.698282	-3.002400	2.996900	-8.996700	28.945243	-2.260666E-6	20.836785
2556.695930	-3.001900	2.996600	-8.994700	28.973951	-4.141805E-6	20.835837
2557.703797	-3.018300	2.995200	-9.040200	28.991261	-3.613766E-6	20.847112
2558.697124	-3.009600	2.993500	-9.007400	28.913631	-3.547761E-6	20.864680
2559.701417	-2.954600	2.993500	-8.843600	28.940683	-2.128657E-6	20.861588
2560.697727	-3.023800	2.990800	-9.042800	28.877714	-2.227664E-6	20.862635
2561.705235	-3.031300	2.988100	-9.057400	28.846875	-3.778778E-6	20.856699
2562.696107	-3.027200	2.986400	-9.039100	28.836344	-1.600618E-6	20.865055
2563.699696	-2.974400	2.987200	-8.884100	28.858073	-1.485109E-7	20.846643
2564.702073	-2.972200	2.984300	-8.868700	28.874395	-2.392676E-6	20.880627
2565.697121	-2.970800	2.984200	-8.865000	28.898546	-3.745776E-6	20.865129
2566.698710	-2.991900	2.983400	-8.924900	28.941870	-2.524686E-6	20.851878
2567.698760	-2.984900	2.981700	-8.898100	28.944767	-1.237591E-6	20.858116
2568.698955	-2.973400	2.978900	-8.856400	28.971716	-5.164880E-6	20.855869
2569.696854	-2.978500	2.977400	-8.866700	29.047787	-4.306817E-6	20.869925
2570.697464	-2.961800	2.978200	-8.819700	29.017248	-2.095654E-6	20.871397
2571.698618	-2.951500	2.975400	-8.780100	28.954185	-2.458681E-6	20.876612
2572.701092	-2.999100	2.974800	-8.920500	28.890270	-5.197883E-6	20.879551
2573.701674	-2.989800	2.972000	-8.884700	28.810578	-3.976793E-6	20.853325
2574.700430	-3.007500	2.969300	-8.928600	28.841031	-2.194662E-6	20.859820
2575.701357	-2.995100	2.969000	-8.891800	28.807636	-5.362895E-6	20.845621
2576.703672	-2.972800	2.967700	-8.821800	28.753534	-3.976793E-6	20.876943
2577.701556	-3.007500	2.965400	-8.917600	28.797952	-4.768851E-6	20.877116
2578.702270	-3.000700	2.964900	-8.896300	28.862765	-3.778778E-6	20.868912
2579.703718	-3.010300	2.962900	-8.918200	28.948841	-5.032871E-6	20.881185
2580.701676	-3.012500	2.962000	-8.921700	28.912508	-2.326671E-6	20.887729
2581.702411	-2.979700	2.959700	-8.817200	28.895932	-4.966866E-6	20.871979
2582.702786	-3.001100	2.959900	-8.882300	28.957165	-2.821708E-6	20.874873
2583.701923	-2.998200	2.958200	-8.868400	28.984765	-4.669844E-6	20.869964
2584.705236	-2.982100	2.955500	-8.812900	28.952219	-2.689698E-6	20.882217
2585.703987	-2.995400	2.953300	-8.845800	28.936839	-3.382749E-6	20.878577
2586.703243	-3.019700	2.951800	-8.911600	28.941100	-3.580764E-6	20.878128
2587.702975	-2.991100	2.950100	-8.822400	29.008575	-2.326671E-6	20.870719
2588.704731	-3.013900	2.948700	-8.886200	29.060243	-2.392676E-6	20.872991
2589.700847	-2.965000	2.948900	-8.742600	29.054125	-2.590691E-6	20.871095
2590.701994	-2.990200	2.945700	-8.807300	29.095840	-4.141805E-6	20.884202
2591.702354	-2.993900	2.943900	-8.812700	29.045782	-4.240812E-6	20.891136
2592.702576	-2.982700	2.942300	-8.775100	28.946193	-4.504832E-6	20.874250
2593.705474	-2.979100	2.941700	-8.763700	28.940398	-1.765630E-6	20.869361
2594.704941	-3.009100	2.938600	-8.841300	28.948919	-3.943790E-6	20.863247
2595.705815	-2.996000	2.939400	-8.805700	28.972431	-4.141805E-6	20.898312
2596.704154	-3.010900	2.935800	-8.839100	28.933491	-4.900861E-6	20.874729
2597.706738	-2.990600	2.935700	-8.778300	28.916498	-2.722700E-6	20.896964
2598.700820	-3.020300	2.932900	-8.857800	28.980456	-5.032871E-6	20.881268
2599.704764	-2.963300	2.933400	-8.691700	29.039855	-3.415752E-6	20.884691
2600.703479	-2.993700	2.929500	-8.769600	29.085482	-5.131878E-6	20.859068
2601.702421	-2.995700	2.927700	-8.770200	29.122755	-3.349747E-6	20.865805
2602.702463	-3.017900	2.926000	-8.829500	29.121569	-4.867859E-6	20.887367
2603.703153	-2.971600	2.925200	-8.691400	29.052664	-2.128657E-6	20.872467
2604.703714	-3.006700	2.922200	-8.785200	29.068522	-3.052725E-6	20.892237
2605.705919	-2.989800	2.922100	-8.735200	29.023443	-3.646769E-6	20.884750
2606.709190	-2.988300	2.921300	-8.728800	29.077360	-6.022944E-6	20.882651
2607.706232	-2.983400	2.918200	-8.705100	29.084178	-5.428900E-6	20.880038
2608.705826	-2.999000	2.916700	-8.746200	29.073531	-3.283742E-6	20.893017
2609.706951	-3.002500	2.915200	-8.752600	29.129230	-4.240812E-6	20.878967
2610.705985	-2.998400	2.912300	-8.731500	29.098276	-7.112024E-6	20.892820
2611.704410	-2.991100	2.911000	-8.706000	29.145032	-4.273815E-6	20.909112
2612.705264	-2.991400	2.908800	-8.700100	29.105707	-3.448754E-6	20.896040
2613.705267	-2.981500	2.907700	-8.668600	29.060012	-5.428900E-6	20.888879
2614.707121	-3.007800	2.906500	-8.741400	29.042257	-6.550982E-6	20.883792
2615.713368	-2.986800	2.904300	-8.673500	29.120103	-6.187956E-6	20.897743
2616.712507	-3.004300	2.902200	-8.718100	29.088526	-4.867859E-6	20.889160
2617.711427	-3.010400	2.899800	-8.728200	28.993074	-6.881007E-6	20.884498
2618.709286	-2.997200	2.898200	-8.685800	28.973577	-3.646769E-6	20.894726
2619.709340	-3.019300	2.896900	-8.746000	28.894166	-6.451975E-6	20.906707
2620.709531	-3.002300	2.894800	-8.690700	28.975322	-3.679771E-6	20.903122
2621.709808	-2.994100	2.894100	-8.664200	29.036820	-2.425679E-6	20.900124
2622.709299	-3.001700	2.892300	-8.680800	29.038208	-5.032871E-6	20.903892
2623.713693	-2.987000	2.890700	-8.633300	29.072962	-2.953718E-6	20.906667
2624.713212	-3.003400	2.886700	-8.668200	29.099241	-4.372822E-6	20.895689
2625.714580	-2.998600	2.885000	-8.649800	29.037967	-2.920715E-6	20.921192
2626.713183	-2.986800	2.884800	-8.615500	29.078668	-4.537834E-6	20.903408
2627.715327	-2.997100	2.881500	-8.635000	29.072109	-2.920715E-6	20.888740
2628.715102	-3.007400	2.879800	-8.659800	29.146826	-3.481756E-6	20.890533
2629.713885	-3.006000	2.879200	-8.653600	29.168726	-4.141805E-6	20.919236
2630.712624	-3.005400	2.875800	-8.641600	29.121745	-2.623693E-6	20.888967
2631.714423	-2.984900	2.875700	-8.582700	29.099261	-3.349747E-6	20.923207
2632.711892	-3.027200	2.872400	-8.694100	29.158232	-4.141805E-6	20.918145
2633.716402	-3.006600	2.872000	-8.632900	29.221572	-9.735717E-7	20.907058
2634.715920	-3.048700	2.868500	-8.743300	29.253125	-2.821708E-6	20.911354
2635.715303	-3.015700	2.866800	-8.644800	29.205236	-2.788705E-6	20.898183
2636.716714	-3.017000	2.864800	-8.642200	29.248749	-3.481756E-6	20.909789
2637.717299	-2.993400	2.864300	-8.573400	29.240005	-3.283742E-6	20.907616
2638.713686	-3.010600	2.860600	-8.611300	29.202741	-2.458681E-6	20.915582
2639.713412	-3.008500	2.858700	-8.599800	29.165319	-4.735849E-6	20.916752
2640.718018	-3.024600	2.858000	-8.643900	29.130450	-3.085727E-6	20.907220
2641.714337	-3.026500	2.854000	-8.636600	29.180504	-3.877786E-6	20.911191
2642.713714	-3.006500	2.852900	-8.576500	29.187537	-4.900861E-6	20.909270
2643.717650	-3.016700	2.851400	-8.600400	29.256703	-1.633620E-6	20.884142
2644.716198	-3.005100	2.850100	-8.563800	29.305732	-1.369601E-6	20.904154
2645.735841	-3.004300	2.847100	-8.552500	29.394476	-2.029649E-6	20.897343
2646.719513	-3.006700	2.845400	-8.553800	29.400915	-2.788705E-6	20.912841
2647.716166	-2.994500	2.844500	-8.516500	29.401508	-2.293669E-6	20.894948
2648.717062	-2.988500	2.841500	-8.490600	29.501804	-4.504832E-6	20.893150
2649.723314	-2.999500	2.838200	-8.512200	29.481876	-4.438827E-6	20.898667
2650.721150	-3.012100	2.837100	-8.544000	29.464148	-1.105581E-6	20.882221
2651.717414	-2.976500	2.835700	-8.440100	29.451667	-3.085727E-6	20.892874
2652.719069	-2.965600	2.833100	-8.400500	29.412500	-3.514759E-6	20.904603
2653.718402	-3.007300	2.829900	-8.509600	29.341830	-5.461902E-6	20.904499
2654.717360	-2.987800	2.826900	-8.445000	29.322022	-5.296890E-6	20.894494
2655.722969	-3.012500	2.824700	-8.508900	29.297949	-5.659917E-6	20.902949
2656.718703	-2.997700	2.823400	-8.462800	29.338831	-4.504832E-6	20.882038
2657.721379	-2.980100	2.820900	-8.405000	29.354008	-4.042798E-6	20.889273
2658.721227	-3.012400	2.817700	-8.487000	29.349725	-4.537834E-6	20.907714
2659.718723	-3.003000	2.815100	-8.452800	29.338826	-2.755703E-6	20.879663
2660.730366	-3.004900	2.814300	-8.456200	29.357223	-5.527907E-6	20.893461
2661.724640	-3.033900	2.810800	-8.526100	29.329711	-3.712773E-6	20.893234
2662.721523	-2.988000	2.807800	-8.388900	29.377869	-3.052725E-6	20.896726
2663.722030	-3.001300	2.804800	-8.417100	29.335798	-5.428900E-6	20.878033
2664.724509	-2.984400	2.802700	-8.363800	29.384181	-4.306817E-6	20.890760
2665.723527	-2.978600	2.801100	-8.342800	29.423442	-5.824929E-6	20.890029
2666.723864	-3.006100	2.797400	-8.407000	29.341487	-2.821708E-6	20.889456
2667.724000	-3.027600	2.795700	-8.463500	29.293225	-4.603839E-6	20.873534
2668.724732	-3.001900	2.794000	-8.386300	29.291936	-3.679771E-6	20.892148
2669.725174	-2.963500	2.790700	-8.269600	29.248229	-5.395897E-6	20.874181
2670.726290	-3.013200	2.788000	-8.400100	29.263506	-4.900861E-6	20.874877
2671.725579	-3.007900	2.784400	-8.374300	29.327168	-7.145026E-6	20.878344
2672.724728	-3.028800	2.780300	-8.419800	29.358610	-3.283742E-6	20.865938
2673.734539	-3.003000	2.778700	-8.342800	29.467058	-3.118730E-6	20.893215
2674.726522	-2.958200	2.776600	-8.212500	29.595868	-3.316744E-6	20.876546
2675.727551	-2.999300	2.772400	-8.313900	29.654478	-3.415752E-6	20.864511
2676.727006	-2.981700	2.768900	-8.254900	29.702651	-4.042798E-6	20.886997
2677.727865	-2.988300	2.766700	-8.266200	29.756009	-3.646769E-6	20.874887
2678.727043	-2.970300	2.765300	-8.212800	29.732970	-3.811781E-6	20.868728
2679.729337	-3.021900	2.760000	-8.338400	29.712052	-4.999868E-6	20.851433
2680.727073	-3.028900	2.757800	-8.351900	29.612869	-4.009795E-6	20.886098
2681.730067	-2.997600	2.753300	-8.251800	29.607715	-6.385970E-6	20.885644
2682.732363	-2.998100	2.751300	-8.246800	29.542462	-3.811781E-6	20.893832
2683.729725	-2.975000	2.748200	-8.174600	29.520227	-5.065873E-6	20.859093
2684.733496	-2.958700	2.746000	-8.123000	29.545378	-2.029649E-6	20.870220
2685.729691	-3.015000	2.740700	-8.262200	29.643950	-3.811781E-6	20.861957
2686.730486	-2.988000	2.738200	-8.181300	29.675412	-4.207810E-6	20.861908
2687.731285	-2.984600	2.735200	-8.162400	29.627464	-3.481756E-6	20.887535
2688.730527	-3.015000	2.731000	-8.233200	29.581199	-4.240812E-6	20.864130
2689.729499	-2.990100	2.729300	-8.159900	29.547774	-2.458681E-6	20.857937
2690.730733	-3.010500	2.725400	-8.203700	29.583521	-2.821708E-6	20.855092
2691.730844	-3.019900	2.719800	-8.213300	29.579832	-2.755703E-6	20.870338
2692.733953	-2.994000	2.717900	-8.136600	29.566094	-3.712773E-6	20.856490
2693.734031	-3.022300	2.712700	-8.197500	29.578249	-5.329893E-6	20.860683
2694.733432	-3.005800	2.710700	-8.147200	29.662714	-2.623693E-6	20.860486
2695.733206	-3.020000	2.705200	-8.168000	29.667662	-2.887713E-6	20.872586
2696.732239	-3.003000	2.700700	-8.109700	29.710460	-2.425679E-6	20.856465
2697.734458	-3.011300	2.698800	-8.124500	29.690981	-3.019722E-6	20.851526
2698.733489	-3.030000	2.693500	-8.160300	29.700858	-4.669844E-6	20.870966
2699.735855	-3.018300	2.689100	-8.115800	29.770166	-5.098876E-6	20.865928
2700.734766	-3.015800	2.687400	-8.103500	29.787884	-3.217737E-6	20.856767
2701.736257	-3.005600	2.681700	-8.059000	29.754848	-2.689698E-6	20.869449
2702.733091	-2.993100	2.678000	-8.014300	29.787713	-3.151732E-6	20.871766
2703.735364	-3.000100	2.673200	-8.019000	29.799371	-3.646769E-6	20.859814
2704.735111	-2.984400	2.669500	-7.965700	29.766825	-3.811781E-6	20.856870
2705.732397	-2.990300	2.664200	-7.966400	29.743243	-5.560910E-6	20.861068
2706.737873	-2.954600	2.660700	-7.860600	29.700275	-3.778778E-6	20.870852
2707.742902	-3.021000	2.654700	-8.018900	29.652675	-4.339820E-6	20.847521
2708.737013	-2.991100	2.651500	-7.929400	29.662851	-3.514759E-6	20.854460
2709.736047	-3.035500	2.645600	-8.030200	29.688796	-2.194662E-6	20.846479
2710.738279	-3.000500	2.640600	-7.921600	29.733254	-2.557688E-6	20.862377
2711.738379	-2.991400	2.637200	-7.887200	29.695581	-4.603839E-6	20.863276
2712.738606	-3.003200	2.632200	-7.904000	29.690016	-2.887713E-6	20.865725
2713.739124	-2.998800	2.625500	-7.872200	29.704600	-6.253961E-6	20.859567
2714.737628	-3.014800	2.621500	-7.902400	29.739529	-1.369601E-6	20.853057
2715.740438	-3.035900	2.616500	-7.942700	29.786934	-2.359674E-6	20.849645
2716.737763	-2.997000	2.611300	-7.825000	29.835169	-1.699625E-6	20.846123
2717.742424	-2.994000	2.605100	-7.798600	29.805391	-2.425679E-6	20.847392
2718.741484	-3.025800	2.600500	-7.867600	29.769191	-4.141805E-6	20.857359
2719.740075	-2.998800	2.593300	-7.776400	29.715701	-4.273815E-6	20.862224
2720.739006	-3.033200	2.587800	-7.848200	29.776127	-4.273815E-6	20.854870
2721.740796	-2.995900	2.584200	-7.739900	29.855550	-4.141805E-6	20.850553
2722.737904	-2.975300	2.577700	-7.668000	29.916115	-3.019722E-6	20.844296
2723.738742	-2.991000	2.572200	-7.692500	29.921856	-2.029649E-6	20.835860
2724.738636	-2.986800	2.566300	-7.664100	29.902435	-4.471829E-6	20.831924
2725.739244	-2.998100	2.560400	-7.675800	29.905261	-3.415752E-6	20.845679
2726.737320	-2.980300	2.554200	-7.611400	29.942456	-4.504832E-6	20.835297
2727.737941	-2.989000	2.549200	-7.618700	29.931524	-4.174807E-6	20.844187
2728.738559	-3.004400	2.542900	-7.638500	29.943999	-2.260666E-6	20.829267
2729.738420	-2.996300	2.537000	-7.600200	30.016979	-5.362895E-6	20.832689
2730.739535	-2.993400	2.529600	-7.571600	29.954299	-2.953718E-6	20.827800
2731.739521	-3.041300	2.524000	-7.675100	29.911859	-2.359674E-6	20.845693
2732.740943	-2.983800	2.517100	-7.509600	29.909738	-1.864637E-6	20.844029
2733.742101	-3.016900	2.511100	-7.574900	30.018620	-3.283742E-6	20.835292
2734.742183	-3.052500	2.503100	-7.640200	30.083377	-3.052725E-6	20.828531
2735.742942	-3.013100	2.499300	-7.529400	30.084151	-2.755703E-6	20.834053
