LabVIEW Measurement	
Writer_Version	2
Reader_Version	2
Separator	Tab
Decimal_Separator	.
Multi_Headings	No
X_Columns	One
Time_Pref	Absolute
Operator	admin
Description	Clolumns are: time, Current, Voltage, Power, Battery Temp, and Chamber Temp
Date	2024/08/16
Time	13:07:17.8513970375061035156
***End_of_Header***	
	
Channels	6						
Samples	1	1	1	1	1	1	
Date	2024/09/17	2024/09/17	2024/09/17	2024/09/17	2024/09/17	2024/09/17	
Time	17:52:28.1814665794372558594	17:52:28.1904749870300292969	17:52:28.1964807510375976562	17:52:28.1655969619750976562	17:52:28.1655969619750976562	17:52:28.1655969619750976562	
X_Dimension	Time	Time	Time	Time	Time	Time	
X0	0.0000000000000000E+0	0.0000000000000000E+0	0.0000000000000000E+0	0.0000000000000000E+0	0.0000000000000000E+0	0.0000000000000000E+0	
Delta_X	1.000000	1.000000	1.000000	1.000000	1.000000	1.000000	
***End_of_Header***							
X_Value	Untitled	Untitled 1	Untitled 2	Untitled 3	Untitled 4	Untitled 5	Comment
0.000000	-0.005366	4.087000	-0.021892	20.896248	0.000477	20.859267
1.003274	-3.021000	3.914700	-11.826000	20.878657	0.000475	20.832666
2.001621	-3.003700	3.909600	-11.742000	20.866779	0.000475	20.830745
3.003565	-3.018600	3.904200	-11.784000	20.890712	0.000475	20.826705
4.003999	-3.006100	3.901800	-11.729000	20.879901	0.000472	20.838178
5.007436	-3.003100	3.899400	-11.710000	20.894105	0.000473	20.830098
6.004120	-3.018500	3.895200	-11.757000	20.887191	0.000471	20.843097
7.004294	-3.011900	3.893400	-11.725000	20.883951	0.000470	20.816624
8.013021	-3.003000	3.892600	-11.688000	20.914319	0.000471	20.826132
9.010813	-2.999100	3.889700	-11.664000	20.894209	0.000469	20.832572
10.013255	-2.991700	3.888900	-11.634000	20.900219	0.000469	20.852333
11.008914	-3.003200	3.886800	-11.672000	20.910403	0.000467	20.832172
12.004851	-3.011100	3.886000	-11.700000	20.924749	0.000466	20.833244
13.008923	-3.003300	3.883700	-11.663000	20.972262	0.000468	20.834770
14.006357	-3.001900	3.882600	-11.654000	20.950509	0.000466	20.831032
15.014718	-2.995900	3.881800	-11.629000	20.951728	0.000466	20.849320
16.009530	-2.987500	3.882700	-11.598000	20.963778	0.000467	20.838613
17.007653	-2.996200	3.881400	-11.629000	20.970396	0.000465	20.853765
18.008706	-2.986400	3.879700	-11.585000	20.977008	0.000466	20.833353
19.009226	-3.007300	3.879200	-11.664000	20.986317	0.000465	20.847878
20.023463	-2.984800	3.878500	-11.576000	21.011892	0.000464	20.854966
21.015703	-3.001700	3.877800	-11.640000	21.002761	0.000464	20.851997
22.008217	-3.011900	3.876000	-11.673000	21.026336	0.000464	20.830059
23.010938	-2.992400	3.875700	-11.597000	21.041486	0.000465	20.865125
24.011569	-3.002700	3.874900	-11.634000	21.035348	0.000462	20.863253
25.015652	-2.986000	3.874100	-11.566000	21.057634	0.000462	20.839552
26.015501	-3.000900	3.874500	-11.627000	21.067189	0.000465	20.832988
27.010473	-3.004400	3.873700	-11.637000	21.061303	0.000461	20.852230
28.013935	-2.992900	3.872200	-11.588000	21.071411	0.000461	20.850486
29.026497	-2.988600	3.873200	-11.574000	21.084402	0.000462	20.850205
30.012487	-3.002600	3.872100	-11.626000	21.083903	0.000459	20.863930
31.015290	-3.019600	3.870300	-11.685000	21.098500	0.000461	20.839176
32.010295	-3.012000	3.870000	-11.656000	21.093039	0.000460	20.848412
33.013208	-3.006200	3.870200	-11.633000	21.110331	0.000464	20.842950
34.015546	-2.993900	3.870000	-11.585000	21.137671	0.000461	20.861287
35.014698	-3.002100	3.869900	-11.618000	21.122107	0.000461	20.876064
36.012086	-3.013700	3.867700	-11.654000	21.145907	0.000460	20.833017
37.018052	-3.012700	3.868000	-11.652000	21.148173	0.000460	20.854250
38.013124	-2.998700	3.868600	-11.600000	21.152563	0.000458	20.869545
39.013366	-3.003500	3.867800	-11.615000	21.169627	0.000460	20.860537
40.013348	-3.025400	3.866600	-11.696000	21.179383	0.000460	20.869822
41.016267	-3.000300	3.867300	-11.602000	21.188888	0.000462	20.859416
42.013958	-2.998500	3.866900	-11.594000	21.200511	0.000458	20.871042
43.015223	-3.000900	3.866400	-11.601000	21.209571	0.000459	20.870148
44.014575	-3.008500	3.867200	-11.633000	21.228801	0.000459	20.867100
45.017492	-3.011000	3.865600	-11.638000	21.225489	0.000459	20.862838
46.013359	-2.999100	3.864800	-11.590000	21.232391	0.000459	20.864527
47.016421	-2.993400	3.864800	-11.568000	21.258034	0.000460	20.858887
48.013798	-2.994300	3.864700	-11.571000	21.252949	0.000460	20.875136
49.013974	-3.002200	3.865400	-11.603000	21.285973	0.000456	20.875457
50.018002	-2.976900	3.865100	-11.505000	21.273799	0.000458	20.878450
51.019528	-3.010500	3.864800	-11.634000	21.277521	0.000459	20.866053
52.022805	-3.002800	3.862400	-11.597000	21.276045	0.000458	20.872637
53.016959	-2.987400	3.864400	-11.544000	21.297324	0.000457	20.863579
54.016851	-2.988400	3.863400	-11.544000	21.325686	0.000457	20.886737
55.015824	-3.003400	3.862700	-11.601000	21.339406	0.000457	20.881971
56.016642	-2.984400	3.862400	-11.526000	21.333965	0.000456	20.890752
57.019716	-3.003400	3.862400	-11.599000	21.348060	0.000458	20.884465
58.014113	-3.009100	3.863100	-11.624000	21.350676	0.000455	20.885186
59.022017	-3.002300	3.861600	-11.592000	21.343844	0.000456	20.878825
60.019117	-2.996900	3.863200	-11.577000	21.366296	0.000456	20.888011
61.019439	-3.002100	3.861800	-11.593000	21.388792	0.000457	20.863579
62.020855	-3.019400	3.861400	-11.658000	21.377068	0.000456	20.897839
63.018835	-2.991400	3.862200	-11.552000	21.412537	0.000457	20.866473
64.021742	-2.988500	3.861800	-11.540000	21.408099	0.000455	20.873412
65.025508	-2.990800	3.861800	-11.549000	21.420410	0.000458	20.856333
66.021884	-2.997900	3.860300	-11.572000	21.418416	0.000456	20.873777
67.023799	-3.000100	3.860400	-11.580000	21.422982	0.000456	20.849898
68.024280	-2.984000	3.860300	-11.517000	21.429414	0.000455	20.855385
69.018711	-3.012100	3.860200	-11.625000	21.430165	0.000457	20.872256
70.021356	-3.000200	3.860000	-11.580000	21.467271	0.000457	20.884726
71.027315	-3.001600	3.859500	-11.583000	21.494854	0.000456	20.873446
72.021475	-2.996000	3.859500	-11.563000	21.459807	0.000458	20.858768
73.024424	-2.994100	3.859900	-11.556000	21.481408	0.000458	20.851459
74.027273	-2.981000	3.858800	-11.503000	21.496049	0.000456	20.863262
75.030372	-2.992300	3.859100	-11.547000	21.486013	0.000455	20.870764
76.024274	-2.984900	3.859500	-11.519000	21.494987	0.000457	20.865045
77.027904	-2.989600	3.860300	-11.540000	21.525512	0.000455	20.880889
78.023005	-2.991800	3.858500	-11.543000	21.540694	0.000459	20.850090
79.028475	-2.985400	3.858500	-11.519000	21.554860	0.000457	20.872799
80.024803	-3.006200	3.858400	-11.598000	21.553587	0.000456	20.874843
81.026493	-3.010400	3.857600	-11.612000	21.556573	0.000455	20.865504
82.024254	-3.015900	3.858100	-11.635000	21.570739	0.000455	20.851705
83.038492	-2.987800	3.858900	-11.528000	21.579367	0.000457	20.866028
84.029493	-2.985100	3.858300	-11.517000	21.588843	0.000457	20.856545
85.026973	-3.009400	3.856400	-11.605000	21.589885	0.000458	20.869914
86.029988	-3.007500	3.857500	-11.600000	21.579756	0.000456	20.869262
87.027684	-3.010500	3.857500	-11.612000	21.618931	0.000458	20.858678
88.026366	-3.001400	3.856000	-11.572000	21.637237	0.000458	20.857083
89.023783	-2.982300	3.857400	-11.503000	21.652946	0.000457	20.849571
90.027291	-2.988200	3.856600	-11.523000	21.633170	0.000459	20.867237
91.027112	-2.993800	3.856700	-11.545000	21.643016	0.000459	20.848168
92.026441	-3.014300	3.855800	-11.622000	21.663839	0.000460	20.845773
93.025056	-2.996700	3.855700	-11.554000	21.673438	0.000460	20.853008
94.026159	-2.983800	3.857300	-11.509000	21.670941	0.000462	20.838182
95.031726	-2.992800	3.856300	-11.540000	21.668345	0.000461	20.879204
96.026277	-2.996500	3.856200	-11.554000	21.684029	0.000457	20.833737
97.028633	-2.985400	3.857300	-11.515000	21.686423	0.000460	20.837080
98.026446	-2.984600	3.856600	-11.509000	21.704046	0.000461	20.845235
99.027723	-3.009100	3.855200	-11.600000	21.709905	0.000459	20.843511
100.025654	-2.988900	3.855100	-11.521000	21.726511	0.000459	20.855389
101.027936	-2.989100	3.854500	-11.521000	21.752040	0.000459	20.857231
102.032961	-2.993500	3.854300	-11.537000	21.750693	0.000461	20.863469
103.031253	-2.999000	3.855000	-11.561000	21.759196	0.000458	20.834996
104.028554	-2.981100	3.855700	-11.493000	21.784700	0.000459	20.840607
105.029213	-2.990400	3.854300	-11.525000	21.783027	0.000461	20.858846
106.027218	-2.994700	3.854100	-11.541000	21.776616	0.000462	20.856223
107.027125	-3.002000	3.854200	-11.569000	21.787986	0.000459	20.848163
108.031490	-2.997100	3.853100	-11.548000	21.784423	0.000462	20.863562
109.027833	-2.974300	3.854900	-11.465000	21.798631	0.000459	20.848859
110.031379	-2.993000	3.853000	-11.530000	21.820028	0.000462	20.836137
111.031680	-2.996600	3.853500	-11.547000	21.820023	0.000460	20.842770
112.029197	-2.994700	3.853200	-11.538000	21.814160	0.000461	20.832635
113.030540	-2.977200	3.853600	-11.472000	21.805164	0.000460	20.847812
114.041280	-2.999900	3.852600	-11.554000	21.845629	0.000460	20.825251
115.032930	-3.004400	3.851900	-11.571000	21.854457	0.000462	20.849734
116.028734	-3.028500	3.850400	-11.660000	21.880437	0.000460	20.832591
117.029262	-3.013700	3.851400	-11.606000	21.879564	0.000461	20.837406
118.029548	-2.995800	3.852200	-11.539000	21.875226	0.000461	20.835436
119.034012	-3.020300	3.851100	-11.630000	21.884849	0.000460	20.844118
120.031973	-3.011800	3.851600	-11.599000	21.864410	0.000464	20.820816
121.033594	-2.996100	3.850500	-11.536000	21.909215	0.000461	20.831524
122.034288	-2.962800	3.852300	-11.413000	21.935534	0.000462	20.823256
123.032042	-2.989700	3.851200	-11.513000	21.922251	0.000463	20.826081
124.036833	-3.015000	3.850700	-11.609000	21.926218	0.000463	20.838587
125.029853	-2.999500	3.851200	-11.551000	21.940799	0.000465	20.835164
126.032468	-3.014800	3.850700	-11.609000	21.948733	0.000465	20.816080
127.033050	-3.009300	3.850300	-11.586000	21.958700	0.000465	20.825108
128.034916	-2.974400	3.851300	-11.454000	21.972392	0.000466	20.830279
129.036118	-2.988300	3.851200	-11.507000	21.967083	0.000463	20.843456
130.040433	-2.989700	3.850700	-11.510000	21.993885	0.000464	20.831880
131.036495	-3.003100	3.849300	-11.559000	21.996006	0.000466	20.829736
132.039978	-2.997100	3.848600	-11.534000	21.990293	0.000465	20.831603
133.043389	-3.016100	3.850100	-11.611000	22.013280	0.000466	20.816682
134.057173	-3.037900	3.847800	-11.688000	22.014109	0.000465	20.818935
135.046401	-3.000900	3.849800	-11.551000	22.043169	0.000466	20.806775
136.040513	-2.998000	3.849300	-11.539000	22.017163	0.000467	20.818199
137.040680	-3.004300	3.849500	-11.563000	22.032201	0.000466	20.820925
138.042086	-2.998400	3.849600	-11.542000	22.038610	0.000469	20.843461
139.042486	-3.006600	3.847400	-11.566000	22.054714	0.000466	20.816910
140.047801	-3.011000	3.847200	-11.583000	22.086773	0.000467	20.816287
141.041528	-2.998900	3.848100	-11.539000	22.072016	0.000469	20.814317
142.040662	-3.016900	3.847000	-11.605000	22.074883	0.000467	20.797746
143.040328	-3.023900	3.846800	-11.631000	22.095875	0.000467	20.796003
144.041244	-2.999300	3.846500	-11.536000	22.101213	0.000468	20.835011
145.042305	-3.015500	3.846500	-11.599000	22.098638	0.000468	20.810622
146.046142	-3.034200	3.845000	-11.665000	22.094380	0.000468	20.837179
147.043086	-2.986000	3.848000	-11.489000	22.114844	0.000468	20.814993
148.045267	-2.990600	3.846800	-11.503000	22.106576	0.000468	20.807664
149.043875	-2.994900	3.846800	-11.520000	22.136384	0.000471	20.816643
150.044946	-2.988400	3.845800	-11.492000	22.135269	0.000471	20.827855
151.046929	-2.994200	3.845100	-11.512000	22.146408	0.000470	20.812929
152.040906	-2.992700	3.845700	-11.509000	22.155757	0.000470	20.798107
153.043244	-3.008800	3.845100	-11.567000	22.173581	0.000469	20.811210
154.041331	-2.996800	3.846700	-11.527000	22.164385	0.000471	20.814806
155.043426	-2.989900	3.845900	-11.498000	22.180566	0.000471	20.811566
156.047653	-2.995700	3.845300	-11.518000	22.180615	0.000470	20.809245
157.043768	-2.989000	3.844500	-11.490000	22.185726	0.000471	20.808672
158.045494	-2.990900	3.844600	-11.498000	22.192983	0.000474	20.787014
159.045562	-2.991300	3.844600	-11.499000	22.173166	0.000473	20.810795
160.046304	-3.018200	3.844700	-11.604000	22.186106	0.000474	20.823276
161.043270	-2.997500	3.844900	-11.523000	22.220751	0.000473	20.807230
162.048910	-3.012600	3.843700	-11.579000	22.207091	0.000473	20.807304
163.042930	-3.013200	3.843100	-11.579000	22.212503	0.000475	20.801342
164.043815	-2.983000	3.845300	-11.470000	22.224140	0.000474	20.798769
165.044146	-2.999300	3.843000	-11.525000	22.242638	0.000475	20.776513
166.043370	-3.007700	3.843300	-11.558000	22.240621	0.000477	20.820012
167.051021	-2.999000	3.842600	-11.522000	22.262513	0.000476	20.796887
168.046496	-3.021300	3.842300	-11.608000	22.259642	0.000477	20.796383
169.044527	-3.006200	3.843600	-11.554000	22.254285	0.000474	20.790545
170.048700	-3.003500	3.841900	-11.539000	22.299819	0.000476	20.788249
171.044059	-3.013400	3.842600	-11.578000	22.322277	0.000477	20.794141
172.044654	-2.996400	3.843100	-11.515000	22.332744	0.000477	20.811260
173.051617	-3.037100	3.842200	-11.668000	22.312407	0.000477	20.789000
174.048300	-2.973900	3.843000	-11.428000	22.315130	0.000477	20.778450
175.049316	-2.969200	3.842200	-11.407000	22.324699	0.000478	20.788032
176.053968	-2.992600	3.841100	-11.494000	22.339679	0.000477	20.784540
177.049754	-2.993000	3.841900	-11.498000	22.311919	0.000478	20.788037
178.053191	-2.987600	3.841600	-11.477000	22.323881	0.000478	20.813290
179.049154	-2.976400	3.843100	-11.437000	22.346013	0.000478	20.788511
180.048458	-2.985400	3.841200	-11.466000	22.349130	0.000479	20.784994
181.049505	-2.990700	3.841000	-11.486000	22.356134	0.000478	20.788215
182.048801	-3.012500	3.840500	-11.568000	22.365880	0.000481	20.785172
183.049836	-3.007500	3.839300	-11.546000	22.375898	0.000480	20.784298
184.049856	-2.983500	3.840400	-11.457000	22.385195	0.000479	20.777013
185.050473	-3.003100	3.840700	-11.533000	22.380539	0.000479	20.796058
186.048793	-3.023300	3.839200	-11.606000	22.410498	0.000480	20.781014
187.051712	-2.992400	3.841200	-11.494000	22.405141	0.000481	20.783710
188.052054	-2.981200	3.839000	-11.444000	22.408979	0.000481	20.809838
189.053407	-2.996400	3.840900	-11.508000	22.387948	0.000481	20.792571
190.052150	-3.006300	3.839700	-11.543000	22.419400	0.000481	20.788032
191.052789	-3.011000	3.838300	-11.556000	22.437097	0.000481	20.794374
192.054562	-2.998300	3.838000	-11.507000	22.461071	0.000485	20.783770
193.052181	-3.025000	3.838200	-11.610000	22.462743	0.000484	20.779280
194.061460	-3.007100	3.837600	-11.539000	22.467207	0.000484	20.771422
195.053330	-2.994800	3.838700	-11.495000	22.495713	0.000481	20.784323
196.053497	-3.008900	3.837100	-11.545000	22.486145	0.000485	20.786121
197.054328	-3.005100	3.836800	-11.528000	22.528607	0.000482	20.776016
198.058999	-2.984100	3.837100	-11.448000	22.488443	0.000483	20.781310
199.052799	-2.993300	3.837500	-11.486000	22.519321	0.000484	20.775724
200.059763	-2.993800	3.837200	-11.487000	22.528765	0.000486	20.760526
201.058264	-2.988400	3.837200	-11.466000	22.542421	0.000482	20.774203
202.057839	-2.996400	3.836700	-11.496000	22.527621	0.000485	20.776925
203.056898	-2.985900	3.836900	-11.455000	22.545385	0.000487	20.756782
204.059339	-2.998400	3.836000	-11.501000	22.558399	0.000486	20.787835
205.059091	-3.011000	3.835700	-11.548000	22.548132	0.000487	20.766646
206.059383	-2.991400	3.836100	-11.474000	22.561412	0.000488	20.788482
207.057396	-2.999000	3.835200	-11.500000	22.571581	0.000485	20.769269
208.056657	-2.992800	3.836000	-11.479000	22.569594	0.000487	20.776762
209.056236	-3.020300	3.834300	-11.579000	22.590296	0.000487	20.768573
210.060281	-3.003600	3.834800	-11.516000	22.608562	0.000488	20.770272
211.060348	-2.981700	3.835400	-11.435000	22.575551	0.000488	20.760917
212.056311	-2.998000	3.835000	-11.497000	22.596953	0.000490	20.758645
213.059606	-3.004900	3.834500	-11.521000	22.608118	0.000486	20.773147
214.068328	-2.999800	3.834900	-11.503000	22.605953	0.000490	20.781884
215.060991	-3.006200	3.833800	-11.522000	22.665778	0.000488	20.764044
216.070378	-2.999100	3.832800	-11.493000	22.639712	0.000490	20.765437
217.061432	-3.006200	3.832700	-11.521000	22.627784	0.000488	20.779094
218.060737	-3.010000	3.832700	-11.535000	22.644476	0.000489	20.775898
219.064377	-3.003200	3.832400	-11.508000	22.620984	0.000491	20.744781
220.061445	-2.993200	3.832800	-11.471000	22.602797	0.000492	20.773033
221.063734	-2.999500	3.831700	-11.493000	22.639224	0.000491	20.762577
222.064089	-2.974900	3.833400	-11.403000	22.637311	0.000489	20.761609
223.062054	-3.000200	3.833100	-11.499000	22.670123	0.000492	20.759861
224.064344	-3.024800	3.831900	-11.589000	22.676479	0.000491	20.760537
225.062602	-2.993800	3.832500	-11.473000	22.681864	0.000490	20.744119
226.069015	-2.991100	3.831900	-11.461000	22.677658	0.000492	20.760770
227.068081	-2.990200	3.831100	-11.455000	22.670330	0.000493	20.745843
228.067047	-3.007900	3.831900	-11.525000	22.694882	0.000493	20.749099
229.065361	-2.985400	3.829700	-11.432000	22.707712	0.000494	20.736819
230.067686	-3.021300	3.829400	-11.569000	22.718348	0.000495	20.766914
231.063342	-2.989200	3.831700	-11.452000	22.723683	0.000495	20.755189
232.066210	-3.010700	3.830600	-11.532000	22.734723	0.000494	20.747755
233.065826	-3.003000	3.830700	-11.503000	22.715192	0.000495	20.745261
234.065575	-3.004900	3.829700	-11.507000	22.716317	0.000497	20.761087
235.065396	-2.989800	3.830200	-11.450000	22.755679	0.000498	20.767325
236.065436	-3.008300	3.829400	-11.518000	22.761014	0.000496	20.747538
237.071437	-3.016300	3.828500	-11.547000	22.793072	0.000498	20.734607
238.067937	-3.004000	3.829900	-11.504000	22.807701	0.000496	20.759694
239.068852	-3.006600	3.828300	-11.509000	22.772596	0.000496	20.743967
240.066830	-3.012200	3.828600	-11.531000	22.754663	0.000498	20.751134
241.067791	-3.020700	3.828300	-11.564000	22.760890	0.000498	20.734138
242.067867	-2.998100	3.828200	-11.476000	22.782023	0.000497	20.739186
243.071169	-3.025400	3.827600	-11.578000	22.805936	0.000498	20.737062
244.067995	-2.999700	3.827100	-11.479000	22.811197	0.000498	20.747074
245.068523	-2.976900	3.827700	-11.393000	22.808948	0.000498	20.755728
246.070689	-2.992500	3.828900	-11.456000	22.800508	0.000499	20.732572
247.068168	-3.000500	3.827000	-11.482000	22.795903	0.000499	20.747401
248.077503	-3.019100	3.827000	-11.552000	22.830253	0.000499	20.741034
249.071411	-2.990300	3.827000	-11.443000	22.862289	0.000499	20.744205
250.071346	-3.005700	3.826200	-11.500000	22.854766	0.000500	20.748522
251.074100	-3.012600	3.828200	-11.531000	22.867914	0.000500	20.754108
252.073713	-2.987500	3.826900	-11.432000	22.874920	0.000500	20.744531
253.078094	-2.995200	3.826800	-11.460000	22.885678	0.000502	20.734444
254.073058	-3.004600	3.825300	-11.492000	22.855767	0.000501	20.739567
255.072214	-3.002100	3.826300	-11.486000	22.881650	0.000503	20.737522
256.074702	-2.991500	3.825900	-11.444000	22.861392	0.000503	20.751841
257.075575	-2.971200	3.826000	-11.367000	22.873377	0.000502	20.740140
258.074413	-3.023500	3.823700	-11.559000	22.897840	0.000502	20.754217
259.084720	-2.999500	3.824200	-11.470000	22.928929	0.000502	20.743637
260.073083	-2.978900	3.826200	-11.398000	22.920632	0.000502	20.738169
261.073489	-3.001400	3.824300	-11.477000	22.924945	0.000502	20.743914
262.072831	-2.983500	3.824600	-11.409000	22.932217	0.000504	20.739345
263.076713	-3.004900	3.823600	-11.489000	22.963132	0.000503	20.752301
264.105782	-3.013700	3.823300	-11.521000	22.990832	0.000505	20.749233
265.074888	-2.988100	3.824300	-11.427000	23.011156	0.000504	20.726448
266.074568	-2.998800	3.823400	-11.464000	23.001864	0.000506	20.744640
267.075247	-2.994900	3.823700	-11.451000	22.996215	0.000506	20.744196
268.074993	-3.026300	3.822600	-11.567000	22.987568	0.000504	20.743119
269.078047	-3.008700	3.822700	-11.500000	22.954668	0.000506	20.725327
270.076836	-2.996700	3.822800	-11.455000	22.971434	0.000507	20.735962
271.075759	-2.977400	3.822400	-11.380000	22.952449	0.000507	20.718837
272.077076	-2.992600	3.821100	-11.434000	22.975368	0.000508	20.733739
273.084075	-2.996100	3.821000	-11.447000	23.024831	0.000508	20.727821
274.075988	-2.986200	3.820700	-11.409000	23.009963	0.000509	20.759394
275.080307	-3.003800	3.821000	-11.477000	23.035168	0.000507	20.738654
276.103620	-3.000400	3.821800	-11.465000	23.034946	0.000507	20.718042
277.075617	-3.003000	3.821200	-11.474000	23.062092	0.000510	20.747139
278.078826	-3.002400	3.820400	-11.469000	23.067967	0.000509	20.716989
279.076539	-3.008100	3.819200	-11.488000	23.092505	0.000509	20.730672
280.095484	-2.994900	3.820900	-11.443000	23.086072	0.000508	20.736554
281.077269	-3.003600	3.819600	-11.472000	23.065350	0.000509	20.742343
282.075283	-3.013000	3.819900	-11.508000	23.071600	0.000509	20.743390
283.075241	-2.999300	3.819400	-11.455000	23.061269	0.000509	20.729718
284.082677	-3.014500	3.818700	-11.511000	23.085279	0.000508	20.731966
285.077668	-2.970700	3.821600	-11.352000	23.075312	0.000508	20.747109
286.075672	-3.011700	3.819000	-11.500000	23.107194	0.000509	20.723104
287.076668	-2.990800	3.819100	-11.421000	23.112473	0.000511	20.739300
288.078335	-2.993000	3.819700	-11.432000	23.093269	0.000510	20.742343
289.077351	-2.994900	3.819200	-11.437000	23.119571	0.000511	20.744991
290.079925	-3.003000	3.817800	-11.464000	23.125077	0.000509	20.732963
291.083630	-2.981400	3.818100	-11.381000	23.121518	0.000512	20.736036
292.079957	-2.995000	3.817800	-11.433000	23.111447	0.000511	20.746334
293.080877	-2.972600	3.819500	-11.353000	23.115736	0.000513	20.736880
294.082946	-3.003600	3.817900	-11.467000	23.073079	0.000510	20.734440
295.083906	-3.002700	3.816900	-11.460000	23.085599	0.000513	20.731338
296.082562	-3.018200	3.816800	-11.519000	23.118679	0.000514	20.733665
297.084855	-3.006300	3.817000	-11.474000	23.155636	0.000512	20.737982
298.083072	-3.022000	3.816800	-11.533000	23.151230	0.000516	20.754430
299.083119	-2.997900	3.815100	-11.437000	23.143063	0.000514	20.737710
300.084265	-3.007900	3.817200	-11.481000	23.172375	0.000515	20.747169
301.082608	-2.999000	3.815900	-11.444000	23.181039	0.000514	20.740205
302.098228	-3.005900	3.815200	-11.467000	23.173616	0.000514	20.747940
303.090736	-2.993500	3.816200	-11.423000	23.194041	0.000512	20.737587
304.089826	-2.994700	3.815200	-11.425000	23.182218	0.000516	20.740437
305.090644	-3.012500	3.815500	-11.493000	23.199271	0.000518	20.745673
306.085189	-3.002700	3.814900	-11.454000	23.224106	0.000515	20.744008
307.090801	-3.007500	3.814200	-11.470000	23.225048	0.000515	20.745426
308.089282	-3.016900	3.815100	-11.508000	23.249060	0.000515	20.732979
309.090088	-3.008000	3.814500	-11.472000	23.249582	0.000517	20.755789
310.092802	-2.997700	3.813400	-11.430000	23.236058	0.000518	20.744132
311.091336	-3.019200	3.813200	-11.512000	23.261558	0.000517	20.749298
312.087883	-3.013100	3.812700	-11.487000	23.272667	0.000516	20.743361
313.090449	-3.022100	3.812300	-11.520000	23.278965	0.000518	20.743984
314.090516	-3.000700	3.812600	-11.439000	23.291498	0.000518	20.729043
315.098642	-2.992200	3.811200	-11.402000	23.289975	0.000517	20.767821
316.092588	-2.995400	3.811700	-11.416000	23.267812	0.000519	20.746557
317.089932	-2.983700	3.813100	-11.377000	23.272696	0.000519	20.723002
318.093366	-2.978800	3.811600	-11.353000	23.262318	0.000519	20.742947
319.096280	-3.005800	3.811600	-11.455000	23.273766	0.000518	20.754421
320.093064	-2.990000	3.810400	-11.392000	23.254250	0.000521	20.757148
321.090102	-2.987900	3.811300	-11.387000	23.248597	0.000519	20.756224
322.092378	-3.001000	3.810500	-11.434000	23.277600	0.000522	20.750203
323.091806	-2.984100	3.810400	-11.370000	23.299595	0.000520	20.755651
324.099548	-2.998900	3.809800	-11.425000	23.283036	0.000522	20.746642
325.094831	-2.993600	3.809700	-11.404000	23.289335	0.000521	20.761015
326.096961	-3.003300	3.810200	-11.442000	23.303424	0.000522	20.752376
327.093256	-3.006400	3.808800	-11.450000	23.328080	0.000521	20.753379
328.091996	-3.014100	3.809100	-11.480000	23.309427	0.000522	20.756495
329.095809	-3.001800	3.810400	-11.436000	23.327178	0.000521	20.737301
330.092893	-2.995000	3.808000	-11.403000	23.347423	0.000522	20.760911
331.093962	-3.008100	3.808000	-11.453000	23.358427	0.000523	20.745387
332.092748	-2.977600	3.809800	-11.343000	23.349690	0.000521	20.739949
333.094567	-3.014300	3.806100	-11.472000	23.337931	0.000525	20.767519
334.096102	-3.010400	3.807500	-11.461000	23.383426	0.000523	20.756219
335.096655	-2.998500	3.809000	-11.419000	23.401275	0.000524	20.767944
336.093565	-3.003300	3.808000	-11.436000	23.402221	0.000524	20.756090
337.093845	-3.001500	3.807100	-11.426000	23.412869	0.000524	20.763444
338.095537	-2.992100	3.807600	-11.392000	23.439612	0.000523	20.762748
339.093089	-3.008900	3.806900	-11.453000	23.456991	0.000522	20.769263
340.096614	-2.983000	3.807900	-11.358000	23.432333	0.000525	20.764936
341.093506	-2.999300	3.806400	-11.416000	23.441603	0.000524	20.760002
342.100507	-2.997500	3.806900	-11.410000	23.470251	0.000526	20.772596
343.098876	-2.994700	3.806800	-11.399000	23.481860	0.000526	20.759103
344.098540	-3.014100	3.805700	-11.470000	23.499638	0.000527	20.745154
345.128702	-2.988700	3.806500	-11.376000	23.488803	0.000525	20.794037
346.096158	-2.998800	3.805200	-11.411000	23.495450	0.000525	20.772725
347.095078	-2.998600	3.804300	-11.406000	23.501378	0.000527	20.771554
348.097558	-3.023900	3.803300	-11.500000	23.502048	0.000525	20.764165
349.097059	-3.011000	3.804600	-11.455000	23.512700	0.000525	20.764412
350.098039	-3.015600	3.805200	-11.474000	23.521914	0.000526	20.770804
351.099967	-2.992700	3.804900	-11.385000	23.545171	0.000529	20.747174
352.096628	-2.996900	3.803000	-11.397000	23.531971	0.000528	20.758599
353.096488	-2.999600	3.802900	-11.406000	23.516766	0.000528	20.772755
354.100274	-3.000000	3.803400	-11.410000	23.530483	0.000526	20.757581
355.099422	-2.968800	3.805100	-11.295000	23.540742	0.000529	20.770710
356.099226	-2.990700	3.802700	-11.371000	23.560110	0.000528	20.782065
357.109341	-2.991700	3.802400	-11.375000	23.562150	0.000529	20.768937
358.098249	-2.977200	3.802700	-11.320000	23.579749	0.000529	20.758604
359.099654	-2.997600	3.802400	-11.397000	23.585110	0.000527	20.767771
360.097516	-2.983300	3.802600	-11.343000	23.564293	0.000529	20.781043
361.108997	-3.000200	3.800800	-11.402000	23.566092	0.000529	20.782372
362.096982	-3.023300	3.800500	-11.489000	23.572290	0.000530	20.765351
363.098993	-2.980400	3.801900	-11.330000	23.557430	0.000527	20.774637
364.096537	-2.997700	3.801300	-11.394000	23.554568	0.000529	20.776035
365.097582	-3.007400	3.801300	-11.431000	23.581657	0.000532	20.795604
366.097477	-3.014100	3.799900	-11.452000	23.617978	0.000531	20.802143
367.096308	-2.994500	3.800300	-11.379000	23.632345	0.000528	20.772924
368.095674	-2.994000	3.800500	-11.377000	23.641405	0.000531	20.801447
369.097710	-3.023400	3.799500	-11.486000	23.620698	0.000531	20.788275
370.097034	-3.010800	3.799000	-11.437000	23.615342	0.000531	20.785276
371.096002	-3.009000	3.800100	-11.434000	23.640193	0.000530	20.796439
372.101673	-3.000400	3.798600	-11.397000	23.666181	0.000530	20.787406
373.122335	-2.998400	3.798400	-11.387000	23.657151	0.000533	20.781197
374.100217	-3.002700	3.798100	-11.404000	23.616402	0.000532	20.785865
375.102784	-3.018300	3.796700	-11.458000	23.634528	0.000532	20.789812
376.098441	-2.995000	3.798900	-11.377000	23.631247	0.000532	20.780358
377.100785	-2.986300	3.798400	-11.342000	23.598016	0.000533	20.783554
378.098462	-2.997700	3.797300	-11.382000	23.596922	0.000532	20.771552
379.099606	-3.027600	3.795600	-11.490000	23.640889	0.000533	20.773429
380.101016	-3.004500	3.796900	-11.406000	23.668474	0.000533	20.782591
381.098617	-3.008000	3.795200	-11.415000	23.655108	0.000531	20.800960
382.099620	-3.005900	3.796000	-11.409000	23.706216	0.000533	20.791033
383.101467	-3.007900	3.794500	-11.412000	23.687022	0.000533	20.795023
384.097094	-2.988200	3.795800	-11.342000	23.691979	0.000534	20.810424
385.099448	-2.988700	3.796200	-11.345000	23.693304	0.000535	20.788519
386.103103	-2.999000	3.795000	-11.380000	23.702345	0.000532	20.785255
387.100238	-3.007000	3.795500	-11.412000	23.718676	0.000536	20.784558
388.100009	-2.998100	3.794600	-11.375000	23.694586	0.000534	20.789804
389.100736	-3.006100	3.795300	-11.407000	23.680772	0.000535	20.794921
390.101238	-3.005700	3.794200	-11.404000	23.726603	0.000535	20.791558
391.100646	-3.003200	3.793500	-11.392000	23.753461	0.000535	20.799046
392.099904	-2.994300	3.793100	-11.357000	23.775393	0.000535	20.814870
393.100305	-3.017400	3.793100	-11.445000	23.776319	0.000536	20.782135
394.100714	-3.022100	3.794400	-11.466000	23.782718	0.000536	20.804672
395.100122	-3.022700	3.792200	-11.463000	23.783792	0.000538	20.768290
396.100138	-3.010000	3.792200	-11.414000	23.796142	0.000537	20.779725
397.102450	-3.019900	3.791600	-11.450000	23.826014	0.000536	20.790710
398.103160	-2.981700	3.792000	-11.304000	23.843688	0.000538	20.797052
399.109546	-2.992000	3.791200	-11.341000	23.792793	0.000537	20.803868
400.102819	-2.991700	3.792700	-11.345000	23.818709	0.000538	20.785757
401.103072	-2.988600	3.792000	-11.332000	23.829616	0.000537	20.798589
402.106069	-3.004000	3.791800	-11.389000	23.839428	0.000538	20.780453
403.102887	-2.972900	3.790800	-11.269000	23.862328	0.000540	20.786820
404.108557	-3.010200	3.791100	-11.410000	23.853817	0.000538	20.787294
405.106052	-2.998500	3.790500	-11.365000	23.810317	0.000538	20.797256
406.102665	-3.007100	3.789800	-11.396000	23.832031	0.000537	20.807175
407.107892	-2.993700	3.790800	-11.348000	23.861369	0.000538	20.782064
408.108874	-3.003300	3.790400	-11.382000	23.828002	0.000539	20.797919
409.109210	-2.992100	3.790200	-11.339000	23.825219	0.000538	20.806983
410.108152	-3.000200	3.789500	-11.367000	23.857399	0.000541	20.806059
411.102522	-3.016700	3.788200	-11.426000	23.847677	0.000541	20.801526
412.102650	-2.998900	3.787700	-11.358000	23.870626	0.000540	20.776173
413.103003	-3.009200	3.789100	-11.401000	23.865602	0.000540	20.814284
414.102046	-3.010800	3.788000	-11.404000	23.876330	0.000541	20.806549
415.110545	-3.023300	3.787900	-11.450000	23.884650	0.000541	20.785494
416.103609	-3.004000	3.789000	-11.381000	23.879345	0.000541	20.806727
417.106914	-3.008500	3.788600	-11.397000	23.853747	0.000542	20.794336
418.105785	-3.007700	3.788600	-11.394000	23.859717	0.000540	20.795580
419.105379	-2.992100	3.788000	-11.333000	23.856658	0.000543	20.795833
420.106351	-3.005400	3.786900	-11.380000	23.846039	0.000539	20.791823
421.105784	-2.999800	3.788500	-11.364000	23.891286	0.000541	20.815856
422.103468	-2.996100	3.787500	-11.347000	23.930262	0.000540	20.789032
423.103204	-3.005500	3.786000	-11.378000	23.950747	0.000543	20.801988
424.105913	-3.015300	3.786400	-11.416000	23.938931	0.000541	20.807209
425.103469	-3.017800	3.785600	-11.424000	23.962425	0.000543	20.816070
426.108393	-2.989500	3.785500	-11.317000	23.934908	0.000542	20.804123
427.111234	-2.986900	3.785700	-11.306000	23.938735	0.000543	20.809856
428.106977	-2.982900	3.784800	-11.289000	23.948916	0.000543	20.798729
429.104896	-3.013500	3.783900	-11.402000	23.931904	0.000542	20.803007
430.105732	-2.992700	3.783800	-11.322000	23.931131	0.000543	20.808395
431.106841	-3.002600	3.784200	-11.361000	23.930712	0.000542	20.815562
432.110356	-2.993500	3.784100	-11.327000	23.915606	0.000544	20.803259
433.104270	-2.999200	3.783800	-11.348000	23.950369	0.000545	20.819627
434.104804	-3.024000	3.782300	-11.436000	23.999395	0.000544	20.820901
435.108773	-2.995100	3.782800	-11.329000	24.005247	0.000544	20.799743
436.108327	-2.988300	3.782600	-11.303000	23.990811	0.000546	20.825569
437.108270	-2.993300	3.783400	-11.325000	24.010344	0.000545	20.814337
438.106845	-2.992500	3.781500	-11.315000	24.030827	0.000545	20.815439
439.108667	-3.005000	3.781700	-11.362000	24.030502	0.000547	20.806104
440.116200	-3.015500	3.781200	-11.401000	24.043041	0.000546	20.825317
441.112682	-3.001700	3.779900	-11.344000	24.025473	0.000544	20.836622
442.115550	-3.010700	3.780400	-11.381000	24.042740	0.000546	20.830231
443.116516	-2.976900	3.781400	-11.256000	24.080016	0.000544	20.811191
444.110000	-2.992500	3.781000	-11.314000	24.050728	0.000545	20.828285
445.112504	-3.000800	3.779800	-11.341000	24.078593	0.000546	20.834419
446.112822	-2.990900	3.780100	-11.305000	24.056771	0.000545	20.844301
447.114488	-2.977000	3.779800	-11.252000	24.039824	0.000545	20.833944
448.113426	-2.985400	3.778800	-11.280000	24.035268	0.000547	20.829376
449.111311	-2.988700	3.778500	-11.292000	24.033224	0.000545	20.829222
450.111131	-3.005800	3.778400	-11.356000	24.034938	0.000546	20.836156
451.116383	-2.994600	3.778500	-11.314000	24.073258	0.000546	20.848034
452.112966	-2.997300	3.778100	-11.324000	24.079828	0.000546	20.820959
453.117465	-3.010200	3.777700	-11.371000	24.056637	0.000545	20.825202
454.115872	-3.010100	3.777700	-11.371000	24.036947	0.000545	20.852395
455.113344	-3.020200	3.777500	-11.408000	24.049436	0.000546	20.821773
456.116186	-2.993300	3.777600	-11.306000	24.048042	0.000544	20.840290
457.116970	-3.025000	3.776900	-11.425000	24.026097	0.000545	20.823971
458.116940	-3.022700	3.776400	-11.414000	24.066407	0.000546	20.835474
459.115452	-3.002600	3.776700	-11.339000	24.038340	0.000546	20.850000
460.114761	-3.028500	3.775700	-11.434000	24.041024	0.000546	20.838467
461.115023	-3.015700	3.775600	-11.386000	24.037242	0.000546	20.848424
462.119431	-2.999900	3.776500	-11.328000	24.037267	0.000546	20.851767
463.122967	-2.989400	3.776500	-11.289000	24.039759	0.000545	20.834827
464.116520	-2.990000	3.775900	-11.289000	24.069717	0.000546	20.856810
465.118581	-3.009200	3.774800	-11.358000	24.071657	0.000545	20.849748
466.116415	-2.998300	3.774800	-11.316000	24.099551	0.000546	20.848799
467.116850	-2.987400	3.775200	-11.276000	24.118136	0.000547	20.842309
468.118514	-2.995900	3.775700	-11.311000	24.136776	0.000548	20.853891
469.121060	-3.004800	3.774200	-11.340000	24.145034	0.000546	20.844157
470.116279	-3.005200	3.773800	-11.339000	24.169070	0.000548	20.851195
471.119139	-2.995400	3.774200	-11.305000	24.210498	0.000547	20.857660
472.115210	-3.009400	3.773100	-11.354000	24.193652	0.000546	20.873953
473.115058	-3.005600	3.773600	-11.341000	24.168272	0.000546	20.851817
474.115811	-2.995400	3.774100	-11.304000	24.210596	0.000549	20.853491
475.118566	-2.999300	3.772600	-11.313000	24.232740	0.000545	20.857684
476.118957	-2.974800	3.773400	-11.224000	24.246375	0.000549	20.852869
477.115004	-2.991500	3.772900	-11.285000	24.207760	0.000547	20.841638
478.125237	-3.023100	3.770600	-11.398000	24.207263	0.000549	20.852992
479.119576	-2.994200	3.771200	-11.291000	24.172827	0.000548	20.838368
480.118698	-2.997400	3.772900	-11.308000	24.148816	0.000550	20.865018
481.118225	-3.033100	3.770800	-11.435000	24.175664	0.000550	20.863023
482.119161	-2.982000	3.772200	-11.248000	24.202664	0.000548	20.868293
483.117724	-2.982400	3.771300	-11.246000	24.205476	0.000546	20.862579
484.120650	-2.994200	3.771000	-11.290000	24.227620	0.000549	20.871988
485.122014	-2.998800	3.770400	-11.306000	24.230180	0.000548	20.875030
486.118792	-2.974700	3.771600	-11.217000	24.209336	0.000550	20.873089
487.116779	-2.983500	3.769700	-11.245000	24.194584	0.000548	20.883895
488.116547	-2.991100	3.769500	-11.274000	24.184011	0.000550	20.860965
489.120798	-3.009600	3.768800	-11.342000	24.236355	0.000548	20.889757
490.116477	-3.005500	3.768100	-11.323000	24.253654	0.000549	20.882928
491.119299	-3.025200	3.767400	-11.396000	24.285797	0.000548	20.873919
492.119979	-2.997500	3.767900	-11.293000	24.284354	0.000547	20.876740
493.118599	-3.003400	3.767600	-11.315000	24.257840	0.000549	20.892816
494.118015	-2.995700	3.767600	-11.286000	24.258282	0.000549	20.888044
495.120288	-2.985400	3.768600	-11.250000	24.276723	0.000547	20.878093
496.123250	-2.995100	3.768200	-11.285000	24.287024	0.000548	20.876572
497.119695	-2.978500	3.766400	-11.217000	24.254905	0.000548	20.864744
498.119487	-3.000900	3.767500	-11.305000	24.276950	0.000548	20.869786
499.120762	-3.008600	3.766300	-11.331000	24.283168	0.000546	20.874128
500.120608	-3.021800	3.765200	-11.377000	24.275537	0.000547	20.894446
501.121458	-3.024200	3.765300	-11.385000	24.275704	0.000551	20.864270
502.122914	-3.007700	3.764500	-11.322000	24.285310	0.000547	20.878173
503.125444	-2.994300	3.766400	-11.277000	24.304100	0.000549	20.879951
504.125391	-2.984600	3.765900	-11.239000	24.342529	0.000548	20.868241
505.126538	-2.998400	3.764800	-11.287000	24.347856	0.000550	20.873585
506.127222	-3.010600	3.764600	-11.333000	24.357310	0.000547	20.874059
507.130809	-3.007200	3.765300	-11.322000	24.358034	0.000547	20.875259
508.128294	-2.994900	3.764300	-11.273000	24.374650	0.000548	20.866799
509.127872	-2.984700	3.764700	-11.235000	24.366596	0.000550	20.869625
510.125542	-2.992100	3.763600	-11.261000	24.371120	0.000550	20.866577
511.124017	-3.009700	3.763300	-11.326000	24.323928	0.000551	20.862858
512.124312	-2.989500	3.764500	-11.253000	24.327606	0.000549	20.869392
513.123603	-3.014400	3.762500	-11.341000	24.334972	0.000548	20.881996
514.124469	-3.014500	3.762200	-11.339000	24.370628	0.000549	20.858023
515.123868	-3.010600	3.761900	-11.325000	24.341993	0.000549	20.882875
516.128106	-3.000200	3.761400	-11.284000	24.316843	0.000550	20.862863
517.128825	-2.984100	3.761100	-11.223000	24.327641	0.000550	20.857574
518.126972	-3.004300	3.762000	-11.301000	24.319679	0.000549	20.856700
519.122843	-3.007700	3.761600	-11.313000	24.374877	0.000550	20.864182
520.125928	-2.998400	3.762400	-11.280000	24.378879	0.000550	20.862507
521.130141	-2.999900	3.759800	-11.278000	24.383857	0.000550	20.858492
522.123965	-2.985200	3.760600	-11.225000	24.425223	0.000550	20.880549
523.129026	-2.996100	3.760000	-11.263000	24.374153	0.000550	20.860137
524.124586	-2.992300	3.759700	-11.249000	24.390198	0.000551	20.865327
525.125892	-2.995000	3.760600	-11.263000	24.379997	0.000550	20.865051
526.125320	-2.994200	3.759800	-11.256000	24.411456	0.000550	20.862946
527.124927	-3.013200	3.758900	-11.325000	24.397553	0.000551	20.865593
528.127961	-3.006400	3.758200	-11.297000	24.431957	0.000551	20.863124
529.129741	-2.976300	3.758400	-11.186000	24.402525	0.000550	20.841185
530.126294	-3.009000	3.758100	-11.307000	24.368298	0.000551	20.851419
531.127947	-3.007900	3.757500	-11.301000	24.406454	0.000551	20.858402
532.135100	-3.014000	3.758300	-11.326000	24.380035	0.000550	20.873149
533.125930	-3.014600	3.757000	-11.324000	24.369711	0.000549	20.858051
534.131113	-3.020200	3.755800	-11.343000	24.397512	0.000549	20.849432
535.126144	-3.012400	3.757100	-11.317000	24.440852	0.000549	20.840281
536.127542	-3.010400	3.757700	-11.311000	24.456055	0.000550	20.887299
537.127046	-3.001800	3.755500	-11.272000	24.469406	0.000552	20.851858
538.126609	-3.000900	3.756500	-11.272000	24.473635	0.000551	20.834764
539.128006	-3.001200	3.757100	-11.275000	24.458634	0.000550	20.855749
540.126844	-3.002500	3.756100	-11.277000	24.443732	0.000548	20.863557
541.125999	-3.005000	3.754600	-11.282000	24.459771	0.000552	20.861157
542.127341	-2.969000	3.754700	-11.146000	24.486015	0.000552	20.847659
543.127524	-2.997500	3.755400	-11.256000	24.449846	0.000550	20.845036
544.126810	-2.983600	3.755800	-11.204000	24.484253	0.000552	20.834038
545.129232	-3.003600	3.755100	-11.278000	24.483377	0.000551	20.851175
546.135845	-3.005400	3.753400	-11.280000	24.445764	0.000552	20.841890
547.127799	-3.002100	3.754600	-11.271000	24.443751	0.000554	20.824224
548.128716	-2.995200	3.752500	-11.239000	24.436711	0.000550	20.845135
549.128398	-2.997800	3.754700	-11.255000	24.429340	0.000551	20.843430
550.150399	-2.990900	3.752400	-11.222000	24.425294	0.000551	20.832733
551.125223	-3.010500	3.752800	-11.297000	24.416535	0.000552	20.835800
552.127609	-3.012500	3.753200	-11.305000	24.446035	0.000549	20.839317
553.129256	-3.016700	3.751300	-11.315000	24.458052	0.000550	20.835252
554.132711	-3.021500	3.751600	-11.334000	24.463921	0.000552	20.849674
555.129616	-3.008500	3.751600	-11.286000	24.453878	0.000552	20.827745
556.130790	-2.984700	3.752700	-11.200000	24.505121	0.000552	20.827948
557.127665	-2.995800	3.751700	-11.239000	24.522602	0.000550	20.833632
558.127423	-3.024700	3.750800	-11.344000	24.553926	0.000551	20.828551
559.127918	-3.006500	3.751400	-11.277000	24.558001	0.000551	20.838330
560.128858	-2.977600	3.752300	-11.172000	24.569018	0.000550	20.843219
561.133347	-2.989500	3.750100	-11.210000	24.525241	0.000552	20.835806
562.128283	-2.993600	3.751000	-11.228000	24.553999	0.000550	20.808237
563.132096	-3.001500	3.749800	-11.254000	24.559897	0.000552	20.830749
564.132222	-3.002700	3.750300	-11.261000	24.572503	0.000553	20.823483
565.133489	-3.005900	3.749200	-11.269000	24.601089	0.000552	20.839363
566.132412	-3.015200	3.749700	-11.305000	24.594798	0.000553	20.826413
567.137544	-3.004400	3.749500	-11.264000	24.613468	0.000550	20.819542
568.133359	-3.007600	3.748300	-11.273000	24.625568	0.000554	20.835002
569.134209	-2.982900	3.749000	-11.182000	24.621291	0.000551	20.802736
570.136267	-2.987700	3.750000	-11.203000	24.582394	0.000550	20.804484
571.134344	-3.015200	3.747500	-11.298000	24.565707	0.000552	20.818087
572.134135	-2.992100	3.748200	-11.214000	24.577718	0.000552	20.818284
573.132811	-3.008500	3.746500	-11.270000	24.608445	0.000552	20.817346
574.132833	-3.008200	3.747300	-11.271000	24.608169	0.000550	20.819440
575.133634	-3.008400	3.747800	-11.274000	24.642940	0.000551	20.814976
576.132594	-3.009300	3.747200	-11.275000	24.655827	0.000552	20.818423
577.145713	-2.996200	3.746800	-11.225000	24.662013	0.000550	20.796182
578.136262	-2.986000	3.745900	-11.185000	24.644259	0.000549	20.830050
579.134008	-3.011800	3.745200	-11.279000	24.672985	0.000551	20.817623
580.135943	-2.992900	3.745300	-11.208000	24.678887	0.000551	20.802683
581.133168	-3.006100	3.745200	-11.258000	24.713129	0.000551	20.822819
582.134908	-2.987000	3.746500	-11.190000	24.671824	0.000549	20.811717
583.136495	-3.007500	3.743900	-11.259000	24.662546	0.000552	20.798613
584.132426	-2.996300	3.744000	-11.217000	24.648026	0.000550	20.817708
585.132018	-2.991600	3.744300	-11.201000	24.622749	0.000551	20.807518
586.134903	-2.985600	3.744900	-11.180000	24.615991	0.000551	20.816384
587.132808	-3.015200	3.744300	-11.288000	24.579334	0.000550	20.814690
588.133790	-3.008200	3.743700	-11.260000	24.603036	0.000549	20.829937
589.137496	-3.018700	3.742500	-11.296000	24.627909	0.000551	20.813169
590.133130	-3.017400	3.743100	-11.293000	24.610548	0.000549	20.804758
591.134912	-3.003200	3.743900	-11.243000	24.606945	0.000550	20.805410
592.135794	-2.971900	3.744600	-11.128000	24.601894	0.000550	20.810774
593.135780	-2.985500	3.743100	-11.173000	24.611099	0.000548	20.817639
594.137109	-3.006800	3.741100	-11.247000	24.617292	0.000549	20.791610
595.135725	-3.001400	3.743200	-11.234000	24.640948	0.000548	20.800175
596.134744	-2.996400	3.741600	-11.210000	24.644275	0.000548	20.795453
597.140237	-2.994500	3.741800	-11.205000	24.684096	0.000550	20.806961
598.134735	-3.005400	3.741700	-11.244000	24.676265	0.000549	20.791991
599.136536	-2.986600	3.741400	-11.173000	24.670098	0.000547	20.804769
600.136429	-2.999500	3.739300	-11.215000	24.680769	0.000548	20.813580
601.135360	-2.972800	3.741400	-11.122000	24.690618	0.000549	20.796437
602.135421	-3.003400	3.740600	-11.234000	24.695840	0.000548	20.785082
603.137598	-3.003600	3.739300	-11.231000	24.693704	0.000548	20.800008
604.142416	-2.993500	3.740600	-11.196000	24.696343	0.000547	20.797440
605.135697	-3.003400	3.741100	-11.236000	24.676994	0.000550	20.812637
606.137177	-2.998900	3.739400	-11.213000	24.682241	0.000546	20.812213
607.136002	-3.008100	3.739700	-11.248000	24.636761	0.000548	20.789810
608.137143	-2.996100	3.740300	-11.205000	24.624672	0.000546	20.799016
609.136399	-3.003100	3.738000	-11.225000	24.591219	0.000547	20.789631
610.139183	-3.001900	3.739200	-11.223000	24.619351	0.000548	20.803634
611.136940	-2.986300	3.738200	-11.162000	24.656479	0.000548	20.810069
612.135287	-2.978400	3.737700	-11.132000	24.656424	0.000548	20.799109
613.139494	-2.989100	3.737300	-11.169000	24.651429	0.000550	20.788880
614.137854	-2.993300	3.736500	-11.184000	24.687641	0.000549	20.792975
615.142334	-2.994800	3.736700	-11.190000	24.662892	0.000548	20.798961
616.138566	-2.998100	3.737200	-11.203000	24.666924	0.000548	20.809170
617.138144	-2.996100	3.736600	-11.194000	24.665280	0.000547	20.792822
618.139792	-2.972300	3.736400	-11.105000	24.670802	0.000548	20.811166
619.138248	-3.013500	3.735500	-11.256000	24.705990	0.000550	20.794318
620.141657	-3.002800	3.735100	-11.215000	24.692961	0.000549	20.794995
621.141910	-3.001200	3.735300	-11.209000	24.705383	0.000550	20.792762
622.140610	-3.007300	3.734700	-11.230000	24.734910	0.000548	20.778770
623.139979	-2.999900	3.736500	-11.208000	24.754621	0.000549	20.785274
624.143481	-3.016100	3.736000	-11.267000	24.703745	0.000547	20.790643
625.142102	-2.996000	3.735300	-11.190000	24.687507	0.000548	20.789996
626.146053	-2.997000	3.733600	-11.188000	24.698744	0.000547	20.792263
627.139773	-2.989200	3.733900	-11.160000	24.730101	0.000547	20.774417
628.141640	-3.011000	3.733400	-11.240000	24.715705	0.000549	20.785575
629.148347	-3.005000	3.732600	-11.216000	24.717466	0.000545	20.792559
630.141143	-3.017500	3.732300	-11.261000	24.701830	0.000547	20.797731
631.145365	-2.974400	3.733500	-11.104000	24.751737	0.000546	20.782854
632.140324	-3.002700	3.732200	-11.205000	24.740968	0.000547	20.785323
633.140924	-3.003700	3.732700	-11.212000	24.782768	0.000547	20.780804
634.140465	-3.007200	3.731500	-11.220000	24.813006	0.000547	20.767053
635.142163	-2.998300	3.731200	-11.186000	24.800225	0.000546	20.778882
636.142910	-3.004000	3.731900	-11.210000	24.746259	0.000548	20.793003
637.152392	-2.995400	3.731100	-11.174000	24.683741	0.000546	20.782898
638.144299	-3.018900	3.731800	-11.266000	24.652928	0.000547	20.769522
639.142514	-3.020200	3.731000	-11.267000	24.703660	0.000546	20.779178
640.145129	-3.001800	3.731500	-11.200000	24.717018	0.000546	20.777885
641.142866	-2.989500	3.731200	-11.153000	24.696297	0.000547	20.773686
642.144315	-3.009400	3.729900	-11.224000	24.693983	0.000547	20.767097
643.141733	-3.003000	3.730700	-11.202000	24.679808	0.000545	20.785589
644.141781	-2.993600	3.729500	-11.164000	24.724469	0.000545	20.788207
645.142320	-2.978600	3.730300	-11.109000	24.744167	0.000545	20.777627
646.141705	-2.989400	3.728200	-11.143000	24.755555	0.000545	20.780995
647.144289	-3.024400	3.727600	-11.273000	24.728599	0.000547	20.765323
648.144365	-3.001000	3.728700	-11.189000	24.728402	0.000546	20.779825
649.141882	-2.991100	3.729300	-11.154000	24.764306	0.000546	20.768914
650.146058	-3.020600	3.728200	-11.260000	24.727821	0.000546	20.761223
651.147978	-2.998800	3.728000	-11.178000	24.738191	0.000544	20.759776
652.143644	-3.003500	3.727300	-11.193000	24.751716	0.000544	20.794212
653.146873	-2.989900	3.727500	-11.143000	24.799141	0.000545	20.763095
654.144744	-2.985900	3.727200	-11.128000	24.798048	0.000543	20.765318
655.145716	-2.989900	3.728200	-11.146000	24.818984	0.000543	20.780165
656.146097	-2.986700	3.726300	-11.129000	24.824009	0.000543	20.748697
657.145916	-2.999100	3.726300	-11.175000	24.838999	0.000544	20.789347
658.148389	-3.009500	3.725200	-11.211000	24.855786	0.000543	20.769684
659.154456	-2.996200	3.725800	-11.161000	24.891612	0.000542	20.785726
660.147593	-3.016300	3.724300	-11.232000	24.854890	0.000542	20.770682
661.152399	-3.000500	3.727300	-11.183000	24.849546	0.000541	20.777172
662.150553	-2.990000	3.726200	-11.140000	24.830225	0.000541	20.771057
663.153250	-3.007000	3.725300	-11.200000	24.842238	0.000542	20.763673
664.156070	-3.005700	3.723900	-11.192000	24.805662	0.000541	20.757312
665.150689	-3.021000	3.724100	-11.250000	24.797925	0.000540	20.753340
666.150897	-3.012000	3.723600	-11.215000	24.821204	0.000542	20.778126
667.152421	-2.993900	3.723100	-11.146000	24.872376	0.000541	20.751246
668.152432	-3.022000	3.723200	-11.250000	24.809767	0.000541	20.754319
669.156749	-3.005100	3.724100	-11.191000	24.812675	0.000542	20.756290
670.152012	-2.980700	3.723400	-11.097000	24.802882	0.000540	20.744090
671.151460	-2.992200	3.723200	-11.140000	24.827524	0.000540	20.751276
672.153033	-3.005800	3.723500	-11.191000	24.810766	0.000540	20.763383
673.149105	-2.995700	3.723600	-11.153000	24.825732	0.000542	20.763229
674.153850	-2.998600	3.721500	-11.158000	24.819546	0.000541	20.764608
675.152094	-2.990700	3.722100	-11.131000	24.826732	0.000540	20.754749
676.151541	-2.999700	3.723200	-11.168000	24.803507	0.000540	20.761313
677.152431	-2.980300	3.721900	-11.090000	24.817736	0.000541	20.777964
678.157816	-3.017500	3.720600	-11.225000	24.842849	0.000540	20.749114
679.152711	-2.996700	3.721800	-11.152000	24.876092	0.000541	20.755451
680.154001	-2.985900	3.722000	-11.112000	24.882436	0.000541	20.761818
681.152916	-3.004900	3.721100	-11.181000	24.863337	0.000540	20.781530
682.153069	-3.022600	3.720800	-11.246000	24.824916	0.000541	20.750556
683.153614	-3.013900	3.719700	-11.210000	24.792567	0.000539	20.764084
684.153544	-2.995400	3.720400	-11.143000	24.783615	0.000541	20.757945
685.156460	-3.027200	3.720200	-11.261000	24.782768	0.000537	20.742396
686.156644	-2.995900	3.720400	-11.145000	24.815024	0.000539	20.755802
687.156415	-3.040400	3.718800	-11.306000	24.867318	0.000540	20.774146
688.154485	-3.017700	3.719100	-11.222000	24.904861	0.000540	20.748289
689.160399	-3.003100	3.718900	-11.167000	24.924978	0.000538	20.751885
690.155793	-3.021500	3.718100	-11.233000	24.927340	0.000537	20.756152
691.162324	-2.974000	3.719200	-11.059000	24.942954	0.000539	20.747168
692.157330	-2.996500	3.717600	-11.139000	24.915904	0.000537	20.750838
693.157296	-3.001800	3.716300	-11.154000	24.917100	0.000538	20.746822
694.161964	-2.997300	3.717300	-11.141000	24.933905	0.000537	20.754681
695.158963	-2.987000	3.716700	-11.101000	24.928119	0.000537	20.756933
696.159266	-2.985000	3.717700	-11.096000	24.941021	0.000537	20.747598
697.162873	-3.004000	3.717300	-11.165000	24.947089	0.000539	20.745153
698.158884	-2.997500	3.717200	-11.141000	24.963505	0.000538	20.753096
699.159832	-2.987600	3.717000	-11.103000	24.977303	0.000538	20.754143
700.159165	-3.003400	3.716700	-11.162000	24.922056	0.000536	20.735675
701.164220	-2.990600	3.716900	-11.114000	24.869568	0.000538	20.735626
702.161767	-2.998800	3.716900	-11.145000	24.871758	0.000536	20.742566
703.159719	-2.985600	3.715700	-11.093000	24.868653	0.000536	20.742294
704.160668	-3.027700	3.714900	-11.246000	24.908067	0.000536	20.749136
705.164747	-3.011000	3.715000	-11.184000	24.881655	0.000538	20.732109
706.162513	-3.011100	3.714100	-11.182000	24.854824	0.000538	20.751649
707.162175	-3.014900	3.714700	-11.199000	24.861616	0.000537	20.752301
708.161535	-3.023000	3.714100	-11.227000	24.890213	0.000536	20.740699
709.163157	-2.999800	3.713900	-11.140000	24.897422	0.000537	20.725174
710.162393	-2.990400	3.715400	-11.109000	24.913982	0.000536	20.768349
711.160669	-2.999400	3.713500	-11.137000	24.936436	0.000536	20.738254
712.166898	-3.037100	3.713600	-11.277000	24.991430	0.000535	20.735132
713.160469	-3.010700	3.712700	-11.177000	24.968455	0.000535	20.747634
714.161125	-3.026600	3.712500	-11.236000	24.999633	0.000534	20.737202
715.160204	-3.002700	3.713200	-11.149000	25.011571	0.000536	20.729269
716.161174	-3.003700	3.712600	-11.150000	24.986529	0.000535	20.742067
717.161444	-3.010800	3.711000	-11.172000	24.940333	0.000533	20.733156
718.163437	-2.993700	3.711700	-11.111000	24.920000	0.000533	20.747362
719.161215	-3.008100	3.711100	-11.163000	24.903263	0.000536	20.732460
720.161864	-2.984800	3.710200	-11.073000	24.928159	0.000537	20.723782
721.164929	-2.993600	3.711400	-11.109000	24.896955	0.000534	20.735612
722.161850	-3.001000	3.710000	-11.132000	24.959412	0.000533	20.748039
723.167056	-2.988000	3.710200	-11.085000	24.907176	0.000533	20.730697
724.163767	-3.015100	3.710200	-11.185000	24.913539	0.000535	20.724755
725.163201	-3.018100	3.710600	-11.198000	24.938681	0.000533	20.722962
726.167140	-2.986700	3.710100	-11.080000	24.994246	0.000533	20.732742
727.164485	-3.011800	3.709200	-11.171000	24.967128	0.000533	20.747724
728.166637	-2.995500	3.709900	-11.112000	24.932933	0.000534	20.735686
729.164256	-3.005800	3.709900	-11.150000	24.934852	0.000532	20.739035
730.163694	-2.987100	3.710100	-11.081000	24.944975	0.000534	20.736867
731.164125	-2.979300	3.708800	-11.048000	24.962448	0.000532	20.730697
732.166604	-2.995500	3.709500	-11.111000	24.983061	0.000533	20.737637
733.165338	-3.013900	3.707600	-11.174000	25.033600	0.000532	20.735261
734.164527	-2.994500	3.707800	-11.102000	25.034894	0.000532	20.718541
735.164935	-3.000900	3.707400	-11.125000	25.018066	0.000532	20.732471
736.166489	-2.996700	3.707000	-11.108000	24.998792	0.000532	20.750583
737.166556	-2.989600	3.707100	-11.082000	24.970695	0.000532	20.749881
738.164431	-3.006600	3.707400	-11.146000	24.989615	0.000530	20.747061
739.167341	-3.001400	3.707300	-11.125000	24.998216	0.000533	20.740047
740.165559	-3.014600	3.707300	-11.175000	24.999756	0.000531	20.730687
741.165663	-3.012100	3.704900	-11.159000	24.997885	0.000530	20.722170
742.165657	-3.002000	3.704900	-11.121000	25.019566	0.000530	20.746778
743.164663	-3.017800	3.705700	-11.181000	25.009665	0.000530	20.724985
744.164444	-3.002700	3.706500	-11.128000	25.036644	0.000528	20.717928
745.169683	-2.997900	3.706200	-11.110000	25.013935	0.000530	20.740178
746.165591	-3.022400	3.704100	-11.194000	24.983132	0.000530	20.734864
747.164767	-3.000000	3.705400	-11.114000	25.001894	0.000532	20.759861
748.166855	-3.012200	3.704300	-11.157000	25.038518	0.000529	20.717437
749.172512	-2.997100	3.704300	-11.101000	25.056634	0.000530	20.739417
750.173137	-2.999400	3.704300	-11.110000	25.089300	0.000529	20.745181
751.166954	-2.998000	3.703200	-11.101000	25.084896	0.000531	20.727009
752.169302	-3.011700	3.703900	-11.154000	25.079168	0.000531	20.726948
753.169344	-3.023400	3.702500	-11.193000	25.066261	0.000531	20.748133
754.169762	-3.023400	3.703200	-11.195000	25.050870	0.000530	20.729838
755.171234	-2.985100	3.703500	-11.054000	25.050338	0.000528	20.727881
756.168378	-2.997100	3.702600	-11.097000	25.047725	0.000528	20.728103
757.168018	-3.005700	3.703600	-11.132000	25.029574	0.000529	20.737384
758.167906	-3.008700	3.702200	-11.138000	25.012145	0.000526	20.752607
759.167988	-3.010700	3.701800	-11.144000	24.962834	0.000527	20.740569
760.169421	-3.012400	3.701900	-11.150000	24.926356	0.000528	20.743310
761.172410	-3.022500	3.701500	-11.187000	24.933461	0.000528	20.735742
762.171266	-2.995500	3.701400	-11.086000	24.984750	0.000527	20.720840
763.170973	-3.020700	3.700700	-11.178000	25.009855	0.000525	20.723754
764.171628	-3.020900	3.700600	-11.178000	25.065938	0.000528	20.751601
765.171404	-3.007500	3.700700	-11.129000	25.031431	0.000526	20.761534
766.174169	-2.988800	3.699600	-11.056000	25.030978	0.000525	20.743061
767.171474	-3.003600	3.700200	-11.113000	25.003925	0.000526	20.752890
768.174725	-2.978300	3.700900	-11.021000	25.013820	0.000524	20.761400
769.169415	-2.997700	3.699900	-11.090000	25.022096	0.000526	20.738887
770.170403	-3.013800	3.699200	-11.148000	25.021141	0.000525	20.751679
771.178761	-2.979100	3.699000	-11.019000	25.043214	0.000525	20.765775
772.174744	-3.005700	3.698600	-11.116000	25.033919	0.000527	20.756919
773.171154	-2.982400	3.698900	-11.031000	25.045447	0.000522	20.752370
774.171780	-2.971800	3.700100	-10.994000	25.022473	0.000523	20.767716
775.188399	-3.005800	3.698700	-11.117000	24.985199	0.000525	20.759225
776.171998	-2.969600	3.697100	-10.978000	24.988181	0.000524	20.747519
777.174986	-3.006800	3.697800	-11.117000	24.993924	0.000526	20.762766
778.172380	-3.019600	3.696400	-11.160000	25.025248	0.000525	20.758647
779.171333	-2.990200	3.697200	-11.054000	25.032377	0.000525	20.760587
780.172732	-2.988500	3.696800	-11.047000	25.072626	0.000522	20.745513
781.172196	-3.008600	3.696000	-11.119000	25.079632	0.000524	20.756813
782.172678	-2.996600	3.697200	-11.078000	25.056733	0.000523	20.748525
783.172216	-2.974600	3.695600	-10.991000	25.080620	0.000523	20.747374
784.172569	-2.990300	3.696200	-11.052000	25.098023	0.000523	20.753938
785.172785	-3.001400	3.696800	-11.094000	25.097920	0.000521	20.758576
786.175503	-2.999700	3.695900	-11.086000	25.051428	0.000522	20.750787
787.176037	-3.000800	3.696400	-11.091000	25.016921	0.000519	20.753133
788.178054	-3.007900	3.693800	-11.110000	25.027190	0.000521	20.773399
789.173103	-3.011600	3.695800	-11.129000	25.013137	0.000520	20.764508
790.173681	-2.989000	3.695100	-11.043000	25.024154	0.000521	20.784576
791.173452	-3.033200	3.695300	-11.207000	25.064280	0.000520	20.765110
792.172970	-2.991600	3.695300	-11.054000	25.055669	0.000519	20.763579
793.176333	-3.008600	3.693400	-11.111000	25.006242	0.000518	20.756639
794.172588	-3.015300	3.694900	-11.140000	25.000967	0.000518	20.761301
795.171886	-3.018700	3.693000	-11.147000	25.057656	0.000519	20.771264
796.172126	-3.024700	3.691800	-11.165000	25.052854	0.000520	20.760753
797.173491	-2.987600	3.694700	-11.038000	25.081342	0.000519	20.761375
798.174790	-2.982100	3.693300	-11.013000	25.070921	0.000521	20.765613
799.176662	-2.999300	3.691700	-11.071000	25.089096	0.000518	20.756357
800.174046	-2.985600	3.692700	-11.024000	25.144230	0.000519	20.787523
801.173971	-3.001000	3.692100	-11.080000	25.162271	0.000519	20.760115
802.175907	-2.979300	3.693300	-11.003000	25.163142	0.000519	20.801767
803.174782	-2.976900	3.693100	-10.993000	25.125529	0.000519	20.776810
804.178268	-3.007500	3.691200	-11.100000	25.150680	0.000518	20.783092
805.175925	-3.017800	3.690600	-11.136000	25.219015	0.000520	20.788159
806.176134	-2.987100	3.690800	-11.022000	25.241557	0.000516	20.766219
807.177134	-2.993700	3.690100	-11.046000	25.235638	0.000518	20.763122
808.178210	-3.006800	3.690700	-11.095000	25.192458	0.000516	20.783783
809.184216	-3.018900	3.689000	-11.136000	25.180198	0.000518	20.794234
810.178573	-3.013600	3.689600	-11.117000	25.189073	0.000517	20.769479
811.178398	-3.009900	3.688700	-11.101000	25.183174	0.000516	20.786316
812.178428	-2.985800	3.689800	-11.016000	25.164479	0.000517	20.771340
813.181104	-3.001900	3.690200	-11.077000	25.177875	0.000517	20.785738
814.181152	-3.006000	3.688900	-11.088000	25.206508	0.000517	20.782715
815.180996	-2.994300	3.688300	-11.042000	25.232104	0.000516	20.797507
816.181501	-2.975900	3.689600	-10.979000	25.239852	0.000515	20.791535
817.181662	-3.001100	3.687500	-11.066000	25.259491	0.000515	20.792760
818.180130	-2.979500	3.688900	-10.991000	25.248801	0.000516	20.775863
819.182907	-2.986100	3.688300	-11.012000	25.233235	0.000512	20.770667
820.186935	-2.993700	3.688800	-11.043000	25.154731	0.000513	20.783366
821.183194	-3.023500	3.685600	-11.142000	25.134436	0.000515	20.780061
822.186090	-3.003000	3.686400	-11.069000	25.174183	0.000512	20.795782
823.184430	-2.998000	3.687900	-11.055000	25.181238	0.000512	20.780579
824.183729	-2.995700	3.686200	-11.042000	25.191102	0.000513	20.781473
825.187015	-3.002400	3.685000	-11.063000	25.176254	0.000511	20.807343
826.186518	-2.997800	3.686400	-11.050000	25.134838	0.000511	20.786629
827.184798	-2.994300	3.685400	-11.034000	25.138838	0.000513	20.787799
828.181540	-3.020700	3.685400	-11.132000	25.116363	0.000512	20.798428
829.181976	-3.010700	3.685200	-11.094000	25.125676	0.000511	20.783121
830.183240	-3.003400	3.684600	-11.065000	25.182747	0.000510	20.797267
831.183642	-2.984800	3.686400	-11.003000	25.190992	0.000512	20.809812
832.184550	-2.977500	3.684700	-10.970000	25.206725	0.000511	20.797158
833.186385	-2.991800	3.685300	-11.024000	25.244178	0.000510	20.783076
834.184539	-3.021000	3.683300	-11.126000	25.236597	0.000509	20.792060
835.187795	-2.999900	3.683900	-11.050000	25.227324	0.000510	20.798871
836.189065	-2.985500	3.684600	-11.000000	25.221705	0.000509	20.808404
837.183218	-2.996300	3.683100	-11.034000	25.240941	0.000510	20.808749
838.187248	-2.998300	3.682400	-11.039000	25.290425	0.000509	20.825715
839.187968	-2.989800	3.682900	-11.010000	25.291492	0.000509	20.819674
840.185593	-2.991500	3.682200	-11.014000	25.291443	0.000508	20.816306
841.190374	-2.983800	3.683600	-10.989000	25.254976	0.000507	20.801029
842.184997	-2.995000	3.680900	-11.023000	25.250892	0.000508	20.809732
843.185764	-2.979000	3.682300	-10.969000	25.281688	0.000508	20.833537
844.184761	-2.983400	3.683100	-10.987000	25.262325	0.000509	20.804141
845.185705	-3.001700	3.681300	-11.049000	25.288078	0.000508	20.813875
846.190273	-3.014300	3.681000	-11.095000	25.261528	0.000509	20.784848
847.188886	-3.001300	3.680300	-11.044000	25.233088	0.000506	20.810349
848.185408	-2.975900	3.680800	-10.953000	25.233762	0.000507	20.799646
849.184894	-2.988000	3.679900	-10.995000	25.256421	0.000508	20.819076
850.185369	-2.986200	3.680300	-10.989000	25.283242	0.000506	20.818503
851.184958	-3.013900	3.679500	-11.089000	25.293577	0.000505	20.819397
852.188826	-2.989100	3.679400	-10.997000	25.274343	0.000506	20.797240
853.185506	-3.011000	3.678300	-11.075000	25.297281	0.000507	20.838288
854.186095	-3.011000	3.679800	-11.079000	25.260140	0.000505	20.817120
855.184836	-2.987100	3.679000	-10.988000	25.230392	0.000505	20.812857
856.193924	-2.995600	3.679000	-11.020000	25.194045	0.000507	20.823782
857.187135	-3.008300	3.678800	-11.066000	25.158352	0.000505	20.813080
858.187228	-3.002000	3.678100	-11.041000	25.161954	0.000504	20.814324
859.186944	-3.006100	3.678200	-11.055000	25.245893	0.000503	20.802342
860.187495	-2.981300	3.679300	-10.969000	25.274603	0.000504	20.821209
861.189506	-2.997700	3.677100	-11.021000	25.270500	0.000504	20.813297
862.189137	-2.978300	3.677800	-10.952000	25.264312	0.000505	20.820359
863.187978	-2.973400	3.678000	-10.935000	25.248053	0.000506	20.832959
864.187951	-3.000700	3.676400	-11.031000	25.231119	0.000503	20.831131
865.192274	-2.985100	3.677200	-10.976000	25.233432	0.000504	20.806900
866.189642	-3.013600	3.676000	-11.077000	25.204544	0.000504	20.821520
867.195114	-3.002400	3.675200	-11.034000	25.183487	0.000504	20.797061
868.193674	-3.016100	3.675300	-11.084000	25.173588	0.000502	20.811306
869.192748	-2.987600	3.676200	-10.983000	25.190015	0.000504	20.829219
870.193426	-2.979000	3.676500	-10.950000	25.189189	0.000502	20.827441
871.194723	-2.999500	3.675400	-11.023000	25.210166	0.000505	20.824794
872.196206	-2.959200	3.675700	-10.875000	25.190600	0.000505	20.820798
873.196786	-2.994100	3.675900	-11.005000	25.189405	0.000503	20.832400
874.194404	-2.991000	3.674500	-10.989000	25.164742	0.000503	20.832770
875.196888	-3.014400	3.674200	-11.074000	25.140501	0.000501	20.837358
876.196468	-2.988500	3.674900	-10.982000	25.163438	0.000502	20.839995
877.195776	-3.004600	3.674200	-11.038000	25.199451	0.000502	20.839165
878.197483	-3.002100	3.673400	-11.028000	25.195943	0.000499	20.826161
879.193789	-3.001700	3.671900	-11.020000	25.219503	0.000502	20.828477
880.195862	-3.000500	3.674000	-11.023000	25.230833	0.000502	20.839852
881.198085	-3.000900	3.672200	-11.019000	25.274375	0.000501	20.845161
882.197433	-3.015300	3.670900	-11.068000	25.302405	0.000501	20.840587
883.201012	-2.986200	3.673400	-10.969000	25.264024	0.000499	20.843304
884.197943	-3.000700	3.671700	-11.017000	25.272225	0.000501	20.826882
885.197395	-2.998600	3.670500	-11.005000	25.308455	0.000500	20.849507
886.197340	-3.017700	3.672000	-11.079000	25.328456	0.000500	20.859157
887.196575	-2.993300	3.671100	-10.988000	25.285280	0.000497	20.819127
888.196292	-2.991600	3.671600	-10.983000	25.251868	0.000495	20.860970
889.197267	-2.985300	3.671200	-10.959000	25.219423	0.000496	20.863483
890.195175	-2.993100	3.670600	-10.986000	25.242683	0.000497	20.856964
891.202457	-3.003900	3.670000	-11.024000	25.214140	0.000497	20.849645
892.200456	-2.996400	3.670000	-10.995000	25.202731	0.000496	20.852415
893.198371	-2.998700	3.670000	-11.004000	25.208467	0.000497	20.844424
894.201373	-2.985600	3.670700	-10.959000	25.247017	0.000497	20.845669
895.197372	-3.000100	3.669700	-11.007000	25.296422	0.000496	20.850227
896.197370	-3.018000	3.668600	-11.071000	25.318810	0.000496	20.849946
897.197370	-3.010800	3.669300	-11.046000	25.314928	0.000496	20.855057
898.198373	-3.003900	3.667600	-11.016000	25.349367	0.000497	20.859290
899.199429	-3.029100	3.669000	-11.113000	25.369943	0.000496	20.860510
900.200427	-3.018200	3.667700	-11.069000	25.393819	0.000496	20.847501
901.201428	-3.006300	3.668000	-11.026000	25.419190	0.000494	20.877243
902.203618	-3.010500	3.666100	-11.036000	25.444364	0.000495	20.857003
903.202833	-2.996500	3.666400	-10.986000	25.450719	0.000494	20.878082
904.200884	-3.001800	3.667100	-11.007000	25.455332	0.000494	20.867543
905.202528	-3.007500	3.666100	-11.024000	25.436096	0.000493	20.846331
906.200795	-3.024300	3.664700	-11.080000	25.409874	0.000494	20.863622
907.200340	-3.019800	3.664500	-11.065000	25.373254	0.000492	20.864308
908.203670	-3.004200	3.665100	-11.009000	25.358093	0.000492	20.880853
909.206240	-3.009700	3.664100	-11.027000	25.340316	0.000493	20.872013
910.210451	-3.007000	3.666200	-11.023000	25.266764	0.000493	20.883984
911.202076	-3.016100	3.665100	-11.054000	25.263227	0.000489	20.884226
912.203028	-2.988400	3.666200	-10.955000	25.319745	0.000491	20.887866
913.213222	-3.006900	3.663300	-11.014000	25.368133	0.000490	20.875761
914.202650	-3.004000	3.663400	-11.004000	25.385153	0.000492	20.869618
915.216673	-3.008600	3.664000	-11.023000	25.355718	0.000491	20.876572
916.206835	-3.016800	3.662200	-11.047000	25.309882	0.000488	20.873697
917.204837	-3.019800	3.662000	-11.057000	25.304928	0.000487	20.867302
918.205330	-3.011400	3.662900	-11.030000	25.282506	0.000491	20.874186
919.210004	-3.017000	3.662400	-11.048000	25.302208	0.000487	20.865993
920.205381	-3.019600	3.660700	-11.053000	25.325294	0.000489	20.896283
921.210774	-3.004000	3.662400	-11.000000	25.359988	0.000488	20.877066
922.205907	-3.013200	3.661800	-11.033000	25.389905	0.000489	20.890035
923.205672	-3.012500	3.661100	-11.028000	25.389158	0.000487	20.880751
924.210335	-2.989900	3.660700	-10.944000	25.364524	0.000487	20.897266
925.207978	-3.005200	3.659600	-10.996000	25.357933	0.000487	20.894441
926.208395	-2.970000	3.662900	-10.877000	25.319303	0.000489	20.861347
927.207571	-2.979100	3.661900	-10.908000	25.337322	0.000488	20.878489
928.207631	-3.011800	3.661300	-11.026000	25.344524	0.000487	20.894254
929.206067	-2.988500	3.660900	-10.940000	25.338783	0.000485	20.897498
930.216648	-3.007500	3.659300	-11.004000	25.321876	0.000485	20.886214
931.208596	-3.007700	3.658700	-11.003000	25.328857	0.000484	20.887532
932.210881	-2.970200	3.660900	-10.873000	25.382120	0.000486	20.888382
933.209384	-2.998000	3.658700	-10.968000	25.385892	0.000486	20.898808
934.208409	-3.013500	3.658100	-11.023000	25.345695	0.000485	20.901593
935.211442	-2.997600	3.659400	-10.969000	25.336477	0.000484	20.892338
936.212420	-3.000000	3.659300	-10.977000	25.316594	0.000484	20.886125
937.213155	-3.035000	3.656000	-11.094000	25.300685	0.000485	20.902867
938.211775	-3.016800	3.658000	-11.035000	25.338435	0.000483	20.887666
939.211102	-2.994100	3.657800	-10.951000	25.399125	0.000484	20.888861
940.213100	-3.011800	3.656800	-11.012000	25.430014	0.000483	20.898067
941.211104	-2.982300	3.658400	-10.909000	25.468453	0.000485	20.908216
942.215892	-3.001700	3.656600	-10.975000	25.463328	0.000483	20.900226
943.212873	-3.013900	3.655400	-11.016000	25.482737	0.000483	20.895060
944.212874	-2.989700	3.656600	-10.931000	25.428559	0.000484	20.901347
945.213048	-3.000600	3.656000	-10.970000	25.407704	0.000484	20.891312
946.214046	-3.011000	3.655200	-11.005000	25.407970	0.000484	20.900587
947.214977	-2.999900	3.655500	-10.965000	25.423852	0.000482	20.894725
948.216037	-3.018100	3.655000	-11.030000	25.424221	0.000480	20.914534
949.212037	-2.983400	3.655200	-10.904000	25.438830	0.000481	20.889376
950.231037	-2.984700	3.654400	-10.907000	25.408305	0.000482	20.927947
951.227552	-2.992400	3.655200	-10.937000	25.391005	0.000480	20.885451
952.214792	-2.995100	3.654000	-10.942000	25.351654	0.000482	20.900939
953.240858	-3.027400	3.654200	-11.061000	25.395275	0.000483	20.913443
954.226296	-2.995600	3.654200	-10.944000	25.342948	0.000481	20.927281
955.215300	-2.998200	3.653200	-10.952000	25.333872	0.000479	20.912955
956.217398	-2.983100	3.654000	-10.899000	25.351542	0.000479	20.908885
957.214492	-3.009700	3.653300	-10.995000	25.341197	0.000479	20.887121
958.234074	-3.003000	3.652600	-10.968000	25.372359	0.000477	20.914141
959.215079	-3.004200	3.651500	-10.968000	25.370043	0.000479	20.908496
960.226120	-3.010900	3.651800	-10.993000	25.402424	0.000478	20.906397
961.218314	-2.990800	3.651900	-10.920000	25.451478	0.000476	20.888801
962.216314	-3.020600	3.650100	-11.024000	25.398838	0.000477	20.915598
963.221346	-2.983600	3.651000	-10.893000	25.378829	0.000476	20.898827
964.219962	-3.020600	3.649300	-11.023000	25.379424	0.000477	20.900847
965.218211	-2.990200	3.651100	-10.916000	25.381682	0.000477	20.911648
966.218222	-3.001900	3.650100	-10.957000	25.417417	0.000475	20.893005
967.220016	-3.038900	3.649100	-11.088000	25.392932	0.000474	20.909668
968.235754	-2.994300	3.649800	-10.928000	25.395933	0.000476	20.883760
969.222636	-2.991600	3.650500	-10.920000	25.389843	0.000476	20.898033
970.222669	-2.999500	3.648700	-10.942000	25.420802	0.000477	20.884077
971.222740	-3.005200	3.648800	-10.963000	25.478778	0.000477	20.898671
972.226713	-3.017800	3.649200	-11.012000	25.537620	0.000474	20.888537
973.225216	-3.023300	3.647000	-11.024000	25.555056	0.000474	20.886606
974.227635	-3.010400	3.648400	-10.981000	25.513851	0.000474	20.877470
975.225835	-2.996300	3.648000	-10.929000	25.498816	0.000474	20.896034
976.226759	-3.000500	3.648200	-10.946000	25.493170	0.000472	20.904114
977.225341	-3.001900	3.647900	-10.950000	25.496225	0.000473	20.904337
978.226971	-3.004500	3.645700	-10.952000	25.405138	0.000472	20.898692
979.230241	-3.007200	3.645300	-10.961000	25.392015	0.000471	20.898317
980.232919	-2.986100	3.647700	-10.891000	25.357411	0.000470	20.868315
981.227441	-3.013000	3.646500	-10.985000	25.368941	0.000469	20.900278
982.234702	-2.992300	3.646700	-10.911000	25.429000	0.000470	20.899894
983.229561	-2.999300	3.646300	-10.935000	25.455644	0.000471	20.904837
984.229036	-2.984900	3.645200	-10.880000	25.491849	0.000470	20.898521
985.238044	-3.017500	3.645500	-11.000000	25.534068	0.000469	20.890659
986.230797	-3.008400	3.644600	-10.963000	25.553372	0.000470	20.873062
987.229849	-2.978800	3.644900	-10.857000	25.546737	0.000468	20.902433
988.235612	-2.994100	3.645300	-10.913000	25.508440	0.000469	20.886733
989.232678	-3.009300	3.642600	-10.961000	25.535077	0.000467	20.873181
990.232589	-3.008300	3.643200	-10.958000	25.508283	0.000467	20.875671
991.232203	-2.999200	3.644100	-10.928000	25.492205	0.000468	20.874698
992.232341	-3.011900	3.641900	-10.968000	25.458750	0.000466	20.897525
993.231789	-3.007700	3.643900	-10.959000	25.485791	0.000466	20.856879
994.232217	-3.000300	3.643600	-10.930000	25.528133	0.000466	20.890389
995.237656	-3.002500	3.641200	-10.932000	25.567316	0.000466	20.870945
996.233113	-3.001000	3.642800	-10.931000	25.579842	0.000466	20.874990
997.232847	-3.017900	3.642400	-10.991000	25.553049	0.000467	20.880798
998.232135	-3.003700	3.640700	-10.934000	25.519079	0.000466	20.857591
999.233065	-2.999700	3.641400	-10.922000	25.533667	0.000465	20.849481
1000.233073	-2.980300	3.643000	-10.856000	25.547437	0.000466	20.865680
1001.235292	-3.020200	3.639900	-10.992000	25.534410	0.000465	20.859236
1002.234714	-3.014800	3.640100	-10.973000	25.553069	0.000464	20.850000
1003.234205	-2.990400	3.640600	-10.885000	25.519970	0.000465	20.876028
1004.236494	-3.021600	3.639800	-10.997000	25.515150	0.000463	20.887308
1005.235220	-3.005700	3.639500	-10.938000	25.499913	0.000465	20.868689
1006.239490	-3.008200	3.639000	-10.945000	25.473669	0.000465	20.864620
1007.234276	-3.022700	3.638900	-10.999000	25.465613	0.000463	20.854160
1008.234103	-3.014900	3.637900	-10.967000	25.444418	0.000462	20.845205
1009.237668	-3.013200	3.638800	-10.963000	25.425428	0.000461	20.850317
1010.235471	-3.001500	3.637800	-10.918000	25.483005	0.000462	20.862615
1011.236346	-2.991300	3.637600	-10.880000	25.510936	0.000463	20.853681
1012.240346	-2.994500	3.636900	-10.889000	25.517665	0.000462	20.863282
1013.237350	-2.989300	3.637800	-10.874000	25.531037	0.000460	20.864384
1014.237782	-3.009500	3.636500	-10.943000	25.508369	0.000460	20.875284
1015.240413	-3.005100	3.636300	-10.927000	25.513165	0.000463	20.853074
1016.245716	-3.009800	3.637900	-10.948000	25.512890	0.000458	20.851375
1017.241986	-2.988600	3.637200	-10.869000	25.531250	0.000460	20.859856
1018.246672	-3.021600	3.635800	-10.985000	25.520263	0.000459	20.848823
1019.238162	-3.010300	3.634800	-10.940000	25.537949	0.000458	20.874643
1020.239828	-2.997600	3.635500	-10.896000	25.547289	0.000460	20.829497
1021.238680	-3.013600	3.635300	-10.954000	25.566937	0.000461	20.851600
1022.240736	-3.021800	3.634200	-10.980000	25.624088	0.000458	20.861581
1023.240860	-2.999800	3.633900	-10.900000	25.631293	0.000458	20.860282
1024.239345	-3.008100	3.633800	-10.930000	25.646244	0.000459	20.843531
1025.239512	-3.003100	3.634200	-10.912000	25.623057	0.000457	20.839684
1026.239897	-2.997300	3.634600	-10.893000	25.597037	0.000458	20.840104
1027.240733	-3.039100	3.633000	-11.039000	25.561972	0.000455	20.841872
1028.242033	-3.021600	3.632800	-10.976000	25.606446	0.000457	20.846708
1029.241037	-3.015600	3.633200	-10.955000	25.585717	0.000457	20.852442
1030.242326	-2.991300	3.632200	-10.864000	25.550923	0.000455	20.863491
1031.241099	-2.988100	3.633500	-10.856000	25.548627	0.000455	20.861660
1032.242689	-3.009700	3.631000	-10.927000	25.561449	0.000457	20.842295
1033.241298	-2.984700	3.631800	-10.839000	25.609100	0.000455	20.849847
1034.241673	-2.986600	3.631400	-10.845000	25.646839	0.000455	20.840335
1035.242752	-2.982200	3.631000	-10.827000	25.631206	0.000456	20.845497
1036.242298	-3.008800	3.631000	-10.923000	25.618701	0.000456	20.847162
1037.248667	-2.978800	3.632200	-10.818000	25.599241	0.000454	20.830938
1038.242454	-2.997300	3.630400	-10.880000	25.574863	0.000455	20.850551
1039.243372	-2.991900	3.630000	-10.859000	25.534329	0.000453	20.848724
1040.258368	-3.001700	3.629600	-10.895000	25.544215	0.000451	20.837790
1041.243256	-3.000400	3.628700	-10.886000	25.547634	0.000452	20.832215
1042.250669	-3.005900	3.630300	-10.911000	25.510925	0.000452	20.822377
1043.245770	-2.997600	3.629000	-10.877000	25.538154	0.000451	20.832177
1044.245654	-2.980600	3.629400	-10.816000	25.516381	0.000451	20.841132
1045.245943	-2.976600	3.629800	-10.803000	25.528805	0.000451	20.839384
1046.245188	-3.003400	3.628200	-10.896000	25.577820	0.000451	20.819856
1047.246636	-2.997300	3.627400	-10.871000	25.614194	0.000451	20.854489
1048.249219	-2.996900	3.627600	-10.870000	25.603454	0.000452	20.851289
1049.246412	-3.025900	3.627400	-10.975000	25.580685	0.000451	20.828897
1050.245835	-3.005600	3.625100	-10.894000	25.608884	0.000450	20.827821
1051.255863	-3.005600	3.627700	-10.902000	25.616356	0.000451	20.836272
1052.245335	-3.015300	3.626100	-10.933000	25.613096	0.000448	20.828257
1053.247602	-3.019100	3.626500	-10.948000	25.581135	0.000449	20.837884
1054.246433	-3.003400	3.626400	-10.890000	25.553443	0.000447	20.843738
1055.246491	-3.003000	3.626000	-10.888000	25.539422	0.000446	20.826813
1056.247749	-2.998200	3.625200	-10.868000	25.535021	0.000448	20.828557
1057.253475	-2.982500	3.626400	-10.814000	25.560311	0.000447	20.853006
1058.248982	-2.997700	3.623900	-10.863000	25.575686	0.000444	20.831463
1059.247084	-2.998500	3.624900	-10.868000	25.629675	0.000446	20.826891
1060.246450	-2.988600	3.624500	-10.831000	25.650542	0.000444	20.832675
1061.246589	-3.013400	3.624100	-10.919000	25.620224	0.000447	20.821192
1062.246138	-2.986800	3.623300	-10.821000	25.586872	0.000446	20.829896
1063.246582	-2.983300	3.623600	-10.810000	25.558512	0.000445	20.822750
1064.247062	-3.013400	3.621900	-10.914000	25.548592	0.000442	20.830332
1065.246340	-3.012200	3.621600	-10.907000	25.553310	0.000445	20.823690
1066.247654	-2.983700	3.622700	-10.808000	25.565355	0.000444	20.839580
1067.250734	-2.982900	3.622600	-10.805000	25.576583	0.000440	20.820037
1068.251147	-2.992800	3.622000	-10.839000	25.617772	0.000444	20.830109
1069.249343	-3.001500	3.621300	-10.868000	25.623733	0.000443	20.826613
1070.254870	-3.003800	3.621000	-10.876000	25.656895	0.000443	20.830995
1071.248638	-2.997400	3.620800	-10.852000	25.664694	0.000439	20.852578
1072.250390	-2.992900	3.620200	-10.834000	25.613104	0.000441	20.839645
1073.250966	-2.972100	3.621700	-10.763000	25.613149	0.000439	20.838268
1074.250275	-3.049300	3.618500	-11.033000	25.608099	0.000441	20.827507
1075.255740	-2.995100	3.619300	-10.839000	25.638010	0.000441	20.816296
1076.251634	-2.999200	3.618400	-10.851000	25.650330	0.000440	20.833410
1077.259781	-2.994900	3.618500	-10.836000	25.612184	0.000439	20.843462
1078.255523	-2.995500	3.619000	-10.840000	25.627632	0.000441	20.833847
1079.252193	-2.986600	3.618200	-10.806000	25.630087	0.000438	20.826356
1080.255395	-2.988700	3.617600	-10.810000	25.580983	0.000439	20.814972
1081.251908	-2.977000	3.617900	-10.770000	25.576422	0.000437	20.826512
1082.251909	-2.998500	3.618000	-10.847000	25.622985	0.000438	20.822542
1083.252957	-3.000000	3.616200	-10.847000	25.672477	0.000439	20.812506
1084.252538	-2.977400	3.618100	-10.772000	25.723181	0.000436	20.819338
1085.252744	-3.027500	3.615300	-10.945000	25.659644	0.000437	20.846084
1086.251192	-2.999600	3.617200	-10.848000	25.613468	0.000436	20.824838
1087.253305	-2.983500	3.615700	-10.786000	25.589809	0.000437	20.815302
1088.261729	-3.010200	3.614700	-10.880000	25.564113	0.000436	20.837384
1089.259886	-3.001600	3.613900	-10.846000	25.616461	0.000436	20.827844
1090.253937	-2.979400	3.615100	-10.770000	25.625008	0.000434	20.831212
1091.255057	-2.987100	3.613700	-10.793000	25.618764	0.000434	20.833950
1092.254578	-2.978200	3.615400	-10.767000	25.609614	0.000434	20.820967
1093.254782	-3.015500	3.612700	-10.892000	25.651007	0.000432	20.811332
1094.256988	-2.988300	3.613400	-10.797000	25.649960	0.000433	20.811228
1095.253603	-2.984400	3.614200	-10.785000	25.636117	0.000431	20.815817
1096.253671	-2.988800	3.613100	-10.799000	25.604880	0.000431	20.812894
1097.254326	-3.014900	3.613100	-10.893000	25.636434	0.000432	20.820402
1098.267083	-3.028300	3.611800	-10.937000	25.647715	0.000430	20.827465
1099.254351	-3.017000	3.612400	-10.898000	25.682099	0.000429	20.824068
1100.268557	-3.010100	3.611100	-10.869000	25.728682	0.000430	20.831027
1101.256581	-2.991100	3.612300	-10.804000	25.742044	0.000429	20.814577
1102.253859	-2.990300	3.611500	-10.799000	25.738345	0.000428	20.825086
1103.253167	-3.008400	3.611400	-10.864000	25.673889	0.000430	20.849012
1104.255727	-2.978400	3.611800	-10.757000	25.656915	0.000429	20.803041
1105.253793	-2.998700	3.609500	-10.823000	25.636270	0.000429	20.810281
1106.257936	-2.974300	3.611000	-10.739000	25.630522	0.000425	20.813991
1107.255618	-2.988000	3.609100	-10.783000	25.628983	0.000427	20.806281
1108.257606	-2.994900	3.609600	-10.810000	25.616983	0.000425	20.806558
1109.259992	-2.988300	3.609300	-10.783000	25.650322	0.000426	20.810644
1110.255748	-3.025300	3.607700	-10.914000	25.637600	0.000426	20.823470
1111.263099	-2.998800	3.609500	-10.824000	25.655490	0.000426	20.824369
1112.256940	-3.008400	3.607200	-10.851000	25.589543	0.000424	20.810293
1113.258380	-2.995200	3.607800	-10.804000	25.562924	0.000426	20.815327
1114.257967	-2.973500	3.608300	-10.728000	25.548316	0.000424	20.821994
1115.258243	-2.972700	3.607400	-10.723000	25.613145	0.000424	20.806970
1116.258277	-2.994200	3.606700	-10.798000	25.634242	0.000425	20.828632
1117.259243	-2.995700	3.606200	-10.802000	25.635630	0.000423	20.800155
1118.257247	-2.987800	3.606400	-10.773000	25.614237	0.000422	20.819920
1119.257857	-2.999200	3.605400	-10.813000	25.618909	0.000422	20.803750
1120.261886	-3.004800	3.604700	-10.831000	25.656328	0.000421	20.806719
1121.259858	-2.993200	3.605800	-10.791000	25.653894	0.000421	20.812808
1122.262856	-3.001000	3.605900	-10.820000	25.630839	0.000421	20.794869
1123.263859	-3.013800	3.604300	-10.861000	25.620354	0.000419	20.796192
1124.261860	-2.985500	3.604500	-10.760000	25.644152	0.000420	20.803499
1125.262856	-2.976600	3.605600	-10.732000	25.687908	0.000423	20.802402
1126.266856	-2.973600	3.605200	-10.719000	25.702296	0.000420	20.799784
1127.264854	-2.980800	3.604100	-10.742000	25.671710	0.000419	20.806521
1128.263857	-2.995500	3.604200	-10.796000	25.660084	0.000422	20.799111
1129.264443	-2.982400	3.603500	-10.746000	25.648454	0.000418	20.805449
1130.264121	-3.012100	3.602000	-10.848000	25.614463	0.000419	20.791224
1131.264121	-3.006000	3.603100	-10.831000	25.609421	0.000418	20.786635
1132.264120	-2.987900	3.603300	-10.766000	25.661328	0.000417	20.800361
1133.266125	-2.989100	3.601600	-10.765000	25.647535	0.000418	20.800258
1134.265335	-3.033700	3.600400	-10.921000	25.589240	0.000418	20.776797
1135.264336	-3.018400	3.601000	-10.869000	25.604372	0.000418	20.785831
1136.267335	-3.010700	3.600900	-10.840000	25.586358	0.000416	20.790498
1137.264335	-3.020300	3.599700	-10.871000	25.581283	0.000418	20.785877
1138.269335	-3.008000	3.600500	-10.829000	25.628495	0.000417	20.787773
1139.265336	-3.011700	3.598800	-10.837000	25.630757	0.000415	20.787674
1140.264336	-3.000100	3.600100	-10.800000	25.609959	0.000414	20.798555
1141.265334	-2.963500	3.601100	-10.671000	25.585311	0.000414	20.779490
1142.265334	-2.993700	3.599800	-10.776000	25.597360	0.000415	20.803445
1143.265335	-2.980500	3.599800	-10.729000	25.627949	0.000413	20.776319
1144.268335	-3.009300	3.597400	-10.825000	25.627276	0.000415	20.765211
1145.265333	-2.981100	3.598000	-10.725000	25.653512	0.000414	20.801520
1146.266517	-3.007300	3.596300	-10.814000	25.680195	0.000413	20.783275
1147.269725	-2.985800	3.598100	-10.741000	25.666127	0.000415	20.761558
1148.267694	-2.997800	3.596900	-10.781000	25.716516	0.000414	20.792729
1149.279695	-3.014900	3.596400	-10.842000	25.727793	0.000413	20.782719
1150.269781	-2.981300	3.597500	-10.724000	25.695462	0.000413	20.778220
1151.268616	-2.980900	3.596600	-10.721000	25.679067	0.000413	20.777400
1152.269617	-3.007000	3.595300	-10.810000	25.655532	0.000413	20.793591
1153.269397	-2.984000	3.596000	-10.729000	25.631853	0.000411	20.783086
1154.280430	-3.017800	3.593800	-10.843000	25.635425	0.000411	20.787147
1155.270368	-2.972100	3.596400	-10.688000	25.607867	0.000413	20.777961
1156.270286	-3.002400	3.594800	-10.792000	25.634551	0.000413	20.763984
1157.271728	-2.995900	3.594700	-10.768000	25.670923	0.000410	20.787238
1158.271682	-3.005200	3.593200	-10.797000	25.692885	0.000409	20.788434
1159.272647	-3.009000	3.594100	-10.813000	25.664236	0.000411	20.787634
1160.272351	-3.009700	3.592500	-10.811000	25.654987	0.000410	20.788302
1161.271064	-2.997300	3.593200	-10.769000	25.657446	0.000409	20.787927
1162.272645	-3.001600	3.593600	-10.786000	25.718016	0.000409	20.778588
1163.272283	-2.999100	3.592400	-10.773000	25.730684	0.000410	20.794157
1164.272424	-2.990200	3.593100	-10.744000	25.723398	0.000409	20.782098
1165.274651	-2.992700	3.590700	-10.745000	25.709236	0.000410	20.782572
1166.272873	-2.997400	3.591200	-10.763000	25.701285	0.000409	20.784069
1167.272667	-3.004300	3.591400	-10.789000	25.683933	0.000406	20.790348
1168.284529	-3.022600	3.590000	-10.850000	25.663305	0.000406	20.776268
1169.277130	-2.995300	3.590700	-10.754000	25.643752	0.000407	20.777967
1170.278864	-3.009900	3.590000	-10.805000	25.625759	0.000406	20.781233
1171.274566	-2.988500	3.590700	-10.731000	25.646676	0.000404	20.745815
1172.275565	-3.001100	3.590500	-10.775000	25.661085	0.000405	20.775461
1173.275206	-2.995300	3.589000	-10.749000	25.669258	0.000403	20.764703
1174.275514	-2.998500	3.588800	-10.759000	25.659665	0.000403	20.781147
1175.276654	-2.992300	3.589300	-10.739000	25.694722	0.000403	20.797392
1176.278760	-3.010500	3.588200	-10.801000	25.691340	0.000403	20.790675
1177.278936	-2.980900	3.589500	-10.698000	25.700087	0.000401	20.778599
1178.290601	-2.995800	3.588300	-10.748000	25.755294	0.000402	20.773832
1179.277498	-3.018800	3.586800	-10.827000	25.756004	0.000400	20.784029
1180.278551	-3.000800	3.587600	-10.765000	25.762317	0.000403	20.781836
1181.280849	-3.008200	3.586700	-10.789000	25.786137	0.000403	20.790589
1182.278310	-2.995800	3.586200	-10.743000	25.810313	0.000400	20.771726
1183.278314	-3.009000	3.586800	-10.792000	25.783133	0.000397	20.767182
1184.280828	-2.989900	3.587500	-10.725000	25.774960	0.000400	20.779836
1185.278008	-2.983800	3.586700	-10.701000	25.753891	0.000400	20.761991
1186.282014	-3.005800	3.586000	-10.778000	25.715006	0.000398	20.775565
1187.280879	-2.986500	3.586100	-10.709000	25.712247	0.000399	20.754776
1188.281684	-2.999900	3.585300	-10.754000	25.699448	0.000399	20.773215
1189.280703	-3.012800	3.585200	-10.800000	25.636812	0.000399	20.792334
1190.280946	-3.024900	3.582900	-10.837000	25.657359	0.000398	20.785469
1191.283269	-3.000800	3.584400	-10.755000	25.691123	0.000399	20.773862
1192.283629	-2.989000	3.584800	-10.713000	25.683545	0.000399	20.768147
1193.281669	-2.995000	3.583100	-10.731000	25.615933	0.000398	20.785589
1194.281111	-2.991900	3.583700	-10.721000	25.656157	0.000396	20.772407
1195.284680	-3.001500	3.582500	-10.751000	25.687363	0.000397	20.773405
1196.282814	-2.992600	3.581700	-10.717000	25.740855	0.000397	20.782088
1197.284409	-3.020900	3.581100	-10.817000	25.744455	0.000396	20.777644
1198.283973	-2.990400	3.581600	-10.709000	25.751310	0.000397	20.793064
1199.284863	-3.030000	3.580300	-10.848000	25.749619	0.000396	20.775719
1200.286892	-3.005800	3.580900	-10.763000	25.785022	0.000393	20.774770
1201.283811	-3.026000	3.579500	-10.831000	25.786607	0.000396	20.785371
1202.287409	-3.002200	3.580400	-10.748000	25.716715	0.000394	20.755944
1203.284164	-3.027600	3.579300	-10.836000	25.728689	0.000395	20.789309
1204.285160	-3.001400	3.580400	-10.746000	25.734974	0.000393	20.787087
1205.284862	-2.996600	3.580500	-10.729000	25.686971	0.000396	20.778700
1206.284882	-2.968500	3.580500	-10.628000	25.654171	0.000394	20.801707
1207.284950	-2.990300	3.578900	-10.701000	25.677078	0.000391	20.774454
1208.288547	-2.981200	3.579200	-10.669000	25.690768	0.000391	20.788205
1209.284951	-2.994700	3.578200	-10.715000	25.668080	0.000391	20.781064
1210.285272	-2.985800	3.578800	-10.685000	25.675756	0.000393	20.788774
1211.289957	-3.011100	3.577800	-10.771000	25.692004	0.000392	20.785179
1212.286674	-2.995300	3.576600	-10.711000	25.696003	0.000391	20.779237
1213.286819	-2.983800	3.576300	-10.670000	25.688749	0.000390	20.782857
1214.285206	-3.002800	3.576400	-10.737000	25.686508	0.000391	20.766382
1215.285134	-2.998200	3.576700	-10.723000	25.673310	0.000392	20.771144
1216.286118	-2.985800	3.577500	-10.681000	25.636840	0.000391	20.788094
1217.286612	-3.005800	3.575700	-10.747000	25.612065	0.000390	20.778858
1218.287838	-3.012400	3.574900	-10.768000	25.701959	0.000388	20.821256
1219.287859	-3.010200	3.574200	-10.758000	25.728859	0.000387	20.795644
1220.285821	-2.973300	3.576200	-10.632000	25.753907	0.000387	20.791880
1221.286667	-2.995200	3.576900	-10.713000	25.711192	0.000387	20.787382
1222.287612	-2.998000	3.575700	-10.719000	25.679362	0.000387	20.796663
1223.288869	-3.004200	3.574600	-10.738000	25.660253	0.000387	20.797385
1224.288086	-3.000700	3.573400	-10.722000	25.624021	0.000387	20.799875
1225.286719	-3.002700	3.574600	-10.732000	25.626755	0.000388	20.782707
1226.287689	-2.995200	3.573600	-10.703000	25.657786	0.000387	20.806761
1227.289278	-2.994500	3.573300	-10.700000	25.698033	0.000386	20.797872
1228.293232	-3.005000	3.572000	-10.732000	25.739698	0.000387	20.788513
1229.292717	-3.012400	3.570600	-10.755000	25.759270	0.000386	20.806750
1230.288102	-2.987700	3.572000	-10.671000	25.790720	0.000385	20.795193
1231.288456	-2.989500	3.572500	-10.679000	25.793676	0.000384	20.790101
1232.297600	-3.012400	3.572200	-10.760000	25.801077	0.000384	20.801328
1233.289741	-3.012900	3.571200	-10.759000	25.782861	0.000385	20.804367
1234.288089	-3.013100	3.568800	-10.751000	25.749670	0.000383	20.797107
1235.292387	-3.001300	3.569000	-10.711000	25.695153	0.000381	20.798299
1236.290265	-3.018000	3.570200	-10.774000	25.713264	0.000383	20.795153
1237.294023	-2.991200	3.570400	-10.679000	25.686229	0.000382	20.767050
1238.295267	-3.005600	3.568900	-10.726000	25.691024	0.000382	20.807428
1239.292655	-2.997300	3.570000	-10.700000	25.672634	0.000381	20.815035
1240.297844	-3.006500	3.568700	-10.729000	25.724065	0.000381	20.795096
1241.293986	-2.981300	3.569100	-10.640000	25.769378	0.000382	20.782290
1242.295019	-2.991000	3.568700	-10.672000	25.779739	0.000380	20.803602
1243.295640	-2.982700	3.568100	-10.641000	25.736085	0.000380	20.798634
1244.296686	-3.029800	3.566700	-10.805000	25.766645	0.000378	20.800407
1245.298718	-3.009100	3.567400	-10.734000	25.815088	0.000379	20.787902
1246.296280	-2.993600	3.567700	-10.679000	25.820030	0.000377	20.780538
1247.297759	-2.997200	3.566600	-10.689000	25.827008	0.000379	20.788022
1248.298018	-2.991300	3.566200	-10.666000	25.812671	0.000378	20.791638
1249.297786	-3.003100	3.565700	-10.707000	25.773390	0.000379	20.791535
1250.300056	-2.993800	3.565300	-10.673000	25.843073	0.000379	20.790884
1251.299630	-2.983800	3.565800	-10.639000	25.843570	0.000379	20.802763
1252.298980	-3.020600	3.564600	-10.766000	25.816887	0.000376	20.802037
1253.303620	-2.999500	3.565900	-10.695000	25.819818	0.000376	20.797395
1254.300108	-3.010900	3.564000	-10.730000	25.807094	0.000374	20.801683
1255.302484	-3.012000	3.564200	-10.735000	25.760588	0.000375	20.809022
1256.301478	-2.995200	3.565400	-10.679000	25.712065	0.000373	20.807224
1257.301842	-3.011800	3.562500	-10.729000	25.714890	0.000374	20.805320
1258.300802	-3.012900	3.563800	-10.736000	25.702591	0.000373	20.792493
1259.303603	-2.988800	3.562300	-10.646000	25.719209	0.000372	20.798279
1260.300047	-2.991700	3.563100	-10.659000	25.766118	0.000372	20.816473
1261.303423	-2.978200	3.562800	-10.610000	25.809545	0.000374	20.808413
1262.301299	-2.986700	3.562300	-10.639000	25.813593	0.000373	20.808211
1263.301004	-3.014800	3.562100	-10.738000	25.751312	0.000371	20.817248
1264.303129	-3.011600	3.561900	-10.726000	25.745869	0.000372	20.810833
1265.300324	-3.017800	3.559900	-10.742000	25.719853	0.000371	20.812676
1266.313769	-3.006200	3.559800	-10.700000	25.712895	0.000369	20.805214
1267.299994	-2.999600	3.560500	-10.679000	25.738736	0.000371	20.819789
1268.312586	-3.013900	3.559200	-10.726000	25.789044	0.000372	20.822432
1269.302052	-3.005300	3.559300	-10.696000	25.757396	0.000370	20.814824
1270.302077	-3.017700	3.559200	-10.739000	25.718088	0.000370	20.792886
1271.303601	-2.999600	3.558200	-10.673000	25.714583	0.000368	20.818288
1272.305590	-2.996700	3.558600	-10.662000	25.778507	0.000368	20.805684
1273.303241	-3.008800	3.558000	-10.704000	25.794954	0.000370	20.816515
1274.304440	-2.988700	3.557300	-10.630000	25.826876	0.000368	20.788838
1275.306161	-3.025300	3.557900	-10.762000	25.890325	0.000367	20.811324
1276.308541	-2.990300	3.558000	-10.639000	25.918936	0.000369	20.807351
1277.310597	-3.009100	3.555800	-10.699000	25.930665	0.000369	20.817237
1278.306996	-2.990500	3.557100	-10.636000	25.925544	0.000368	20.811144
1279.308903	-2.986900	3.556300	-10.622000	25.927058	0.000368	20.832579
1280.308379	-3.009300	3.556900	-10.703000	25.925716	0.000367	20.815584
1281.311040	-2.976600	3.557300	-10.587000	25.925392	0.000368	20.832328
1282.313364	-3.023300	3.554700	-10.746000	25.915157	0.000366	20.812563
1283.314325	-2.999900	3.556200	-10.668000	25.889021	0.000367	20.834196
1284.311327	-2.996900	3.555700	-10.655000	25.807586	0.000365	20.828255
1285.312548	-2.994500	3.554900	-10.645000	25.807758	0.000365	20.803773
1286.313934	-2.983500	3.556100	-10.609000	25.805645	0.000365	20.820616
1287.313930	-2.999500	3.554900	-10.662000	25.777643	0.000367	20.812877
1288.315391	-3.007200	3.553600	-10.685000	25.776276	0.000365	20.837108
1289.315093	-3.014600	3.553100	-10.711000	25.815652	0.000363	20.824030
1290.315442	-3.034600	3.552200	-10.778000	25.753438	0.000365	20.837401
1291.316442	-3.013100	3.552300	-10.703000	25.699349	0.000362	20.838073
1292.318348	-2.995900	3.553300	-10.645000	25.692120	0.000363	20.826546
1293.316241	-3.001900	3.551200	-10.659000	25.686204	0.000363	20.847630
1294.316373	-2.994400	3.550800	-10.632000	25.730255	0.000359	20.837822
1295.316883	-2.999700	3.552100	-10.654000	25.740562	0.000364	20.812615
1296.316984	-2.993000	3.552100	-10.630000	25.800762	0.000360	20.821401
1297.316745	-3.011300	3.549300	-10.688000	25.779073	0.000360	20.822374
1298.318935	-2.999100	3.549600	-10.646000	25.841253	0.000361	20.835048
1299.316196	-2.992500	3.549400	-10.621000	25.842944	0.000363	20.832005
1300.317337	-2.993500	3.550600	-10.628000	25.863540	0.000361	20.818082
1301.322233	-2.987300	3.550800	-10.607000	25.839070	0.000357	20.824794
1302.317641	-2.995200	3.548500	-10.628000	25.822130	0.000359	20.822476
1303.319503	-2.999200	3.548900	-10.643000	25.859883	0.000357	20.833848
1304.317445	-3.008000	3.547800	-10.670000	25.826350	0.000358	20.829086
1305.318381	-3.015200	3.547700	-10.695000	25.848062	0.000358	20.842362
1306.319786	-2.984400	3.549700	-10.593000	25.834050	0.000356	20.821648
1307.318567	-2.997600	3.547700	-10.633000	25.880856	0.000356	20.849226
1308.320282	-3.022400	3.547300	-10.721000	25.867862	0.000356	20.837596
1309.318348	-3.015700	3.548200	-10.700000	25.901673	0.000355	20.828888
1310.319692	-3.001800	3.546700	-10.645000	25.920975	0.000355	20.846381
1311.319692	-2.986600	3.547200	-10.594000	25.875273	0.000355	20.843618
1312.319448	-3.001700	3.545400	-10.642000	25.839397	0.000356	20.836502
1313.322719	-3.016500	3.545800	-10.695000	25.846654	0.000356	20.829093
1314.324948	-2.980600	3.544800	-10.565000	25.828294	0.000353	20.828669
1315.321559	-2.974600	3.545600	-10.544000	25.831898	0.000354	20.861211
1316.320457	-2.998300	3.544200	-10.625000	25.822930	0.000353	20.848883
1317.323144	-2.970400	3.545500	-10.530000	25.866654	0.000353	20.843494
1318.321304	-3.000000	3.543200	-10.628000	25.890923	0.000353	20.823305
1319.325316	-3.006700	3.543700	-10.654000	25.895893	0.000354	20.845840
1320.321456	-3.014200	3.543000	-10.679000	25.855625	0.000353	20.855174
1321.322457	-2.999600	3.543500	-10.628000	25.835579	0.000349	20.851158
1322.321517	-2.992700	3.543000	-10.602000	25.851381	0.000350	20.811557
1323.322325	-3.002200	3.542400	-10.635000	25.884520	0.000352	20.842476
1324.326763	-3.022500	3.541500	-10.703000	25.838567	0.000351	20.867435
1325.325997	-3.018000	3.540800	-10.685000	25.797501	0.000352	20.833297
1326.323748	-3.000400	3.540300	-10.622000	25.782251	0.000352	20.861600
1327.323795	-3.013400	3.541200	-10.670000	25.795415	0.000348	20.831677
1328.327783	-2.991700	3.541000	-10.593000	25.806572	0.000348	20.843831
1329.323653	-3.008900	3.539400	-10.649000	25.869525	0.000350	20.840215
1330.327939	-2.982400	3.540400	-10.558000	25.793756	0.000348	20.838071
1331.324893	-2.977600	3.540800	-10.542000	25.817530	0.000348	20.849149
1332.329081	-2.998100	3.539000	-10.609000	25.800020	0.000347	20.849103
1333.327086	-2.991900	3.538800	-10.587000	25.789832	0.000348	20.847405
1334.324164	-2.995400	3.539600	-10.602000	25.808315	0.000348	20.857436
1335.324415	-3.000500	3.539000	-10.618000	25.862896	0.000349	20.842090
1336.324039	-3.003400	3.537700	-10.624000	25.816266	0.000346	20.842664
1337.325408	-3.011500	3.538000	-10.654000	25.844992	0.000345	20.862036
1338.327001	-2.989300	3.538900	-10.578000	25.831801	0.000346	20.852104
1339.326038	-3.027500	3.535600	-10.703000	25.832322	0.000347	20.851205
1340.326636	-2.995500	3.535900	-10.591000	25.857289	0.000344	20.846889
1341.328286	-3.014800	3.535400	-10.658000	25.874285	0.000345	20.846418
1342.327233	-2.971400	3.536900	-10.509000	25.818091	0.000344	20.842600
1343.326153	-3.000000	3.534300	-10.602000	25.831579	0.000343	20.847614
1344.330173	-2.985300	3.537200	-10.559000	25.853992	0.000342	20.830776
1345.329477	-3.006000	3.534700	-10.624000	25.911949	0.000343	20.857228
1346.346300	-2.992000	3.536000	-10.579000	25.866014	0.000343	20.853757
1347.326822	-3.025900	3.534100	-10.692000	25.853126	0.000343	20.840810
1348.326664	-3.018400	3.533300	-10.665000	25.824735	0.000343	20.876300
1349.327467	-3.020700	3.534500	-10.676000	25.809729	0.000341	20.857908
1350.327790	-3.013300	3.534500	-10.650000	25.815471	0.000341	20.859408
1351.328032	-3.010500	3.534000	-10.638000	25.852662	0.000344	20.874955
1352.328265	-3.010300	3.532400	-10.632000	25.771100	0.000341	20.843288
1353.327495	-2.991800	3.532700	-10.568000	25.815619	0.000342	20.860979
1354.330023	-2.995900	3.531600	-10.580000	25.805731	0.000343	20.844883
1355.328285	-2.996000	3.531200	-10.579000	25.854352	0.000340	20.863852
1356.333285	-2.989200	3.531300	-10.555000	25.830703	0.000339	20.865225
1357.328750	-3.019800	3.531200	-10.662000	25.793363	0.000342	20.866598
1358.327417	-2.999000	3.532000	-10.592000	25.854307	0.000341	20.854324
1359.328335	-3.003900	3.530300	-10.603000	25.801835	0.000341	20.860410
1360.328226	-2.993000	3.531500	-10.569000	25.810402	0.000338	20.878023
1361.330840	-3.003700	3.530500	-10.604000	25.818131	0.000340	20.856864
1362.327981	-2.987900	3.530200	-10.547000	25.819994	0.000340	20.864900
1363.327034	-3.011400	3.527700	-10.622000	25.851196	0.000339	20.871113
1364.328017	-2.997600	3.529000	-10.578000	25.885624	0.000339	20.861602
1365.327266	-2.997500	3.528600	-10.576000	25.901503	0.000339	20.871863
1366.352974	-2.971400	3.529800	-10.487000	25.876040	0.000339	20.858612
1367.331289	-3.000900	3.529100	-10.589000	25.874345	0.000337	20.853117
1368.328841	-3.016300	3.528400	-10.642000	25.890495	0.000339	20.856064
1369.328372	-3.004800	3.528600	-10.601000	25.886744	0.000339	20.870313
1370.331699	-3.000800	3.527000	-10.584000	25.884627	0.000340	20.870083
1371.328285	-3.007200	3.526400	-10.604000	25.939031	0.000339	20.868788
1372.331114	-2.993800	3.527800	-10.561000	25.950031	0.000338	20.894061
1373.330907	-3.005600	3.526900	-10.600000	25.937665	0.000337	20.870260
1374.330245	-3.017300	3.524800	-10.635000	25.891953	0.000335	20.877442
1375.332336	-3.003500	3.525500	-10.588000	25.883256	0.000338	20.881033
1376.329927	-3.003900	3.524500	-10.585000	25.882059	0.000335	20.882201
1377.330090	-2.994000	3.525300	-10.553000	25.905601	0.000334	20.886885
1378.329089	-3.028200	3.524100	-10.670000	25.884784	0.000336	20.877353
1379.329334	-3.003700	3.524400	-10.585000	25.902149	0.000335	20.895744
1380.331281	-2.990100	3.523800	-10.535000	25.933423	0.000335	20.902032
1381.329441	-2.990600	3.524200	-10.538000	25.928548	0.000333	20.882911
1382.330388	-3.009700	3.521500	-10.598000	25.893770	0.000332	20.878319
1383.331460	-3.018700	3.522500	-10.632000	25.901346	0.000335	20.870757
1384.330855	-3.026100	3.520700	-10.653000	25.861346	0.000334	20.882730
1385.330216	-2.998300	3.522000	-10.559000	25.816103	0.000333	20.888490
1386.333292	-3.010000	3.520900	-10.597000	25.758360	0.000333	20.895920
1387.331741	-2.978600	3.523000	-10.493000	25.771158	0.000331	20.882224
1388.334704	-2.972700	3.523600	-10.473000	25.805239	0.000333	20.885638
1389.330773	-3.015700	3.521300	-10.618000	25.770724	0.000332	20.904546
1390.331224	-3.012800	3.519200	-10.601000	25.754351	0.000333	20.904221
1391.331812	-2.992900	3.520700	-10.536000	25.793153	0.000329	20.896730
1392.333087	-2.993300	3.520700	-10.537000	25.801403	0.000330	20.890319
1393.335333	-3.011800	3.518800	-10.597000	25.859256	0.000330	20.888691
1394.334496	-3.003600	3.518800	-10.568000	25.855551	0.000327	20.903459
1395.333512	-3.010600	3.517700	-10.590000	25.842658	0.000327	20.890984
1396.333441	-3.007700	3.518100	-10.581000	25.827029	0.000328	20.910369
1397.335311	-3.000400	3.517400	-10.552000	25.842922	0.000328	20.885085
1398.334096	-2.997000	3.518000	-10.543000	25.864261	0.000331	20.879495
1399.336139	-3.014300	3.517500	-10.601000	25.866096	0.000328	20.890821
1400.333020	-2.993500	3.517700	-10.529000	25.895701	0.000326	20.886423
1401.335881	-2.978500	3.518100	-10.477000	25.914954	0.000327	20.903866
1402.336681	-2.987000	3.516200	-10.502000	25.919994	0.000326	20.895654
1403.335259	-3.010500	3.515600	-10.583000	25.968283	0.000326	20.910026
1404.337536	-3.000700	3.516100	-10.550000	26.006528	0.000326	20.906250
1405.351107	-3.003600	3.516200	-10.561000	25.988221	0.000325	20.910616
1406.335676	-3.011300	3.514400	-10.582000	26.004263	0.000325	20.914880
1407.335955	-3.010600	3.514600	-10.580000	26.014371	0.000325	20.934042
1408.336860	-3.011900	3.513900	-10.583000	26.007116	0.000323	20.916323
1409.335562	-3.004700	3.514400	-10.559000	26.014290	0.000323	20.902669
1410.338100	-3.015000	3.513500	-10.593000	25.992010	0.000324	20.903519
1411.336306	-3.016600	3.512600	-10.595000	26.018062	0.000324	20.908829
1412.337564	-3.016700	3.513200	-10.597000	26.020865	0.000322	20.889836
1413.340666	-3.004100	3.513200	-10.553000	26.016864	0.000323	20.904782
1414.337444	-3.003800	3.512600	-10.550000	25.971878	0.000323	20.922171
1415.341801	-3.001400	3.511600	-10.539000	25.933699	0.000321	20.912265
1416.338852	-3.002700	3.511300	-10.542000	25.977415	0.000319	20.897390
1417.339439	-3.013400	3.511500	-10.580000	25.929817	0.000319	20.907891
1418.340920	-2.996700	3.511100	-10.521000	25.899607	0.000319	20.896509
1419.341823	-2.989900	3.511700	-10.499000	25.907433	0.000321	20.911008
1420.342876	-2.991900	3.510700	-10.503000	25.888402	0.000320	20.894737
1421.341437	-3.019200	3.509600	-10.595000	25.872675	0.000320	20.919712
1422.343085	-2.990200	3.508500	-10.490000	25.891678	0.000318	20.908457
1423.342235	-2.985800	3.509100	-10.477000	25.893908	0.000317	20.897422
1424.344255	-2.989400	3.508500	-10.488000	25.898377	0.000319	20.907601
1425.345820	-2.997000	3.507700	-10.511000	25.904017	0.000319	20.907576
1426.345417	-2.997900	3.508000	-10.516000	25.903492	0.000319	20.884766
1427.343995	-3.004000	3.508700	-10.540000	25.916087	0.000316	20.899315
1428.345957	-3.000400	3.508200	-10.525000	25.918817	0.000316	20.890678
1429.347639	-3.003900	3.506500	-10.532000	25.894767	0.000317	20.891174
1430.347345	-2.987200	3.507500	-10.476000	25.882668	0.000317	20.911260
1431.358656	-3.012000	3.508100	-10.565000	25.928077	0.000315	20.888127
1432.347512	-2.996300	3.506800	-10.507000	25.939626	0.000316	20.896410
1433.348470	-3.019400	3.506200	-10.584000	25.922212	0.000315	20.890770
1434.351109	-3.013100	3.504700	-10.558000	25.920596	0.000316	20.877293
1435.349710	-3.001100	3.505900	-10.521000	25.906757	0.000315	20.906536
1436.353246	-2.998200	3.504800	-10.508000	25.894031	0.000317	20.898968
1437.349082	-2.989100	3.504200	-10.474000	25.875599	0.000315	20.893728
1438.349804	-2.983900	3.504000	-10.455000	25.871523	0.000314	20.898169
1439.350932	-2.995000	3.503700	-10.493000	25.860142	0.000312	20.890056
1440.351884	-3.021100	3.502700	-10.581000	25.842227	0.000315	20.918049
1441.354777	-3.002400	3.503400	-10.518000	25.840262	0.000313	20.884310
1442.352878	-2.990700	3.503900	-10.478000	25.893668	0.000311	20.885803
1443.351351	-3.009800	3.501800	-10.539000	25.975270	0.000314	20.876745
1444.352818	-3.010300	3.502300	-10.542000	26.002762	0.000309	20.878288
1445.351381	-3.034400	3.501700	-10.625000	26.024324	0.000311	20.867234
1446.352741	-3.006100	3.502100	-10.527000	26.058122	0.000311	20.877485
1447.355688	-2.991500	3.501300	-10.472000	26.086261	0.000309	20.885368
1448.377377	-2.994200	3.502300	-10.485000	26.025634	0.000309	20.881352
1449.354995	-3.014900	3.501000	-10.554000	25.959259	0.000310	20.887685
1450.357244	-3.029300	3.499400	-10.598000	25.931385	0.000308	20.888131
1451.354497	-3.020900	3.498800	-10.569000	25.937918	0.000310	20.873833
1452.356218	-3.003300	3.498400	-10.506000	25.972516	0.000308	20.886780
1453.356319	-3.015000	3.497900	-10.545000	25.934463	0.000307	20.880793
1454.356804	-2.985500	3.499100	-10.445000	25.944572	0.000305	20.871509
1455.355613	-3.014900	3.498900	-10.548000	25.974157	0.000304	20.871360
1456.356790	-3.006200	3.497700	-10.513000	25.994923	0.000304	20.890799
1457.356020	-3.019100	3.498600	-10.561000	26.029543	0.000306	20.868211
1458.357137	-3.020200	3.496200	-10.559000	25.980409	0.000303	20.879063
1459.356141	-3.002400	3.498600	-10.504000	25.947150	0.000304	20.867935
1460.356210	-3.003000	3.497000	-10.500000	25.949883	0.000301	20.856931
1461.362275	-3.002200	3.495800	-10.494000	25.922608	0.000304	20.866513
1462.357301	-3.005700	3.498300	-10.514000	25.917740	0.000301	20.858778
1463.361545	-2.994400	3.497100	-10.470000	25.897244	0.000304	20.879912
1464.359652	-3.019300	3.495700	-10.554000	25.892274	0.000303	20.862592
1465.357508	-2.988600	3.495700	-10.446000	25.879407	0.000302	20.855831
1466.359587	-3.006300	3.494500	-10.504000	25.852277	0.000299	20.863665
1467.361145	-2.985400	3.495000	-10.433000	25.841150	0.000301	20.849642
1468.360143	-2.986900	3.495100	-10.439000	25.870760	0.000302	20.853308
1469.359739	-2.987200	3.494500	-10.438000	25.830889	0.000304	20.873473
1470.358835	-2.979500	3.494600	-10.411000	25.848353	0.000300	20.858775
1471.359481	-2.989700	3.493300	-10.443000	25.874190	0.000304	20.858651
1472.359796	-2.988600	3.493600	-10.440000	25.864130	0.000303	20.849494
1473.360027	-3.019500	3.492700	-10.546000	25.836377	0.000300	20.874718
1474.361738	-3.009400	3.493100	-10.511000	25.861594	0.000302	20.844101
1475.361433	-2.978600	3.493500	-10.404000	25.856899	0.000300	20.872100
1476.360513	-2.998000	3.491000	-10.465000	25.842115	0.000299	20.839233
1477.362842	-3.000700	3.492100	-10.477000	25.810839	0.000299	20.850962
1478.361578	-2.995900	3.490700	-10.457000	25.870013	0.000300	20.856351
1479.364629	-3.017600	3.490500	-10.532000	25.922301	0.000299	20.846292
1480.363271	-3.009100	3.490100	-10.501000	25.912812	0.000299	20.852880
1481.365447	-3.016900	3.488800	-10.525000	25.899896	0.000298	20.839431
1482.365560	-3.009400	3.489900	-10.502000	25.922499	0.000300	20.859291
1483.365626	-3.028900	3.488000	-10.563000	25.975232	0.000300	20.855371
1484.369009	-3.010500	3.487800	-10.499000	26.004566	0.000297	20.860187
1485.369138	-3.007400	3.488600	-10.490000	25.963331	0.000298	20.855269
1486.366256	-3.016000	3.488000	-10.518000	26.005556	0.000298	20.843638
1487.366285	-2.976000	3.489400	-10.384000	25.946309	0.000297	20.845754
1488.368295	-3.016800	3.486700	-10.518000	25.965413	0.000297	20.831757
1489.367473	-2.999700	3.486600	-10.458000	25.961338	0.000296	20.860852
1490.372421	-2.995400	3.486100	-10.442000	25.891655	0.000296	20.857229
1491.368168	-2.994800	3.486200	-10.439000	25.859932	0.000296	20.847647
1492.369632	-2.983500	3.485800	-10.399000	25.928987	0.000293	20.857275
1493.374670	-3.011500	3.484700	-10.492000	25.966195	0.000293	20.851034
1494.371589	-2.981200	3.485600	-10.390000	25.979804	0.000296	20.843844
1495.382593	-3.004000	3.485900	-10.471000	26.006332	0.000293	20.851529
1496.371365	-2.999600	3.485700	-10.455000	25.987500	0.000295	20.852524
1497.372277	-2.981000	3.484400	-10.387000	25.952797	0.000295	20.835678
1498.371538	-2.985900	3.483600	-10.401000	25.936701	0.000291	20.837525
1499.372570	-2.963100	3.486000	-10.328000	25.931383	0.000294	20.830760
1500.373508	-2.999100	3.482600	-10.443000	25.953861	0.000293	20.841488
1501.372540	-2.997500	3.482600	-10.437000	25.988807	0.000292	20.844828
1502.371048	-2.994300	3.484000	-10.431000	25.958602	0.000291	20.846251
1503.372400	-2.976700	3.483000	-10.366000	25.966671	0.000291	20.849142
1504.372918	-3.017000	3.480800	-10.501000	25.960881	0.000289	20.844747
1505.371311	-3.014700	3.481900	-10.496000	25.968355	0.000290	20.837083
1506.375337	-2.996100	3.482100	-10.431000	25.992597	0.000290	20.841524
1507.373056	-3.012300	3.481100	-10.486000	25.973846	0.000290	20.844496
1508.374057	-2.986600	3.481300	-10.396000	25.941450	0.000289	20.829019
1509.375226	-3.001700	3.481100	-10.449000	25.886771	0.000291	20.832884
1510.375301	-2.995300	3.479800	-10.422000	25.862424	0.000289	20.852995
1511.377521	-2.993900	3.479300	-10.416000	25.908602	0.000290	20.827314
1512.379705	-2.994900	3.480600	-10.423000	25.918986	0.000290	20.849599
1513.376059	-3.000300	3.478600	-10.435000	25.905323	0.000288	20.818805
1514.375280	-2.988600	3.478500	-10.395000	25.851488	0.000289	20.835371
1515.377284	-2.992600	3.479000	-10.411000	25.803588	0.000288	20.832774
1516.379382	-3.009300	3.478500	-10.467000	25.823216	0.000286	20.842533
1517.378586	-2.987600	3.479400	-10.394000	25.875729	0.000288	20.842654
1518.376596	-3.008100	3.477700	-10.461000	25.857966	0.000288	20.826232
1519.376142	-3.016900	3.477100	-10.489000	25.858533	0.000286	20.824431
1520.377553	-3.000500	3.477200	-10.433000	25.846810	0.000285	20.832095
1521.376949	-3.016700	3.474500	-10.480000	25.906152	0.000288	20.852352
1522.377177	-2.999000	3.475100	-10.421000	25.934199	0.000286	20.835485
1523.376418	-2.989700	3.476100	-10.392000	25.921751	0.000286	20.839576
1524.377416	-2.984500	3.477500	-10.378000	25.919336	0.000284	20.818657
1525.379086	-2.995500	3.475500	-10.410000	25.944896	0.000285	20.836749
1526.376142	-2.989200	3.475300	-10.386000	25.918614	0.000283	20.828363
1527.380142	-2.996400	3.474100	-10.409000	25.922787	0.000285	20.825918
1528.377082	-3.004700	3.474900	-10.441000	25.957509	0.000286	20.830929
1529.378525	-3.021700	3.473300	-10.495000	26.017792	0.000284	20.837914
1530.380281	-3.001600	3.473900	-10.427000	26.049805	0.000285	20.834043
1531.379836	-2.979800	3.474100	-10.351000	26.037507	0.000286	20.810308
1532.379835	-2.978000	3.474400	-10.346000	26.047414	0.000282	20.836382
1533.380382	-3.014700	3.473100	-10.470000	26.060924	0.000285	20.834783
1534.380252	-2.987200	3.473300	-10.375000	26.045576	0.000284	20.841173
1535.379213	-2.993400	3.472900	-10.394000	26.076765	0.000283	20.834104
1536.382861	-3.008700	3.471500	-10.444000	26.034518	0.000283	20.839546
1537.378993	-2.990300	3.472300	-10.382000	26.036353	0.000281	20.833329
1538.382347	-2.998100	3.470800	-10.404000	26.001177	0.000281	20.809367
1539.379346	-3.003600	3.471500	-10.427000	26.039573	0.000281	20.822814
1540.379783	-2.978300	3.472100	-10.340000	26.081348	0.000281	20.842027
1541.379073	-2.994400	3.470100	-10.390000	26.062841	0.000282	20.826752
1542.380681	-3.014900	3.470600	-10.463000	26.041602	0.000281	20.814421
1543.383359	-2.983900	3.469800	-10.353000	26.033357	0.000280	20.804241
1544.380853	-2.995300	3.470600	-10.395000	25.979504	0.000279	20.834059
1545.381933	-2.986100	3.469800	-10.360000	25.982709	0.000280	20.833960
1546.381870	-3.017500	3.469700	-10.469000	26.006197	0.000278	20.814411
1547.381598	-3.002700	3.469400	-10.417000	26.043153	0.000280	20.826411
1548.383641	-3.016700	3.468300	-10.462000	26.078303	0.000278	20.835175
1549.383795	-2.984300	3.468200	-10.349000	26.088481	0.000280	20.815530
1550.382794	-3.006500	3.467000	-10.422000	26.069425	0.000279	20.821514
1551.383795	-2.997100	3.466700	-10.389000	26.022480	0.000279	20.825081
1552.383725	-3.005500	3.467200	-10.419000	26.029957	0.000277	20.821213
1553.382570	-2.994700	3.466100	-10.379000	25.993420	0.000276	20.827653
1554.387547	-2.997600	3.466000	-10.389000	25.941746	0.000278	20.817937
1555.383545	-3.005600	3.466700	-10.419000	25.894048	0.000277	20.829289
1556.382626	-3.004300	3.465900	-10.412000	25.934490	0.000276	20.807804
1557.382252	-3.006700	3.464500	-10.415000	26.008482	0.000274	20.839940
1558.382049	-2.988900	3.463900	-10.352000	26.003861	0.000275	20.820599
1559.382578	-3.010800	3.465300	-10.433000	26.010289	0.000273	20.822316
1560.386164	-3.024100	3.463500	-10.473000	26.016248	0.000275	20.836363
1561.383839	-3.027900	3.463700	-10.486000	26.065850	0.000276	20.823611
1562.383818	-2.997300	3.463200	-10.380000	26.024293	0.000274	20.815048
1563.382685	-3.000100	3.463000	-10.389000	26.031890	0.000272	20.838802
1564.387531	-2.974600	3.463700	-10.302000	25.979329	0.000273	20.801642
1565.396864	-2.999300	3.462000	-10.383000	25.915311	0.000272	20.823149
1566.384212	-2.987300	3.461800	-10.340000	25.956971	0.000271	20.828491
1567.384080	-3.011900	3.461600	-10.425000	25.993808	0.000273	20.819982
1568.385079	-2.966200	3.462200	-10.269000	25.940322	0.000272	20.818404
1569.385081	-2.988200	3.461500	-10.343000	25.989804	0.000272	20.801260
1570.385863	-2.984000	3.461600	-10.329000	26.026834	0.000269	20.804799
1571.384862	-3.001300	3.461200	-10.388000	26.016476	0.000270	20.807669
1572.384396	-2.991900	3.460700	-10.353000	26.014187	0.000270	20.819594
1573.387397	-2.983800	3.458900	-10.319000	26.002830	0.000273	20.803442
1574.384398	-3.013200	3.459100	-10.422000	25.958244	0.000269	20.809383
1575.389497	-2.988200	3.459900	-10.338000	26.005313	0.000271	20.833911
1576.385497	-3.017700	3.457300	-10.431000	26.032287	0.000271	20.796528
1577.384679	-3.035400	3.458100	-10.495000	26.046664	0.000271	20.818085
1578.385884	-3.009100	3.457400	-10.403000	26.051111	0.000269	20.828717
1579.386708	-2.996200	3.458800	-10.362000	26.069112	0.000266	20.790853
1580.394559	-3.002500	3.456400	-10.377000	26.033669	0.000268	20.814511
1581.389111	-2.998200	3.458100	-10.367000	26.009202	0.000267	20.810318
1582.387349	-3.003300	3.456300	-10.379000	26.005970	0.000267	20.808019
1583.388350	-2.969800	3.458400	-10.268000	25.951297	0.000266	20.802403
1584.391348	-3.003200	3.456700	-10.380000	25.926851	0.000268	20.788749
1585.389393	-3.012400	3.455200	-10.408000	25.936956	0.000267	20.802220
1586.394717	-3.017100	3.455700	-10.425000	25.959833	0.000265	20.811927
1587.389682	-3.026500	3.454500	-10.455000	25.963830	0.000267	20.802667
1588.390748	-2.970600	3.456300	-10.265000	25.963235	0.000265	20.813448
1589.390793	-2.975700	3.455600	-10.282000	25.973664	0.000266	20.798322
1590.390018	-3.002800	3.452300	-10.366000	25.979226	0.000264	20.814341
1591.397573	-2.975000	3.454900	-10.277000	25.988187	0.000266	20.802955
1592.391030	-3.016500	3.453800	-10.417000	26.040127	0.000264	20.812940
1593.390028	-2.998100	3.453000	-10.352000	26.104205	0.000264	20.809993
1594.391316	-3.021100	3.453700	-10.433000	26.112820	0.000263	20.805372
1595.391772	-2.985700	3.453900	-10.312000	26.094789	0.000263	20.808118
1596.391019	-2.990800	3.452900	-10.326000	26.090166	0.000264	20.796834
1597.393315	-2.983100	3.452000	-10.297000	26.093540	0.000264	20.811604
1598.391316	-2.973400	3.452300	-10.264000	26.052903	0.000260	20.795430
1599.391314	-2.988300	3.452000	-10.314000	26.029853	0.000261	20.813522
1600.394981	-2.991600	3.451900	-10.326000	26.011716	0.000259	20.800990
1601.391749	-2.985700	3.450200	-10.300000	25.999862	0.000260	20.788132
1602.393898	-2.971500	3.451600	-10.256000	26.020081	0.000261	20.801808
1603.392900	-2.971600	3.450300	-10.251000	26.069436	0.000258	20.787385
1604.392949	-2.974600	3.450700	-10.262000	26.099807	0.000259	20.811738
1605.391138	-3.009400	3.448800	-10.378000	26.051521	0.000259	20.806370
1606.394406	-2.999100	3.448500	-10.342000	26.069103	0.000260	20.795111
1607.392742	-2.983000	3.449200	-10.288000	26.085496	0.000260	20.775073
1608.396700	-2.994200	3.448400	-10.324000	26.106753	0.000257	20.796432
1609.394732	-2.988800	3.448000	-10.304000	26.069100	0.000257	20.793686
1610.394699	-2.987600	3.446700	-10.296000	26.062912	0.000258	20.800271
1611.397872	-3.004800	3.448000	-10.360000	25.987626	0.000258	20.794331
1612.395540	-3.006700	3.446700	-10.362000	26.012410	0.000257	20.807852
1613.399557	-3.009800	3.447300	-10.375000	26.052475	0.000255	20.795948
1614.395197	-2.991200	3.446900	-10.310000	26.122387	0.000255	20.809296
1615.396578	-2.988800	3.447600	-10.303000	26.107583	0.000255	20.804852
1616.397437	-2.999400	3.448300	-10.342000	26.095338	0.000255	20.787807
1617.398709	-3.019700	3.445400	-10.403000	26.024101	0.000255	20.795890
1618.398379	-3.030400	3.444800	-10.438000	26.004724	0.000254	20.792069
1619.399382	-2.994800	3.445300	-10.317000	26.032096	0.000253	20.802974
1620.398379	-3.017400	3.444100	-10.390000	26.069603	0.000254	20.803200
1621.398019	-3.013000	3.443900	-10.376000	26.025437	0.000250	20.780636
1622.398606	-2.995400	3.444000	-10.315000	25.986513	0.000254	20.794161
1623.398609	-2.997800	3.444400	-10.325000	26.034672	0.000252	20.802243
1624.401645	-3.003000	3.444500	-10.342000	26.059835	0.000254	20.780584
1625.399913	-3.009600	3.443000	-10.362000	26.149917	0.000250	20.793336
1626.398709	-2.999100	3.442100	-10.323000	26.147333	0.000253	20.785524
1627.400928	-3.004200	3.442900	-10.343000	26.140307	0.000250	20.793637
1628.401263	-3.020100	3.441800	-10.393000	26.171697	0.000250	20.775867
1629.405829	-3.000400	3.441700	-10.326000	26.172767	0.000250	20.795908
1630.401187	-3.010400	3.440800	-10.358000	26.168271	0.000250	20.772424
1631.401704	-3.004100	3.440000	-10.333000	26.142592	0.000251	20.795459
1632.402724	-2.981200	3.441500	-10.258000	26.167154	0.000248	20.774621
1633.403956	-3.007300	3.439800	-10.343000	26.177313	0.000249	20.799054
1634.406553	-2.993300	3.439900	-10.296000	26.148653	0.000249	20.785902
1635.406070	-2.996800	3.440300	-10.309000	26.181085	0.000248	20.775817
1636.404132	-2.990100	3.439400	-10.282000	26.191790	0.000251	20.789419
1637.404961	-2.992000	3.438300	-10.287000	26.212255	0.000247	20.797656
1638.404405	-2.989200	3.438200	-10.277000	26.192712	0.000248	20.786078
1639.404001	-3.013700	3.436700	-10.357000	26.162436	0.000251	20.765612
1640.405021	-3.009900	3.437500	-10.344000	26.133004	0.000247	20.798152
1641.404074	-2.975800	3.439100	-10.233000	26.067934	0.000247	20.781135
1642.404137	-3.011000	3.437700	-10.350000	26.041855	0.000249	20.778640
1643.407138	-2.996500	3.437300	-10.299000	26.065377	0.000247	20.800851
1644.405322	-2.994300	3.437500	-10.292000	26.077792	0.000248	20.783453
1645.408180	-3.010300	3.435700	-10.342000	26.087307	0.000248	20.782108
1646.406251	-2.990300	3.436300	-10.274000	26.100443	0.000247	20.785350
1647.405315	-2.999100	3.435000	-10.300000	26.094679	0.000247	20.798524
1648.407955	-2.979700	3.435800	-10.236000	26.075281	0.000245	20.784724
1649.406959	-2.966100	3.436300	-10.192000	26.069045	0.000247	20.796950
1650.412029	-3.011800	3.433700	-10.340000	26.116161	0.000245	20.791186
1651.406437	-2.986400	3.435900	-10.260000	26.129371	0.000246	20.788812
1652.407940	-2.990100	3.435000	-10.271000	26.181995	0.000246	20.792853
1653.414940	-2.988900	3.433800	-10.261000	26.171463	0.000244	20.801236
1654.409299	-3.000200	3.433200	-10.299000	26.196296	0.000242	20.793473
1655.414311	-3.001700	3.432200	-10.303000	26.194631	0.000243	20.788480
1656.410682	-2.993300	3.432500	-10.274000	26.202005	0.000244	20.801580
1657.409292	-2.989800	3.432400	-10.261000	26.229224	0.000240	20.798587
1658.410294	-2.971000	3.432400	-10.197000	26.213252	0.000241	20.809089
1659.412625	-2.994500	3.432600	-10.278000	26.168577	0.000241	20.800706
1660.412625	-2.977400	3.432100	-10.218000	26.116868	0.000242	20.782887
1661.413881	-3.010000	3.430600	-10.324000	26.098263	0.000242	20.781737
1662.414420	-3.007200	3.430600	-10.315000	26.105314	0.000240	20.791667
1663.414506	-2.986000	3.432100	-10.247000	26.112470	0.000240	20.819245
1664.414711	-3.011600	3.429700	-10.327000	26.123021	0.000239	20.792863
1665.415084	-2.990200	3.429100	-10.253000	26.111199	0.000239	20.805166
1666.415496	-3.014100	3.429600	-10.336000	26.140181	0.000241	20.784976
1667.416715	-2.997600	3.428800	-10.277000	26.172167	0.000241	20.806685
1668.415439	-3.028400	3.428000	-10.380000	26.219899	0.000240	20.799173
1669.416447	-3.017200	3.427600	-10.341000	26.256798	0.000240	20.778880
1670.415436	-3.012600	3.427700	-10.325000	26.238942	0.000240	20.810249
1671.418957	-2.995300	3.428000	-10.266000	26.160213	0.000239	20.794673
1672.418686	-2.984400	3.426500	-10.225000	26.127456	0.000239	20.816760
1673.417916	-2.992800	3.427100	-10.256000	26.101848	0.000238	20.800512
1674.418899	-2.989200	3.427400	-10.243000	26.113294	0.000237	20.793995
1675.417898	-2.994900	3.427800	-10.265000	26.119253	0.000237	20.815629
1676.421915	-3.010000	3.424600	-10.307000	26.066175	0.000235	20.801179
1677.421916	-3.003200	3.425200	-10.286000	26.044340	0.000236	20.815276
1678.420171	-3.001400	3.425900	-10.282000	26.002286	0.000236	20.822810
1679.420396	-3.000600	3.424300	-10.275000	25.984476	0.000236	20.800649
1680.420998	-3.010900	3.424800	-10.311000	26.043190	0.000236	20.805586
1681.423998	-2.985100	3.426000	-10.226000	26.061845	0.000235	20.805837
1682.421998	-3.015400	3.423700	-10.323000	26.056053	0.000234	20.815664
1683.421057	-3.029300	3.423100	-10.369000	26.067576	0.000232	20.791207
1684.420993	-3.015500	3.423100	-10.321000	26.020458	0.000234	20.811670
1685.424634	-3.011400	3.424500	-10.311000	26.017577	0.000232	20.823948
1686.421165	-2.998600	3.422600	-10.261000	26.062857	0.000233	20.809699
1687.424403	-3.003700	3.422500	-10.280000	26.052672	0.000232	20.817958
1688.422617	-2.986300	3.422700	-10.220000	26.033397	0.000234	20.824670
1689.421617	-3.007100	3.421800	-10.289000	26.061537	0.000232	20.810743
1690.425031	-3.045800	3.420400	-10.417000	26.073338	0.000232	20.813117
1691.423320	-3.011900	3.421600	-10.305000	26.101199	0.000228	20.825464
1692.422912	-2.982700	3.421100	-10.203000	26.139474	0.000229	20.807973
1693.425720	-2.985900	3.421300	-10.214000	26.097747	0.000229	20.797814
1694.423721	-2.985900	3.420700	-10.213000	26.087020	0.000230	20.800786
1695.423197	-2.994900	3.419300	-10.239000	26.152138	0.000229	20.795567
1696.427614	-2.990400	3.420600	-10.228000	26.187975	0.000232	20.805974
1697.423709	-2.971000	3.420500	-10.161000	26.220980	0.000229	20.809742
1698.424114	-2.988000	3.419100	-10.215000	26.205680	0.000227	20.812386
1699.425718	-2.973800	3.419200	-10.167000	26.187031	0.000227	20.811664
1700.423675	-2.984600	3.419900	-10.206000	26.114409	0.000231	20.833521
1701.426280	-3.000200	3.418800	-10.256000	26.149578	0.000229	20.808168
1702.430968	-3.016200	3.417400	-10.307000	26.163633	0.000228	20.802850
1703.424100	-3.001900	3.417100	-10.257000	26.195374	0.000227	20.817676
1704.428098	-2.972000	3.417900	-10.157000	26.230414	0.000228	20.795515
1705.431306	-2.999000	3.418100	-10.250000	26.178905	0.000228	20.822938
1706.426655	-2.978600	3.417400	-10.178000	26.130897	0.000228	20.847243
1707.428177	-2.993300	3.416700	-10.226000	26.083357	0.000227	20.810856
1708.430296	-2.988300	3.415200	-10.205000	26.091505	0.000226	20.805293
1709.426260	-3.008200	3.414500	-10.270000	26.111578	0.000226	20.811710
1710.429265	-3.024900	3.415200	-10.330000	26.110554	0.000226	20.831544
1711.429489	-3.020600	3.413600	-10.310000	26.163183	0.000227	20.800976
1712.427489	-3.004000	3.414500	-10.256000	26.224373	0.000225	20.826902
1713.432494	-3.015400	3.413300	-10.292000	26.215062	0.000226	20.813753
1714.431487	-3.008700	3.414000	-10.270000	26.197080	0.000225	20.826028
1715.427136	-3.014300	3.413000	-10.286000	26.185305	0.000225	20.810878
1716.431647	-3.008800	3.412800	-10.268000	26.161514	0.000224	20.810679
1717.428744	-3.007800	3.413100	-10.265000	26.129004	0.000227	20.839177
1718.428940	-2.998000	3.412200	-10.230000	26.143630	0.000226	20.805984
1719.428939	-2.994100	3.412400	-10.216000	26.170603	0.000225	20.812226
1720.432189	-2.998900	3.411100	-10.228000	26.218433	0.000223	20.800071
1721.428392	-3.000400	3.410500	-10.232000	26.135259	0.000223	20.829341
1722.428398	-3.002600	3.410600	-10.240000	26.136326	0.000222	20.824250
1723.432627	-3.009100	3.410100	-10.261000	26.134436	0.000222	20.839894
1724.428211	-2.995000	3.409200	-10.209000	26.163967	0.000223	20.848704
1725.430212	-2.984400	3.409300	-10.174000	26.211523	0.000222	20.832481
1726.435235	-2.999100	3.410000	-10.226000	26.218055	0.000222	20.831933
1727.431290	-3.014100	3.408500	-10.273000	26.241622	0.000221	20.816261
1728.432889	-2.992600	3.410100	-10.204000	26.205660	0.000222	20.841762
1729.435860	-2.985000	3.409000	-10.174000	26.228901	0.000220	20.832401
1730.433742	-3.007300	3.408400	-10.249000	26.265109	0.000221	20.827535
1731.432990	-2.996800	3.406900	-10.208000	26.260863	0.000219	20.819949
1732.436038	-3.015200	3.407400	-10.272000	26.273401	0.000220	20.840610
1733.433119	-2.998900	3.406800	-10.215000	26.288469	0.000221	20.830623
1734.435845	-3.021100	3.406200	-10.289000	26.332794	0.000218	20.815899
1735.437873	-3.004000	3.407200	-10.235000	26.310620	0.000217	20.859520
1736.432873	-2.965400	3.407400	-10.103000	26.268255	0.000218	20.828800
1737.434874	-3.011100	3.406100	-10.255000	26.201849	0.000216	20.834614
1738.434723	-3.005800	3.405400	-10.235000	26.206540	0.000215	20.832216
1739.434809	-3.000200	3.406000	-10.217000	26.214833	0.000218	20.833437
1740.434366	-2.984000	3.405400	-10.161000	26.243838	0.000215	20.843143
1741.435423	-3.003300	3.404300	-10.223000	26.256105	0.000216	20.843143
1742.433423	-2.986500	3.406300	-10.172000	26.302541	0.000217	20.834807
1743.433438	-2.996200	3.404700	-10.200000	26.276962	0.000217	20.836601
1744.435536	-2.994400	3.404800	-10.194000	26.290891	0.000217	20.839220
1745.434502	-2.986200	3.403800	-10.164000	26.196124	0.000214	20.835499
1746.435335	-2.961300	3.403000	-10.075000	26.191828	0.000215	20.825492
1747.447803	-2.995500	3.404000	-10.195000	26.220684	0.000215	20.864920
1748.435801	-2.984400	3.403200	-10.156000	26.235133	0.000213	20.837241
1749.436234	-3.001000	3.403000	-10.212000	26.223211	0.000213	20.836640
1750.437668	-2.977800	3.402100	-10.130000	26.241761	0.000214	20.854806
1751.437693	-2.973600	3.403200	-10.120000	26.198699	0.000213	20.838561
1752.437666	-2.986800	3.401100	-10.157000	26.193482	0.000214	20.878834
1753.438908	-3.033900	3.401000	-10.316000	26.155532	0.000214	20.841651
1754.436934	-2.994800	3.400400	-10.183000	26.157592	0.000215	20.865057
1755.437921	-2.998200	3.399500	-10.191000	26.191070	0.000214	20.841326
1756.438922	-2.983600	3.400000	-10.143000	26.175767	0.000213	20.844441
1757.437310	-2.984100	3.400300	-10.146000	26.196900	0.000212	20.841020
1758.439547	-2.967300	3.400100	-10.088000	26.261391	0.000213	20.848454
1759.442459	-2.996200	3.399700	-10.186000	26.325533	0.000212	20.855067
1760.441617	-2.965800	3.400000	-10.082000	26.332804	0.000213	20.839617
1761.441826	-3.006100	3.397900	-10.213000	26.299904	0.000213	20.844959
1762.443874	-3.007300	3.396600	-10.214000	26.271568	0.000211	20.856785
1763.441874	-3.004600	3.397800	-10.208000	26.245143	0.000213	20.855834
1764.440903	-2.980200	3.397500	-10.124000	26.256859	0.000211	20.842004
1765.443140	-3.007800	3.396900	-10.217000	26.229816	0.000211	20.853708
1766.442364	-3.005800	3.397400	-10.211000	26.230486	0.000209	20.845846
1767.441366	-2.989600	3.398300	-10.158000	26.261920	0.000208	20.848512
1768.445971	-2.989100	3.397900	-10.156000	26.246525	0.000209	20.866705
1769.444754	-3.019900	3.396300	-10.255000	26.298522	0.000208	20.865854
1770.445986	-2.995300	3.395600	-10.170000	26.307955	0.000207	20.857316
1771.445986	-2.991400	3.396200	-10.158000	26.355307	0.000209	20.860335
1772.445987	-3.003900	3.393800	-10.194000	26.352175	0.000209	20.865247
1773.445985	-3.016600	3.393500	-10.236000	26.334321	0.000205	20.863899
1774.446346	-3.011000	3.394700	-10.220000	26.387531	0.000205	20.872331
1775.445345	-2.976400	3.394300	-10.102000	26.387627	0.000206	20.867213
1776.454873	-3.002500	3.391800	-10.184000	26.363243	0.000208	20.859301
1777.451869	-2.998200	3.392400	-10.170000	26.384868	0.000204	20.850216
1778.447423	-2.987200	3.393000	-10.135000	26.377813	0.000205	20.868255
1779.446465	-2.996200	3.392700	-10.164000	26.405499	0.000206	20.855778
1780.446353	-3.008900	3.391700	-10.205000	26.410585	0.000205	20.860415
1781.446965	-3.027300	3.390500	-10.263000	26.388258	0.000204	20.855994
1782.445605	-3.009500	3.390900	-10.204000	26.311955	0.000205	20.885516
1783.447626	-2.969700	3.392800	-10.075000	26.261492	0.000202	20.873211
1784.445346	-2.986400	3.390900	-10.126000	26.260521	0.000203	20.871287
1785.447451	-2.979200	3.391600	-10.103000	26.289349	0.000201	20.868489
1786.450420	-3.005300	3.390800	-10.189000	26.334417	0.000203	20.871582
1787.448419	-2.981400	3.390800	-10.108000	26.309113	0.000201	20.878393
1788.454341	-3.011500	3.389600	-10.208000	26.298580	0.000202	20.869231
1789.451662	-3.014400	3.390100	-10.218000	26.304787	0.000201	20.868831
1790.451663	-3.028900	3.389400	-10.265000	26.274119	0.000201	20.884003
1791.451662	-3.009500	3.387800	-10.195000	26.268381	0.000200	20.890089
1792.453658	-2.996800	3.387800	-10.152000	26.286579	0.000201	20.891782
1793.452655	-2.990100	3.388400	-10.131000	26.317022	0.000203	20.882548
1794.452905	-3.006600	3.388500	-10.187000	26.292137	0.000200	20.880299
1795.454114	-2.974100	3.387400	-10.074000	26.305347	0.000200	20.869868
1796.453114	-2.986900	3.387900	-10.119000	26.272841	0.000199	20.878452
1797.454566	-2.998600	3.387000	-10.155000	26.310833	0.000200	20.874433
1798.454565	-3.010300	3.385500	-10.191000	26.321386	0.000199	20.891201
1799.455564	-3.008400	3.386100	-10.186000	26.379860	0.000199	20.870312
1800.455637	-2.994700	3.386300	-10.140000	26.418120	0.000198	20.882686
1801.456669	-3.011200	3.385000	-10.192000	26.473536	0.000197	20.883383
1802.454637	-3.025300	3.385300	-10.241000	26.458016	0.000197	20.891016
1803.455974	-3.018200	3.384900	-10.214000	26.380025	0.000198	20.895132
1804.457028	-2.991600	3.385600	-10.127000	26.371755	0.000197	20.888717
1805.455817	-3.008600	3.385000	-10.183000	26.417764	0.000194	20.901767
1806.457887	-3.009200	3.384200	-10.183000	26.388462	0.000196	20.890336
1807.457884	-3.004100	3.383600	-10.164000	26.407479	0.000196	20.899016
1808.457419	-3.002500	3.383600	-10.158000	26.382771	0.000196	20.884142
1809.456576	-2.995000	3.383200	-10.132000	26.378251	0.000194	20.886711
1810.461577	-2.992700	3.382200	-10.121000	26.368020	0.000193	20.904876
1811.458642	-2.955600	3.384100	-10.001000	26.352224	0.000194	20.879520
1812.459643	-2.988200	3.382300	-10.106000	26.375689	0.000194	20.905472
1813.463644	-2.995600	3.381700	-10.129000	26.411442	0.000192	20.908689
1814.459270	-2.994600	3.381200	-10.124000	26.399772	0.000193	20.899805
1815.460166	-2.982100	3.383000	-10.087000	26.377645	0.000193	20.899378
1816.462158	-2.984800	3.380700	-10.089000	26.354652	0.000192	20.902821
1817.461173	-2.983100	3.380600	-10.083000	26.348269	0.000193	20.906837
1818.461193	-3.000900	3.379200	-10.140000	26.326141	0.000192	20.889816
1819.464355	-3.005300	3.379900	-10.157000	26.373021	0.000191	20.901842
1820.460357	-2.994500	3.380600	-10.122000	26.425239	0.000190	20.905486
1821.461613	-2.991800	3.378600	-10.107000	26.459326	0.000191	20.921253
1822.464831	-2.987300	3.379500	-10.095000	26.464515	0.000192	20.920305
1823.460921	-3.007000	3.378700	-10.159000	26.450832	0.000189	20.905131
1824.462334	-2.992900	3.379000	-10.112000	26.417165	0.000190	20.900690
1825.462561	-2.996900	3.378100	-10.122000	26.428185	0.000187	20.898491
1826.467108	-3.019800	3.378500	-10.201000	26.360572	0.000187	20.904977
1827.462108	-3.022600	3.376500	-10.205000	26.337479	0.000186	20.907372
1828.463176	-3.009000	3.377600	-10.163000	26.336187	0.000188	20.914608
1829.462413	-2.982700	3.377600	-10.074000	26.367747	0.000188	20.907921
1830.464642	-2.976800	3.377800	-10.053000	26.364393	0.000186	20.917825
1831.465639	-2.986200	3.376600	-10.082000	26.344178	0.000187	20.925957
1832.463877	-3.005900	3.375900	-10.146000	26.410476	0.000186	20.921940
1833.471138	-3.019200	3.374400	-10.187000	26.446803	0.000186	20.919098
1834.464133	-3.006200	3.375700	-10.147000	26.487096	0.000185	20.925932
1835.463172	-3.013300	3.374800	-10.168000	26.519518	0.000183	20.933865
1836.463210	-3.016000	3.374900	-10.178000	26.521729	0.000183	20.914752
1837.475460	-3.021800	3.374300	-10.195000	26.522919	0.000184	20.930645
1838.464452	-3.015100	3.373100	-10.169000	26.566935	0.000185	20.915149
1839.464455	-3.007200	3.373900	-10.145000	26.573413	0.000184	20.926401
1840.465914	-3.004000	3.373900	-10.134000	26.550498	0.000181	20.923281
1841.466916	-3.023500	3.372200	-10.195000	26.517802	0.000182	20.947785
1842.466917	-2.990000	3.374100	-10.088000	26.561443	0.000183	20.911051
1843.468988	-3.003000	3.372800	-10.127000	26.525270	0.000182	20.932534
1844.465876	-2.997100	3.372400	-10.106000	26.457838	0.000180	20.925922
1845.466943	-2.998100	3.373100	-10.112000	26.451681	0.000180	20.933482
1846.469941	-2.993700	3.371900	-10.094000	26.481225	0.000183	20.931884
1847.474941	-3.009100	3.370600	-10.141000	26.510941	0.000181	20.926666
1848.467003	-3.012400	3.370500	-10.152000	26.512010	0.000180	20.923000
1849.470227	-2.989000	3.371000	-10.076000	26.468337	0.000179	20.917983
1850.466418	-2.967900	3.372000	-10.007000	26.434023	0.000180	20.933279
1851.467644	-3.007400	3.369500	-10.132000	26.430622	0.000180	20.923697
1852.471900	-3.002200	3.369500	-10.115000	26.442740	0.000179	20.928290
1853.467353	-2.965500	3.370200	-9.992900	26.418381	0.000179	20.934152
1854.470352	-2.989500	3.368900	-10.071000	26.402391	0.000179	20.933254
1855.472611	-2.988700	3.368500	-10.067000	26.472158	0.000178	20.920401
1856.469425	-3.001400	3.367800	-10.107000	26.536238	0.000179	20.926490
1857.470446	-2.985000	3.367000	-10.050000	26.501210	0.000177	20.938695
1858.474520	-2.992300	3.366700	-10.073000	26.459223	0.000179	20.935848
1859.471487	-2.992000	3.367400	-10.074000	26.418305	0.000176	20.937868
1860.473962	-2.966200	3.368600	-9.990100	26.358640	0.000176	20.925792
1861.474763	-2.990200	3.367500	-10.068000	26.362908	0.000175	20.936245
1862.471794	-2.966900	3.367600	-9.990100	26.384859	0.000176	20.914687
1863.475821	-2.977400	3.367000	-10.024000	26.460192	0.000176	20.909797
1864.474818	-2.996900	3.365100	-10.083000	26.492840	0.000176	20.922223
1865.473818	-3.001800	3.365500	-10.101000	26.534126	0.000176	20.917730
1866.475353	-2.991000	3.365800	-10.066000	26.549344	0.000174	20.928759
1867.479583	-2.991300	3.364600	-10.064000	26.528167	0.000176	20.927386
1868.472318	-3.024000	3.363900	-10.171000	26.438113	0.000172	20.916529
1869.475956	-2.981500	3.365000	-10.032000	26.423242	0.000173	20.909169
1870.477592	-2.985200	3.365400	-10.046000	26.370555	0.000173	20.916432
1871.472682	-3.015500	3.363100	-10.140000	26.421279	0.000173	20.903877
1872.475716	-2.986200	3.364300	-10.045000	26.456536	0.000173	20.914183
1873.477159	-3.024700	3.361700	-10.168000	26.463141	0.000172	20.922243
1874.473174	-2.982000	3.362700	-10.027000	26.396722	0.000173	20.911438
1875.475582	-2.983700	3.362300	-10.031000	26.398162	0.000172	20.895817
1876.476575	-2.993900	3.362300	-10.066000	26.399575	0.000171	20.903400
1877.472764	-3.017600	3.361500	-10.143000	26.444167	0.000173	20.915975
1878.475173	-3.022000	3.361200	-10.157000	26.512445	0.000173	20.896412
1879.476199	-3.021600	3.360000	-10.152000	26.525951	0.000171	20.898135
1880.473199	-2.997100	3.361400	-10.073000	26.478456	0.000171	20.919145
1881.477910	-2.998500	3.360100	-10.074000	26.481037	0.000171	20.897559
1882.477372	-3.003500	3.359600	-10.089000	26.518550	0.000170	20.903971
1883.474065	-2.999400	3.360400	-10.077000	26.561502	0.000169	20.896412
1884.477003	-3.011400	3.358900	-10.114000	26.523294	0.000170	20.891197
1885.477388	-3.023200	3.359200	-10.154000	26.523467	0.000169	20.888052
1886.473969	-3.014000	3.359200	-10.123000	26.543772	0.000169	20.894238
1887.476973	-3.001300	3.356800	-10.073000	26.522869	0.000169	20.902149
1888.477611	-2.991600	3.357700	-10.044000	26.552391	0.000168	20.908116
1889.474135	-2.993800	3.358900	-10.054000	26.561996	0.000166	20.899754
1890.477120	-3.002500	3.356600	-10.077000	26.529871	0.000168	20.893066
1891.478074	-2.994700	3.358000	-10.056000	26.563263	0.000169	20.888226
1892.475605	-2.976300	3.357000	-9.991100	26.510232	0.000170	20.891344
1893.475603	-2.995200	3.357200	-10.054000	26.529720	0.000165	20.901923
1894.476605	-2.979600	3.357200	-10.002000	26.525452	0.000167	20.890048
1895.476602	-3.000000	3.356600	-10.069000	26.567829	0.000166	20.892816
1896.476779	-3.002900	3.355900	-10.077000	26.615518	0.000168	20.894762
1897.476838	-2.979800	3.355600	-9.997400	26.628796	0.000167	20.871602
1898.477165	-3.004500	3.354400	-10.076000	26.636916	0.000166	20.877393
1899.478333	-2.989200	3.354700	-10.027000	26.608218	0.000164	20.896906
1900.477015	-3.010600	3.354700	-10.098000	26.589151	0.000163	20.900972
1901.478492	-2.978700	3.355600	-9.994400	26.502756	0.000163	20.903268
1902.479793	-2.968400	3.355400	-9.958600	26.490987	0.000161	20.878165
1903.479616	-2.962000	3.354000	-9.933500	26.480782	0.000162	20.875968
1904.478198	-2.991800	3.353200	-10.031000	26.469063	0.000163	20.886947
1905.479430	-2.979500	3.353700	-9.991700	26.441751	0.000162	20.885101
1906.478662	-3.000300	3.352200	-10.057000	26.445923	0.000162	20.865113
1907.478874	-3.008900	3.351500	-10.083000	26.425361	0.000160	20.881903
1908.478065	-2.999300	3.351700	-10.052000	26.471022	0.000161	20.886545
1909.479839	-3.010500	3.352100	-10.090000	26.507893	0.000160	20.887096
1910.479422	-3.018200	3.351000	-10.113000	26.514818	0.000160	20.873670
1911.479247	-3.017400	3.349400	-10.105000	26.488053	0.000160	20.860992
1912.481320	-2.999000	3.350400	-10.048000	26.518567	0.000160	20.883127
1913.480840	-3.004900	3.351000	-10.069000	26.535225	0.000160	20.870001
1914.481664	-2.994600	3.350000	-10.031000	26.537685	0.000160	20.882430
1915.482146	-2.978300	3.349300	-9.974200	26.548608	0.000159	20.862591
1916.483385	-2.986100	3.350200	-10.003000	26.563305	0.000158	20.877837
1917.483621	-3.033200	3.347900	-10.154000	26.567997	0.000156	20.862167
1918.483622	-2.997700	3.348300	-10.037000	26.529295	0.000158	20.869730
1919.485137	-3.011400	3.348800	-10.083000	26.495606	0.000156	20.854360
1920.483753	-2.995600	3.347300	-10.027000	26.509160	0.000155	20.874620
1921.483538	-3.011400	3.347300	-10.079000	26.487858	0.000155	20.847047
1922.485538	-2.984100	3.347700	-9.988600	26.508120	0.000156	20.877368
1923.484635	-2.997900	3.348500	-10.037000	26.542283	0.000154	20.869035
1924.484865	-3.000300	3.346800	-10.041000	26.537366	0.000155	20.862196
1925.486867	-2.988100	3.347400	-10.002000	26.585605	0.000154	20.868012
1926.487948	-3.009100	3.345900	-10.067000	26.622198	0.000155	20.831306
1927.486016	-3.006400	3.345400	-10.057000	26.639353	0.000154	20.839542
1928.487119	-2.999500	3.345100	-10.033000	26.669564	0.000153	20.847153
1929.487120	-3.008700	3.343700	-10.059000	26.658844	0.000150	20.848705
1930.487849	-3.004400	3.344600	-10.048000	26.626697	0.000151	20.847208
1931.488474	-3.001800	3.345300	-10.041000	26.641368	0.000151	20.850577
1932.487966	-3.012500	3.343000	-10.069000	26.638519	0.000151	20.861462
1933.488261	-2.997900	3.342900	-10.021000	26.632735	0.000152	20.851855
1934.489352	-3.019700	3.342100	-10.091000	26.617667	0.000151	20.857095
1935.487849	-3.018700	3.342100	-10.088000	26.634820	0.000149	20.846364
1936.487852	-2.984700	3.343400	-9.978000	26.648503	0.000151	20.846843
1937.489942	-2.989000	3.342300	-9.989500	26.591381	0.000149	20.851061
1938.488140	-2.974500	3.342200	-9.940200	26.636363	0.000147	20.847916
1939.489204	-2.995300	3.340700	-10.006000	26.695618	0.000149	20.840156
1940.492203	-2.990400	3.342100	-9.993800	26.725926	0.000149	20.835064
1941.490202	-2.998100	3.341400	-10.017000	26.666922	0.000149	20.842601
1942.490284	-3.016200	3.341400	-10.077000	26.631797	0.000147	20.840007
1943.492368	-3.000100	3.339700	-10.018000	26.611567	0.000148	20.854757
1944.490368	-2.987300	3.341800	-9.981400	26.644559	0.000148	20.842405
1945.489369	-2.991000	3.340200	-9.989700	26.636514	0.000147	20.857076
1946.492999	-3.008700	3.339400	-10.046000	26.683432	0.000146	20.840233
1947.489215	-3.002200	3.339800	-10.026000	26.736027	0.000146	20.853754
1948.490213	-2.985100	3.339400	-9.967400	26.756706	0.000146	20.847519
1949.494450	-2.987500	3.339100	-9.974500	26.774304	0.000147	20.831073
1950.490667	-3.008500	3.338700	-10.044000	26.782571	0.000145	20.840806
1951.493666	-3.006000	3.338300	-10.033000	26.786439	0.000145	20.826679
1952.494819	-3.017800	3.337100	-10.070000	26.822552	0.000143	20.849710
1953.492050	-2.980600	3.337600	-9.947100	26.842136	0.000143	20.835737
1954.492103	-3.010800	3.335500	-10.042000	26.746652	0.000144	20.836936
1955.497849	-3.025300	3.335900	-10.091000	26.724259	0.000142	20.833389
1956.492845	-3.008200	3.337000	-10.038000	26.712643	0.000144	20.839255
1957.493338	-2.998800	3.336100	-10.004000	26.716416	0.000142	20.822660
1958.495327	-3.013200	3.335600	-10.050000	26.704727	0.000142	20.840305
1959.494326	-3.005200	3.336300	-10.026000	26.757025	0.000141	20.822709
1960.493474	-2.997100	3.336000	-9.997400	26.780432	0.000143	20.830596
1961.494737	-3.000400	3.334800	-10.004000	26.731311	0.000142	20.841427
1962.495028	-3.001300	3.334200	-10.006000	26.699364	0.000141	20.828275
1963.495028	-3.000300	3.333300	-9.998800	26.722276	0.000138	20.831395
1964.495394	-3.021000	3.334300	-10.072000	26.753230	0.000140	20.828851
1965.494466	-3.017600	3.333900	-10.059000	26.771822	0.000140	20.828104
1966.496465	-3.017200	3.332700	-10.055000	26.741689	0.000141	20.814877
1967.496096	-2.989200	3.333400	-9.961800	26.747724	0.000139	20.826160
1968.497330	-2.987100	3.332200	-9.952900	26.721338	0.000139	20.840883
1969.496399	-2.983500	3.332000	-9.940700	26.747921	0.000139	20.836316
1970.499397	-2.997300	3.332300	-9.987300	26.718362	0.000137	20.838840
1971.497484	-2.980800	3.332300	-9.931500	26.713819	0.000135	20.829531
1972.498945	-3.004200	3.330800	-10.005000	26.662262	0.000137	20.811365
1973.501936	-2.996000	3.331300	-9.979700	26.654694	0.000137	20.819403
1974.497935	-2.989000	3.331700	-9.957400	26.683415	0.000135	20.829311
1975.499934	-2.984000	3.331000	-9.938300	26.719857	0.000138	20.819954
1976.503004	-3.007000	3.329400	-10.011000	26.756494	0.000137	20.833556
1977.498756	-2.996300	3.329500	-9.975100	26.746220	0.000136	20.823226
1978.500761	-2.982600	3.330500	-9.933300	26.696505	0.000136	20.834884
1979.499757	-2.994700	3.328700	-9.967800	26.691067	0.000134	20.831788
1980.500997	-3.001000	3.328100	-9.986000	26.661181	0.000134	20.799847
1981.499995	-2.994700	3.327900	-9.964300	26.705540	0.000136	20.816941
1982.501774	-3.023400	3.328000	-10.061000	26.733741	0.000132	20.793137
1983.501300	-3.005900	3.327300	-10.001000	26.809622	0.000132	20.807788
1984.502375	-3.007500	3.327400	-10.007000	26.808059	0.000132	20.816648
1985.503373	-2.971700	3.328000	-9.888600	26.844623	0.000132	20.822117
1986.503590	-2.950200	3.327400	-9.815800	26.871277	0.000132	20.827581
1987.502884	-2.996600	3.327000	-9.968600	26.844697	0.000130	20.808441
1988.503890	-3.001800	3.326400	-9.983700	26.804514	0.000132	20.811187
1989.502891	-2.984600	3.325500	-9.924300	26.769619	0.000129	20.818776
1990.502123	-2.994300	3.325200	-9.955900	26.759419	0.000131	20.806624
1991.503354	-2.990400	3.327100	-9.948500	26.760288	0.000129	20.833576
1992.505549	-2.999500	3.325400	-9.973900	26.781016	0.000131	20.815062
1993.503548	-3.009100	3.325200	-10.005000	26.790917	0.000131	20.788507
1994.504550	-3.003700	3.323800	-9.983000	26.800028	0.000129	20.818056
1995.504466	-3.016800	3.322800	-10.023000	26.800204	0.000129	20.812069
1996.504464	-3.021500	3.322300	-10.037000	26.806282	0.000130	20.820077
1997.505955	-2.995600	3.324300	-9.957400	26.782532	0.000129	20.788612
1998.505176	-3.000100	3.324300	-9.972100	26.843391	0.000132	20.786266
1999.506178	-3.030200	3.321800	-10.065000	26.841977	0.000129	20.776309
2000.505334	-2.999600	3.322000	-9.963600	26.870920	0.000128	20.800670
2001.506557	-3.013900	3.321400	-10.010000	26.818650	0.000128	20.808330
2002.506770	-3.008700	3.321200	-9.991600	26.810238	0.000127	20.796080
2003.506655	-2.987800	3.321100	-9.922600	26.817756	0.000126	20.803639
2004.507630	-3.005500	3.320400	-9.978000	26.850221	0.000125	20.795978
2005.507869	-2.978600	3.321200	-9.891600	26.888219	0.000125	20.791038
2006.507867	-3.014700	3.319000	-10.005000	26.865760	0.000125	20.813973
2007.508853	-2.983300	3.321200	-9.907500	26.863699	0.000126	20.785822
2008.508053	-2.997000	3.319200	-9.946500	26.860025	0.000125	20.780231
2009.508124	-2.993000	3.320300	-9.935800	26.847888	0.000124	20.811175
2010.508362	-3.002200	3.318100	-9.960900	26.870399	0.000125	20.784499
2011.507368	-2.998000	3.319200	-9.949000	26.844288	0.000122	20.799021
2012.508477	-2.986500	3.318200	-9.908800	26.818178	0.000124	20.806908
2013.510746	-3.009300	3.317200	-9.981900	26.798073	0.000124	20.773417
2014.509941	-3.001400	3.317400	-9.956500	26.758982	0.000124	20.783900
2015.509988	-3.006400	3.317700	-9.973200	26.791745	0.000121	20.792659
2016.511181	-2.985300	3.317100	-9.902100	26.784098	0.000123	20.799195
2017.510183	-3.000100	3.315500	-9.946200	26.781989	0.000123	20.798971
2018.510183	-2.982200	3.316400	-9.889000	26.881637	0.000120	20.804808
2019.513185	-3.022000	3.316300	-10.020000	26.891715	0.000121	20.774164
2020.512410	-3.006800	3.315700	-9.969100	26.893972	0.000120	20.792554
2021.512409	-3.026500	3.313700	-10.028000	26.874090	0.000121	20.777778
2022.514646	-3.006500	3.313600	-9.960000	26.917349	0.000119	20.807052
2023.511642	-3.000100	3.314100	-9.941800	26.964773	0.000121	20.770815
2024.512681	-2.997500	3.315100	-9.935500	26.945265	0.000120	20.809519
2025.515682	-3.009700	3.313000	-9.970000	26.874857	0.000116	20.786137
2026.512682	-3.008900	3.312900	-9.967700	26.787885	0.000118	20.789252
2027.518921	-2.993800	3.312800	-9.916900	26.783764	0.000116	20.787005
2028.516118	-3.006100	3.312400	-9.956900	26.784853	0.000117	20.793316
2029.514347	-3.018800	3.312300	-9.997800	26.779890	0.000114	20.771730
2030.516347	-3.006600	3.312300	-9.958200	26.860678	0.000116	20.782311
2031.517605	-2.992100	3.311500	-9.907300	26.884528	0.000116	20.781635
2032.515604	-2.996500	3.312400	-9.924200	26.855439	0.000117	20.780836
2033.518856	-3.016000	3.310800	-9.984700	26.791623	0.000116	20.777837
2034.519906	-2.991800	3.312200	-9.907900	26.803141	0.000114	20.799849
2035.516241	-2.966400	3.311400	-9.822100	26.833517	0.000116	20.786769
2036.518253	-2.995200	3.310800	-9.914900	26.945844	0.000114	20.790661
2037.518310	-2.978400	3.310400	-9.859000	26.918345	0.000113	20.772018
2038.517314	-3.025700	3.309200	-10.011000	26.900770	0.000115	20.792277
2039.521393	-2.988200	3.309900	-9.889900	26.903925	0.000111	20.769371
2040.519649	-3.016000	3.308200	-9.976800	26.921394	0.000110	20.753746
2041.519616	-3.023900	3.307500	-10.001000	26.911193	0.000111	20.797069
2042.520771	-3.021600	3.307000	-9.991200	26.924791	0.000113	20.757162
2043.522772	-3.011000	3.307400	-9.958100	27.010483	0.000112	20.765573
2044.520773	-2.973700	3.309500	-9.840000	27.030755	0.000110	20.782640
2045.520962	-3.021000	3.306000	-9.986600	27.060905	0.000109	20.796366
2046.522185	-2.995100	3.307000	-9.904000	27.097405	0.000110	20.780443
2047.520613	-3.006700	3.306800	-9.941600	27.076883	0.000107	20.764071
2048.522624	-2.980800	3.306600	-9.855300	27.118842	0.000110	20.768338
2049.522545	-3.010500	3.304400	-9.947300	27.135916	0.000107	20.762750
2050.521902	-3.021600	3.305000	-9.985900	27.123505	0.000108	20.769709
2051.519969	-3.010800	3.305200	-9.950900	27.086830	0.000107	20.761273
2052.523971	-3.004100	3.303900	-9.925000	27.000102	0.000108	20.788799
2053.520971	-3.000900	3.303700	-9.913200	26.988688	0.000106	20.790596
2054.520555	-2.993000	3.305100	-9.891300	26.938085	0.000108	20.775272
2055.522531	-3.007900	3.304400	-9.938400	26.957864	0.000106	20.782834
2056.521333	-2.997500	3.302700	-9.899200	26.992284	0.000107	20.764815
2057.523239	-3.009300	3.302000	-9.936000	27.036084	0.000107	20.778042
2058.525327	-3.003100	3.302900	-9.918400	27.023699	0.000106	20.758949
2059.524543	-3.009900	3.301600	-9.936700	26.982136	0.000106	20.778792
2060.524951	-2.996800	3.301200	-9.892100	27.010001	0.000107	20.777891
2061.525186	-3.033100	3.301900	-10.013000	27.020100	0.000103	20.761968
2062.524612	-2.997000	3.302400	-9.896800	26.957862	0.000103	20.751062
2063.525752	-2.997700	3.300200	-9.892700	26.895422	0.000104	20.746122
2064.526714	-3.019900	3.299400	-9.963500	26.912469	0.000103	20.762315
2065.524681	-3.007600	3.299500	-9.922300	26.926788	0.000103	20.764386
2066.524469	-3.006400	3.299600	-9.919300	26.929417	0.000104	20.765607
2067.525949	-3.013200	3.299200	-9.940600	26.918572	0.000103	20.775565
2068.526054	-3.022700	3.298200	-9.968400	26.954975	0.000102	20.767126
2069.525285	-2.997300	3.299800	-9.890000	26.944577	0.000103	20.774688
2070.528734	-3.016800	3.298100	-9.949000	26.921571	9.981582E-5	20.764356
2071.527697	-2.990600	3.299300	-9.865700	26.910652	0.000101	20.770446
2072.527695	-2.993300	3.297400	-9.869400	26.989788	0.000101	20.768469
2073.529696	-2.972900	3.298700	-9.805800	26.957923	9.895776E-5	20.769616
2074.527717	-2.993200	3.298700	-9.872800	26.970405	9.971681E-5	20.763676
2075.528697	-2.997600	3.296800	-9.881400	26.991102	9.974981E-5	20.785912
2076.530696	-2.970500	3.296800	-9.792000	26.966386	9.981582E-5	20.755367
2077.530697	-2.986900	3.295500	-9.841500	26.959234	9.806669E-5	20.763348
2078.529696	-2.997900	3.296200	-9.881000	26.936801	9.849572E-5	20.767816
2079.530729	-2.995100	3.295200	-9.868800	26.953079	9.829771E-5	20.750520
2080.529908	-2.982300	3.294100	-9.823400	26.988714	9.707662E-5	20.756009
2081.529325	-2.997900	3.295400	-9.878700	27.050255	9.750565E-5	20.762422
2082.530137	-2.992300	3.294700	-9.857900	27.043405	9.743965E-5	20.783508
2083.531137	-3.017800	3.292500	-9.934200	27.060576	9.701061E-5	20.768060
2084.531641	-2.980900	3.293400	-9.817000	27.086778	9.704362E-5	20.768333
2085.534886	-3.000800	3.292700	-9.878500	27.109803	9.595454E-5	20.760669
2086.531003	-2.996600	3.292100	-9.863700	27.147370	9.631756E-5	20.768581
2087.532982	-2.993800	3.292000	-9.854400	27.120496	9.661458E-5	20.764311
2088.534046	-2.970000	3.292700	-9.778700	27.186096	9.664759E-5	20.782875
2089.532050	-3.007300	3.290500	-9.894700	27.131285	9.479945E-5	20.778955
2090.536050	-3.021600	3.291200	-9.944100	27.106498	9.258829E-5	20.786269
2091.537303	-3.014900	3.291500	-9.922900	27.073765	9.559151E-5	20.782746
2092.534339	-2.982800	3.291100	-9.814800	27.112449	9.423841E-5	20.767124
2093.533902	-2.994300	3.291000	-9.853200	27.135276	9.235727E-5	20.783444
2094.536899	-3.014500	3.289700	-9.916600	27.119442	9.034413E-5	20.751871
2095.533900	-3.001300	3.289400	-9.871000	27.066416	9.318233E-5	20.765873
2096.533161	-3.006100	3.288600	-9.885200	27.127654	9.225827E-5	20.786209
2097.535839	-3.013100	3.287900	-9.905300	27.133928	9.338035E-5	20.774028
2098.534819	-3.009200	3.287600	-9.891600	27.167153	9.209325E-5	20.778995
2099.534400	-3.033600	3.287600	-9.972700	27.168266	9.341335E-5	20.796236
2100.535075	-2.995000	3.286800	-9.842600	27.155908	9.004711E-5	20.780487
2101.535511	-2.982000	3.287600	-9.802800	27.181513	9.080616E-5	20.766886
2102.535347	-2.982600	3.286700	-9.801800	27.169999	9.050914E-5	20.789918
2103.535178	-3.001500	3.287500	-9.866200	27.163646	9.070715E-5	20.784951
2104.534176	-3.007000	3.284900	-9.877100	27.145134	9.202725E-5	20.763013
2105.535097	-3.000400	3.285500	-9.857700	27.166346	9.133420E-5	20.786244
2106.537252	-3.002800	3.285800	-9.865700	27.221452	8.895803E-5	20.789040
2107.537326	-3.007100	3.284500	-9.876000	27.222070	9.057514E-5	20.783022
2108.537770	-2.997600	3.285100	-9.846100	27.168849	9.163122E-5	20.799193
2109.538938	-3.010900	3.284700	-9.889300	27.151451	8.829798E-5	20.791651
2110.537937	-3.000700	3.284100	-9.854100	27.121130	8.641684E-5	20.781545
2111.538004	-3.004100	3.282600	-9.860300	27.172739	8.928805E-5	20.781294
2112.541060	-2.985200	3.283700	-9.801800	27.186556	8.819897E-5	20.781915
2113.538258	-3.022100	3.282300	-9.918700	27.229156	8.687887E-5	20.801529
2114.539117	-2.999000	3.284200	-9.848000	27.241607	8.717590E-5	20.797932
2115.541848	-2.985900	3.283000	-9.801300	27.214490	8.608682E-5	20.785830
2116.540217	-2.989800	3.282100	-9.811200	27.239396	8.565778E-5	20.781483
2117.540488	-2.984400	3.282200	-9.794700	27.225451	8.532776E-5	20.806338
2118.542252	-2.964400	3.281000	-9.725100	27.187339	8.503074E-5	20.791237
2119.541482	-2.985000	3.280700	-9.792000	27.204233	8.691188E-5	20.783100
2120.541053	-3.012300	3.278600	-9.875100	27.223213	8.413967E-5	20.786069
2121.544096	-2.982600	3.280400	-9.783100	27.269730	8.512975E-5	20.782124
2122.542161	-2.996100	3.278500	-9.821000	27.358618	8.390866E-5	20.798519
2123.543162	-3.004900	3.279400	-9.853800	27.388161	8.202752E-5	20.793152
2124.544784	-2.986200	3.279800	-9.792700	27.384786	8.278657E-5	20.799713
2125.543788	-3.015500	3.277500	-9.881900	27.388233	8.410667E-5	20.798439
2126.544789	-3.008100	3.277900	-9.859600	27.369575	8.384265E-5	20.783937
2127.545727	-3.013300	3.278800	-9.878800	27.377166	8.173050E-5	20.779719
2128.544724	-3.006100	3.278000	-9.853100	27.388053	8.328161E-5	20.796362
2129.543985	-3.021500	3.276200	-9.898300	27.401522	8.252256E-5	20.784307
2130.546208	-3.025900	3.276200	-9.912500	27.370612	8.037740E-5	20.813903
2131.544277	-3.009900	3.275900	-9.859200	27.316379	7.994837E-5	20.801548
2132.544416	-2.996200	3.276600	-9.816200	27.287898	8.103745E-5	20.807037
2133.546478	-3.009800	3.274700	-9.854900	27.306254	8.008038E-5	20.797053
2134.546597	-3.014600	3.274500	-9.870700	27.294815	7.899130E-5	20.797874
2135.547254	-3.004000	3.274900	-9.837000	27.335377	7.918931E-5	20.803115
2136.547225	-2.963100	3.274600	-9.701300	27.325948	8.014638E-5	20.810225
2137.554262	-3.010600	3.274200	-9.856900	27.359066	7.724217E-5	20.789960
2138.549981	-3.013400	3.273600	-9.863800	27.326466	7.839725E-5	20.815488
2139.552948	-3.015000	3.272100	-9.864800	27.280941	8.011338E-5	20.797195
2140.549153	-3.011800	3.272100	-9.853500	27.328473	7.800122E-5	20.800911
2141.548153	-3.010100	3.273000	-9.851200	27.300438	7.615309E-5	20.813013
2142.552358	-3.004900	3.271200	-9.828000	27.340526	7.714316E-5	20.800708
2143.549359	-2.999400	3.271900	-9.813000	27.308846	7.684614E-5	20.822893
2144.548572	-3.006800	3.270500	-9.832600	27.310280	7.678014E-5	20.805370
2145.554328	-2.999100	3.272400	-9.813300	27.281107	7.506401E-5	20.808741
2146.550714	-2.998800	3.271300	-9.808100	27.260386	7.588907E-5	20.793588
2147.568663	-2.977900	3.271800	-9.742100	27.304348	7.516302E-5	20.813153
2148.555588	-3.004500	3.268800	-9.819800	27.308191	7.559205E-5	20.836932
2149.551710	-3.014500	3.267800	-9.850200	27.310646	7.579006E-5	20.822807
2150.554793	-3.002900	3.268300	-9.813500	27.280750	7.483299E-5	20.809804
2151.558784	-3.008000	3.269400	-9.833000	27.289778	7.526202E-5	20.832161
2152.554785	-3.006100	3.267500	-9.821100	27.298337	7.242382E-5	20.806158
2153.557343	-2.985100	3.269200	-9.757900	27.348745	7.351290E-5	20.805182
2154.558346	-2.984200	3.268700	-9.753600	27.379873	7.400793E-5	20.816108
2155.553964	-2.999200	3.266000	-9.794600	27.402223	7.252282E-5	20.829583
2156.557193	-2.985300	3.266500	-9.750300	27.414601	7.311687E-5	20.820698
2157.556129	-3.011800	3.264300	-9.830000	27.427993	7.192878E-5	20.820895
2158.555666	-2.985900	3.266200	-9.751100	27.487152	7.239081E-5	20.812608
2159.554182	-2.979400	3.264800	-9.726400	27.523912	7.232481E-5	20.808341
2160.555182	-3.014100	3.263900	-9.836500	27.479782	7.364491E-5	20.829375
2161.555614	-3.016900	3.264000	-9.846200	27.385642	7.123573E-5	20.817169
2162.555614	-2.975500	3.265100	-9.714100	27.380282	7.054268E-5	20.828373
2163.555850	-2.975400	3.263400	-9.709300	27.396182	6.899157E-5	20.810229
2164.555076	-2.973000	3.265100	-9.706200	27.387644	7.037767E-5	20.830563
2165.555077	-2.983000	3.263400	-9.733200	27.463920	6.928859E-5	20.822900
2166.556077	-2.990200	3.263900	-9.758300	27.432468	6.968462E-5	20.827293
2167.555212	-2.974100	3.262700	-9.702800	27.439211	6.836452E-5	20.821274
2168.556512	-3.003400	3.260700	-9.792100	27.506085	6.843052E-5	20.843983
2169.560412	-2.993400	3.262500	-9.765100	27.496978	6.852953E-5	20.837666
2170.556478	-3.006800	3.263200	-9.810900	27.462078	6.885956E-5	20.851865
2171.557858	-2.998600	3.260700	-9.776300	27.414474	6.701142E-5	20.846648
2172.561976	-2.981600	3.259600	-9.717600	27.422062	6.905757E-5	20.833893
2173.558541	-3.008900	3.261000	-9.811000	27.469933	6.951960E-5	20.833216
2174.562475	-2.986900	3.260400	-9.737400	27.425929	6.836452E-5	20.838258
2175.561053	-2.991100	3.260200	-9.749900	27.463160	6.579033E-5	20.838730
2176.560686	-3.010800	3.258900	-9.811100	27.440214	6.678040E-5	20.831767
2177.560890	-2.990100	3.258600	-9.743100	27.467621	6.433822E-5	20.828994
2178.561147	-3.011400	3.258000	-9.809700	27.466331	6.509728E-5	20.827696
2179.560680	-3.015200	3.257600	-9.821600	27.481138	6.437123E-5	20.820783
2180.560680	-2.998600	3.257600	-9.767400	27.448592	6.575733E-5	20.837350
2181.560699	-3.000000	3.257800	-9.772300	27.494406	6.542730E-5	20.843139
2182.561301	-2.997100	3.256200	-9.758800	27.549096	6.654939E-5	20.828464
2183.561141	-2.996500	3.254800	-9.752200	27.610109	6.516328E-5	20.839593
2184.560633	-3.011200	3.254300	-9.798100	27.552070	6.285312E-5	20.843309
2185.562568	-2.979700	3.257000	-9.703700	27.456995	6.334815E-5	20.852916
2186.561386	-2.978300	3.256200	-9.696700	27.366127	6.136801E-5	20.836892
2187.561382	-2.990400	3.255200	-9.732700	27.366101	6.344716E-5	20.828331
2188.562386	-3.018300	3.254200	-9.820700	27.406114	6.278711E-5	20.858626
2189.562469	-2.992600	3.253300	-9.735300	27.457287	6.400820E-5	20.836141
2190.561542	-3.010200	3.252600	-9.790100	27.461626	6.249009E-5	20.832919
2191.563558	-2.999600	3.254300	-9.760800	27.451430	6.173103E-5	20.853007
2192.562655	-3.029000	3.251900	-9.849100	27.518278	6.282011E-5	20.848665
2193.562699	-3.006900	3.251800	-9.776300	27.515920	6.295212E-5	20.840602
2194.563334	-2.980000	3.251500	-9.688800	27.546330	6.037793E-5	20.848913
2195.563942	-2.996500	3.251700	-9.741800	27.582170	6.100498E-5	20.849886
2196.563317	-2.972700	3.251200	-9.663900	27.571528	6.107099E-5	20.851033
2197.564116	-2.989500	3.249800	-9.714300	27.624778	6.123600E-5	20.844396
2198.563115	-3.010100	3.248900	-9.778600	27.582688	6.011392E-5	20.859891
2199.566228	-3.002400	3.249500	-9.755000	27.539061	5.951987E-5	20.859617
2200.567452	-3.005500	3.248700	-9.763200	27.516936	6.017992E-5	20.842574
2201.566220	-3.003800	3.247800	-9.755500	27.476083	5.882682E-5	20.880179
2202.565286	-2.989700	3.248500	-9.710900	27.523857	5.546057E-5	20.840054
2203.566288	-3.018400	3.247200	-9.801100	27.547470	5.730871E-5	20.833466
2204.565798	-3.012600	3.246600	-9.779900	27.517284	5.579060E-5	20.855251
2205.567026	-2.983300	3.247200	-9.686700	27.532118	5.546057E-5	20.858321
2206.568029	-2.997300	3.246600	-9.730100	27.558856	5.727571E-5	20.850611
2207.566028	-2.995000	3.245600	-9.718900	27.588991	5.674767E-5	20.870025
2208.566082	-2.999800	3.245300	-9.733400	27.578377	5.618663E-5	20.847019
2209.569065	-3.016100	3.245200	-9.786900	27.616049	5.763873E-5	20.833242
2210.567234	-2.983900	3.245000	-9.682100	27.563521	5.671467E-5	20.853408
2211.566711	-3.002400	3.244300	-9.740100	27.525026	5.489953E-5	20.867781
2212.568514	-3.007600	3.244200	-9.756300	27.466439	5.308440E-5	20.860994
2213.567844	-2.993100	3.243900	-9.707500	27.517289	5.450350E-5	20.830600
2214.566774	-2.986500	3.243500	-9.685000	27.538845	5.328241E-5	20.860349
2215.568012	-2.981900	3.243400	-9.670700	27.558688	5.268837E-5	20.874148
2216.566261	-2.997300	3.241600	-9.715300	27.635351	5.272137E-5	20.846499
2217.567903	-2.977500	3.242100	-9.652700	27.689441	5.453651E-5	20.869632
2218.568864	-3.014300	3.241100	-9.768300	27.690312	5.338142E-5	20.866715
2219.569883	-3.005100	3.241800	-9.740900	27.728603	5.612062E-5	20.843609
2220.568348	-3.003900	3.239700	-9.730900	27.722675	5.341442E-5	20.858980
2221.570632	-3.001100	3.240100	-9.722700	27.770786	5.179731E-5	20.852394
2222.570069	-2.988500	3.241000	-9.685300	27.794615	5.361244E-5	20.864046
2223.570601	-2.986100	3.239600	-9.672700	27.810735	5.216033E-5	20.861777
2224.572071	-2.983900	3.240000	-9.667300	27.808604	5.285338E-5	20.857736
2225.570830	-2.991500	3.238800	-9.687600	27.718886	5.262237E-5	20.857537
2226.572830	-2.984000	3.237200	-9.658800	27.730468	5.232534E-5	20.880571
2227.571116	-3.009000	3.238400	-9.743800	27.742916	5.410747E-5	20.876502
2228.570083	-3.003700	3.236700	-9.720500	27.731980	5.291939E-5	20.872610
2229.571019	-2.991100	3.237500	-9.683100	27.689842	5.364544E-5	20.852019
2230.575546	-3.013600	3.235900	-9.750500	27.663258	5.229234E-5	20.862726
2231.570594	-3.004500	3.235300	-9.718700	27.643864	5.080723E-5	20.871659
2232.571637	-3.017600	3.236900	-9.767100	27.651899	5.212733E-5	20.844659
2233.572490	-2.992800	3.235900	-9.683400	27.675110	5.163229E-5	20.876548
2234.572483	-2.985100	3.234000	-9.653400	27.672805	4.994917E-5	20.886082
2235.572471	-2.998700	3.234200	-9.697900	27.659237	5.047721E-5	20.871955
2236.572931	-2.982500	3.233600	-9.643100	27.671066	4.932212E-5	20.885280
2237.572625	-3.008300	3.232300	-9.722500	27.612907	5.245735E-5	20.896458
2238.571523	-2.987000	3.232100	-9.653400	27.620595	5.093924E-5	20.890444
2239.572828	-2.978100	3.233100	-9.627700	27.682746	5.225934E-5	20.873800
2240.572904	-2.985000	3.231700	-9.645700	27.665284	4.760600E-5	20.879937
2241.573842	-2.997400	3.232200	-9.687000	27.631779	4.843106E-5	20.881783
2242.572840	-2.998300	3.230900	-9.686200	27.636069	4.965215E-5	20.850541
2243.571540	-2.995800	3.230600	-9.677500	27.673542	5.107125E-5	20.879711
2244.571299	-3.006000	3.230800	-9.710600	27.758478	4.948714E-5	20.885050
2245.575964	-2.980900	3.229100	-9.624300	27.743573	5.179731E-5	20.864837
2246.571824	-2.999900	3.228700	-9.684400	27.782951	4.912411E-5	20.882179
2247.571055	-2.971900	3.229600	-9.597400	27.821114	4.750699E-5	20.877912
2248.576663	-2.979400	3.229100	-9.619100	27.773304	4.645091E-5	20.888117
2249.572928	-2.992300	3.228600	-9.660200	27.755499	4.839806E-5	20.865458
2250.572144	-2.996000	3.227900	-9.669200	27.784634	4.773801E-5	20.890510
2251.572575	-3.002600	3.227200	-9.688100	27.800232	4.793602E-5	20.878707
2252.572623	-3.007500	3.228100	-9.707400	27.726728	4.720997E-5	20.911418
2253.572480	-3.003000	3.225800	-9.686400	27.686058	4.681394E-5	20.883297
2254.574482	-2.986300	3.226600	-9.633900	27.700467	4.701195E-5	20.876934
2255.575022	-2.986600	3.225300	-9.632200	27.723630	4.724297E-5	20.882224
2256.575912	-3.008300	3.226000	-9.704200	27.753610	4.618689E-5	20.884419
2257.576128	-3.007200	3.225600	-9.699500	27.787509	4.846406E-5	20.878704
2258.577645	-2.992600	3.223500	-9.645500	27.770668	4.826605E-5	20.879775
2259.576650	-2.992700	3.222500	-9.642800	27.749715	4.612089E-5	20.879551
2260.578684	-2.987000	3.223300	-9.627200	27.637147	4.631890E-5	20.884340
2261.576646	-2.960800	3.223500	-9.543400	27.653393	4.618689E-5	20.890729
2262.576669	-3.012100	3.222500	-9.704800	27.718342	4.826605E-5	20.892549
2263.579668	-3.004000	3.223600	-9.683500	27.797322	4.503181E-5	20.889054
2264.577385	-3.013700	3.223000	-9.712500	27.862859	4.747399E-5	20.907120
2265.577230	-2.998900	3.220300	-9.657100	27.861791	4.621990E-5	20.900830
2266.579956	-2.978300	3.221900	-9.594400	27.863055	4.532883E-5	20.920118
2267.578015	-2.988500	3.219400	-9.620100	27.827695	4.480079E-5	20.907292
2268.579447	-3.023500	3.218900	-9.731500	27.830273	4.552685E-5	20.901826
2269.582453	-3.010700	3.218500	-9.688700	27.838455	4.549384E-5	20.902474
2270.579135	-2.990000	3.219800	-9.626600	27.881078	4.522982E-5	20.911706
2271.581140	-3.006300	3.218700	-9.675600	27.928063	4.549384E-5	20.903520
2272.582421	-2.992400	3.217300	-9.626700	27.814250	4.440476E-5	20.894710
2273.581397	-3.016500	3.217400	-9.704200	27.809934	4.423975E-5	20.884677
2274.582555	-3.016100	3.217200	-9.702400	27.791088	4.433876E-5	20.916917
2275.585557	-3.004400	3.216500	-9.662700	27.828109	4.324968E-5	20.903915
2276.583166	-2.999500	3.215700	-9.644000	27.849382	4.404174E-5	20.915366
2277.583168	-3.015000	3.214600	-9.691000	27.884565	4.153355E-5	20.910000
2278.588516	-3.009700	3.216100	-9.678400	27.860242	4.427275E-5	20.902590
2279.584235	-2.998600	3.214300	-9.637700	27.837478	4.212760E-5	20.904809
2280.586235	-2.980600	3.216300	-9.585000	27.769754	4.216060E-5	20.905880
2281.588658	-3.003800	3.213900	-9.652800	27.753932	3.971842E-5	20.910346
2282.585658	-3.000700	3.212600	-9.638700	27.764991	4.136854E-5	20.915310
2283.588656	-2.971400	3.214700	-9.551500	27.787235	3.952041E-5	20.924418
2284.588696	-3.000600	3.211000	-9.634400	27.842755	3.892636E-5	20.913913
2285.587704	-2.994300	3.212300	-9.618100	27.910889	4.070849E-5	20.931751
2286.590703	-3.007000	3.211500	-9.656000	27.964593	3.998244E-5	20.914209
2287.592951	-2.994100	3.211700	-9.615000	27.986756	3.965241E-5	20.920869
2288.587191	-3.027700	3.210200	-9.718700	27.956953	3.935539E-5	20.922165
2289.590318	-2.988600	3.209600	-9.591400	27.926182	3.862934E-5	20.920592
2290.590141	-2.981600	3.211100	-9.573000	27.956727	4.100551E-5	20.928101
2291.607663	-3.009300	3.208400	-9.654000	27.988116	3.787028E-5	20.922238
2292.589514	-2.996300	3.208800	-9.613900	27.940609	3.879435E-5	20.918991
2293.591486	-3.011000	3.207500	-9.656900	27.919161	3.651718E-5	20.910681
2294.590366	-3.018100	3.207600	-9.679500	27.887869	3.671520E-5	20.947460
2295.592451	-3.002000	3.206100	-9.623800	27.893099	3.816731E-5	20.926647
2296.592685	-2.997600	3.207100	-9.613000	27.869765	3.780428E-5	20.925923
2297.592682	-2.994100	3.204500	-9.593900	27.814047	3.556011E-5	20.933856
2298.592653	-2.992700	3.206200	-9.594500	27.816923	3.635217E-5	20.917787
2299.593334	-3.001500	3.204600	-9.617000	27.833063	3.529610E-5	20.932132
2300.592201	-3.021700	3.204700	-9.682300	27.863164	3.635217E-5	20.916435
2301.593085	-2.989900	3.204900	-9.581500	27.926738	3.513108E-5	20.959079
2302.592169	-3.022200	3.202900	-9.678100	27.935936	3.529610E-5	20.939889
2303.594438	-2.988100	3.204100	-9.573100	27.963828	3.354697E-5	20.917706
2304.593824	-3.008200	3.202700	-9.633400	27.914066	3.483406E-5	20.950119
2305.594228	-2.991200	3.204200	-9.583400	27.869334	3.262290E-5	20.947297
2306.595018	-2.991800	3.201000	-9.574900	27.881408	3.410801E-5	20.917727
2307.595963	-2.992800	3.201300	-9.580400	27.915821	3.424002E-5	20.911112
2308.594960	-3.018200	3.199900	-9.656600	27.947781	3.262290E-5	20.930950
2309.594960	-2.997800	3.199400	-9.591200	28.005597	3.424002E-5	20.933194
2310.594960	-3.001200	3.200000	-9.602800	27.987721	3.344796E-5	20.943175
2311.594960	-3.012700	3.199100	-9.637200	27.953753	3.206186E-5	20.936960
2312.594964	-2.996700	3.198600	-9.584600	27.959231	3.354697E-5	20.939155
2313.594944	-3.000200	3.197600	-9.593200	27.925140	3.272191E-5	20.917646
2314.595098	-3.012100	3.198100	-9.631900	27.932875	3.305193E-5	20.935861
2315.595149	-3.002000	3.196700	-9.594900	27.996443	3.536210E-5	20.928248
2316.596839	-2.998400	3.196800	-9.584700	27.946981	3.087377E-5	20.937730
2317.596163	-3.014100	3.195900	-9.631900	27.929450	3.252389E-5	20.941896
2318.595682	-3.009300	3.196200	-9.617500	27.994705	3.268890E-5	20.951626
2319.596344	-3.018000	3.194500	-9.639900	28.017762	3.004871E-5	20.947335
2320.597220	-3.014900	3.193000	-9.624500	28.054378	3.087377E-5	20.954794
2321.596381	-2.982300	3.194200	-9.525200	28.114693	3.209486E-5	20.938700
2322.596666	-2.987300	3.193100	-9.538100	28.125971	3.311794E-5	20.939621
2323.596664	-3.006600	3.193200	-9.599500	28.109409	2.948767E-5	20.949500
2324.597132	-2.984300	3.192700	-9.527300	28.115111	2.998270E-5	20.924423
2325.597788	-2.991000	3.192400	-9.547600	28.032161	2.952067E-5	20.929588
2326.597788	-2.992200	3.190800	-9.546800	27.956642	3.074176E-5	20.935126
2327.597401	-2.991700	3.190700	-9.544700	27.940499	2.905864E-5	20.938319
2328.597917	-2.969700	3.191400	-9.476400	27.961947	3.004871E-5	20.937621
2329.598393	-2.989500	3.188600	-9.530600	27.985969	3.060975E-5	20.940464
2330.599035	-2.986100	3.189200	-9.522700	27.979821	3.014772E-5	20.923371
2331.601930	-3.025900	3.186700	-9.642000	28.024546	3.258990E-5	20.929984
2332.600364	-3.021500	3.189200	-9.635100	28.100006	2.882762E-5	20.932450
2333.601205	-3.001900	3.187500	-9.567300	28.099885	3.064275E-5	20.934224
2334.600224	-2.980000	3.186500	-9.495000	28.084588	3.140181E-5	20.912190
2335.600103	-3.024700	3.186100	-9.636500	28.129112	2.889362E-5	20.924767
2336.600519	-3.009300	3.185500	-9.584200	28.170037	2.849760E-5	20.926612
2337.600470	-2.999000	3.184700	-9.550100	28.182033	2.925665E-5	20.925413
2338.599753	-2.998700	3.184800	-9.549300	28.229576	2.862961E-5	20.926810
2339.599427	-2.994200	3.183000	-9.529700	28.232030	2.697948E-5	20.924539
2340.601092	-2.974200	3.183400	-9.466900	28.244696	2.872861E-5	20.928282
2341.599946	-3.009500	3.182400	-9.576400	28.232575	3.077476E-5	20.925562
2342.599470	-3.009900	3.181600	-9.574400	28.292431	2.948767E-5	20.908068
2343.599967	-2.972200	3.182200	-9.455900	28.299397	2.806856E-5	20.936889
2344.600838	-2.984400	3.180300	-9.490700	28.309831	2.829958E-5	20.914207
2345.605370	-3.001600	3.181900	-9.548600	28.305568	2.740852E-5	20.931723
2346.601020	-3.018500	3.179800	-9.597000	28.300016	2.932266E-5	20.937986
2347.600953	-3.016200	3.180400	-9.591800	28.259688	2.836559E-5	20.924411
2348.600601	-2.998300	3.179500	-9.532200	28.202853	2.651745E-5	20.929777
2349.600510	-3.002000	3.178100	-9.538600	28.199505	2.608842E-5	20.898435
2350.600510	-3.005800	3.176800	-9.547700	28.203075	2.536237E-5	20.939009
2351.602381	-3.021700	3.176200	-9.596800	28.198065	2.645145E-5	20.923536
2352.601402	-3.003700	3.176100	-9.538500	28.238000	2.569239E-5	20.937661
2353.602804	-2.993800	3.175000	-9.504400	28.267892	2.704549E-5	20.911335
2354.602819	-2.981700	3.177300	-9.472300	28.201438	2.552738E-5	20.916501
2355.601768	-2.977300	3.174500	-9.450600	28.188029	2.711149E-5	20.905372
2356.602531	-3.000200	3.174500	-9.523400	28.227045	2.905864E-5	20.924262
2357.602754	-2.987300	3.172900	-9.476400	28.240776	2.737551E-5	20.898261
2358.602479	-2.970700	3.173400	-9.426900	28.196755	2.618743E-5	20.926009
2359.604951	-2.997900	3.172200	-9.509300	28.217029	2.506534E-5	20.915128
2360.603369	-2.993300	3.171100	-9.491400	28.174741	2.513135E-5	20.895315
2361.602388	-3.018200	3.170800	-9.569300	28.143980	2.295319E-5	20.907494
2362.605371	-3.006100	3.171500	-9.532800	28.119513	2.351423E-5	20.891874
2363.604776	-3.005300	3.168900	-9.522700	28.178113	2.387726E-5	20.902977
2364.603526	-2.999600	3.170200	-9.508300	28.139369	2.433929E-5	20.897638
2365.606182	-2.992600	3.167200	-9.477600	28.070826	2.344822E-5	20.906871
2366.605097	-3.004400	3.167100	-9.514000	28.061282	2.427329E-5	20.909592
2367.603983	-2.987700	3.167800	-9.463500	28.116615	2.348123E-5	20.888482
2368.604663	-3.016600	3.166300	-9.550700	28.149535	2.400927E-5	20.890803
2369.605363	-3.015900	3.164300	-9.542100	28.215052	2.199612E-5	20.900337
2370.603681	-2.990500	3.164200	-9.461600	28.202165	2.288718E-5	20.912966
2371.610778	-3.015300	3.162300	-9.534500	28.218898	2.364624E-5	20.887614
2372.609550	-2.998100	3.162900	-9.481500	28.221971	2.087404E-5	20.896397
2373.605549	-3.018000	3.161700	-9.540800	28.234390	2.169910E-5	20.875238
2374.606473	-3.001300	3.162200	-9.490300	28.218279	2.136907E-5	20.894103
2375.606473	-2.994400	3.161800	-9.467300	28.169619	2.196312E-5	20.884470
2376.606472	-2.982100	3.160000	-9.422400	28.165431	2.183111E-5	20.889736
2377.607366	-2.991400	3.159200	-9.449100	28.109831	2.127006E-5	20.875964
2378.611937	-3.004100	3.158000	-9.486200	28.156038	2.008198E-5	20.892134
2379.607501	-3.006700	3.157100	-9.491600	28.238731	1.971895E-5	20.882927
2380.608388	-3.008400	3.156400	-9.495000	28.301516	2.219413E-5	20.903939
2381.610563	-3.009800	3.157200	-9.501700	28.378522	2.001597E-5	20.894233
2382.607388	-3.003600	3.155700	-9.477400	28.320702	2.113806E-5	20.880111
2383.616706	-2.991700	3.157300	-9.444600	28.356195	1.919091E-5	20.876968
2384.610707	-3.026800	3.155400	-9.549500	28.369972	1.961994E-5	20.881831
2385.607707	-3.015200	3.153900	-9.508800	28.325165	2.163309E-5	20.884129
2386.608741	-2.988800	3.153900	-9.425500	28.355996	1.843186E-5	20.872974
2387.609466	-3.015500	3.152700	-9.506400	28.364893	1.991697E-5	20.882407
2388.608466	-3.011700	3.152300	-9.493100	28.372428	1.849786E-5	20.876243
2389.608465	-3.021100	3.150800	-9.517700	28.308212	1.981796E-5	20.884604
2390.609734	-2.997500	3.151000	-9.444300	28.217470	1.783781E-5	20.879539
2391.608716	-2.991900	3.149000	-9.421000	28.188692	1.625370E-5	20.892291
2392.608032	-2.981300	3.149500	-9.388900	28.191075	1.697975E-5	20.879993
2393.614032	-2.993800	3.148600	-9.425400	28.226075	1.800282E-5	20.867815
2394.609035	-3.012300	3.146700	-9.477400	28.247911	1.803583E-5	20.881738
2395.612213	-2.999800	3.146400	-9.437900	28.278278	1.701275E-5	20.890974
2396.608988	-3.005700	3.144500	-9.450300	28.227167	1.701275E-5	20.864647
2397.609593	-2.966400	3.144500	-9.327100	28.288687	1.618769E-5	20.861154
2398.610869	-3.001200	3.144100	-9.435200	28.341827	1.704575E-5	20.886208
2399.611740	-2.988300	3.143000	-9.391300	28.381705	1.602268E-5	20.843862
2400.609943	-2.990400	3.143400	-9.399500	28.399278	1.539563E-5	20.882417
2401.611504	-2.985800	3.143100	-9.383000	28.375039	1.859687E-5	20.890725
2402.613946	-3.003900	3.139900	-9.429700	28.314938	1.539563E-5	20.860558
2403.612928	-2.997600	3.140700	-9.413900	28.325372	1.466958E-5	20.858261
2404.612235	-3.012100	3.139500	-9.455200	28.292358	1.810183E-5	20.864375
2405.613003	-3.006500	3.137700	-9.433000	28.315384	1.853086E-5	20.867645
2406.613003	-2.993100	3.137100	-9.389100	28.349588	1.724377E-5	20.875531
2407.612312	-3.012200	3.137000	-9.448500	28.416552	1.572566E-5	20.861881
2408.613844	-3.008000	3.136000	-9.431700	28.327428	1.678173E-5	20.845160
2409.615649	-3.021100	3.134700	-9.468500	28.293970	1.470258E-5	20.845611
2410.614649	-3.015000	3.133400	-9.445600	28.332213	1.572566E-5	20.877477
2411.614649	-2.993300	3.134500	-9.381600	28.393876	1.562665E-5	20.870340
2412.615500	-3.008000	3.133000	-9.423100	28.450999	1.704575E-5	20.838723
2413.615590	-3.010500	3.131600	-9.426900	28.410456	1.506561E-5	20.849104
2414.616371	-3.017700	3.129700	-9.443200	28.380739	1.483459E-5	20.840518
2415.616374	-3.006900	3.130800	-9.412500	28.305443	1.457057E-5	20.879920
2416.617213	-2.998400	3.129200	-9.381500	28.273247	1.529663E-5	20.873583
2417.618214	-3.003600	3.128200	-9.394100	28.228483	1.480159E-5	20.871187
2418.620780	-2.991700	3.128900	-9.360100	28.265984	1.226040E-5	20.858684
2419.621340	-2.955500	3.128600	-9.245600	28.315555	1.463658E-5	20.865446
2420.620753	-2.965900	3.127300	-9.273900	28.395879	1.509861E-5	20.836797
2421.619281	-3.000000	3.125100	-9.374400	28.410822	1.407554E-5	20.856110
2422.620900	-3.000000	3.123700	-9.370300	28.417961	1.470258E-5	20.849549
2423.622501	-2.986300	3.124000	-9.328600	28.409929	1.506561E-5	20.859479
2424.622693	-3.028800	3.121500	-9.453800	28.460733	1.358050E-5	20.870334
2425.622557	-3.001100	3.122500	-9.370000	28.489406	1.301946E-5	20.871233
2426.624241	-2.979100	3.120900	-9.296900	28.410053	1.278844E-5	20.849172
2427.625235	-2.983800	3.120200	-9.309400	28.443336	1.364650E-5	20.841911
2428.624828	-3.006800	3.118500	-9.374500	28.528012	1.169936E-5	20.854636
2429.624509	-2.993300	3.118100	-9.333000	28.596081	1.252442E-5	20.846377
2430.625286	-2.965200	3.117100	-9.241700	28.602376	1.103931E-5	20.846553
2431.624225	-2.979400	3.116900	-9.285500	28.604728	1.140234E-5	20.848922
2432.624746	-3.013800	3.115300	-9.388500	28.545831	1.031326E-5	20.846029
2433.624207	-3.006900	3.114500	-9.363600	28.477857	9.191176E-6	20.853440
2434.623995	-3.021000	3.113600	-9.404800	28.387278	1.008224E-5	20.859903
2435.625737	-2.991700	3.112600	-9.311300	28.392881	1.001624E-5	20.855114
2436.624146	-2.993400	3.112000	-9.314900	28.460437	1.011524E-5	20.853916
2437.624471	-2.993700	3.110900	-9.312400	28.492705	1.047827E-5	20.844211
2438.628117	-2.998200	3.109200	-9.320500	28.521005	1.202939E-5	20.849951
2439.624400	-2.990700	3.109900	-9.300300	28.548014	1.140234E-5	20.836849
2440.625667	-2.981500	3.108000	-9.265700	28.582856	8.828150E-6	20.854394
2441.627669	-3.009700	3.106400	-9.348900	28.571332	9.620208E-6	20.841841
2442.627728	-3.013000	3.104800	-9.354000	28.551188	9.686213E-6	20.857114
2443.626446	-3.012600	3.104800	-9.352300	28.503611	1.153435E-5	20.831012
2444.633449	-3.008400	3.103600	-9.336300	28.493400	1.031326E-5	20.870988
2445.634449	-3.004200	3.104200	-9.325000	28.500440	9.455196E-6	20.830664
2446.627118	-2.984300	3.101900	-9.255500	28.473728	8.993162E-6	20.863980
2447.630109	-2.954000	3.101900	-9.161400	28.466046	9.686213E-6	20.826374
2448.630996	-2.982100	3.100700	-9.245800	28.448626	9.224179E-6	20.843445
2449.629536	-3.027500	3.098600	-9.379600	28.484682	7.772072E-6	20.834236
2450.634142	-3.033400	3.096800	-9.392400	28.561774	1.146834E-5	20.851654
2451.632617	-3.001400	3.098000	-9.297400	28.576571	7.640062E-6	20.820564
2452.629919	-2.997300	3.096400	-9.279900	28.576546	9.026164E-6	20.841876
2453.632920	-2.996700	3.095400	-9.274700	28.580783	1.054428E-5	20.824333
2454.632920	-3.019500	3.093900	-9.341500	28.546741	8.762145E-6	20.840308
2455.630244	-3.018100	3.092900	-9.334300	28.570205	7.343041E-6	20.839283
2456.633691	-3.010200	3.091000	-9.303500	28.600587	6.253960E-6	20.838588
2457.635068	-3.017000	3.090000	-9.321300	28.646800	7.046019E-6	20.826811
2458.631558	-2.999800	3.089000	-9.265600	28.706982	7.640062E-6	20.827684
2459.632610	-2.996600	3.089000	-9.255300	28.769789	7.211031E-6	20.806549
2460.633946	-2.999300	3.088400	-9.261900	28.734908	6.484977E-6	20.834950
2461.631946	-2.991500	3.088000	-9.237400	28.698737	5.758924E-6	20.830285
2462.632946	-3.009700	3.086000	-9.286800	28.696681	6.187956E-6	20.842913
2463.633945	-3.007800	3.084700	-9.276700	28.721857	6.055946E-6	20.823701
2464.631946	-3.003800	3.082400	-9.257500	28.741975	5.395897E-6	20.818835
2465.634627	-2.991900	3.084000	-9.226000	28.671812	6.517980E-6	20.820235
2466.634669	-3.033100	3.080700	-9.342600	28.594506	5.890934E-6	20.816342
2467.633348	-2.984500	3.079500	-9.188600	28.597481	6.748997E-6	20.827873
2468.638286	-2.984200	3.079300	-9.188700	28.595205	7.673065E-6	20.812779
2469.637915	-3.008400	3.077700	-9.258600	28.537569	4.636841E-6	20.809735
2470.637713	-3.021200	3.077400	-9.296400	28.583213	4.042798E-6	20.801176
2471.638710	-3.023600	3.077100	-9.302100	28.526224	3.613766E-6	20.806845
2472.637710	-2.998200	3.075400	-9.219500	28.536434	5.197883E-6	20.796739
2473.638672	-2.975900	3.074900	-9.148900	28.593256	5.461902E-6	20.816980
2474.639823	-2.972600	3.073200	-9.133900	28.611171	5.461902E-6	20.809893
2475.640158	-2.987000	3.072200	-9.175200	28.676931	5.098875E-6	20.810218
2476.640092	-2.988100	3.070500	-9.174500	28.749527	4.372822E-6	20.810321
2477.639936	-2.992500	3.070500	-9.187100	28.779581	4.669844E-6	20.814990
2478.642075	-3.012600	3.069100	-9.244100	28.784660	4.603839E-6	20.812046
2479.639380	-2.988600	3.068100	-9.168600	28.746535	5.164880E-6	20.796401
2480.640279	-3.007100	3.066000	-9.219000	28.731500	3.778778E-6	20.832940
2481.642095	-2.998800	3.064300	-9.188600	28.737395	4.273815E-6	20.789092
2482.641275	-2.996400	3.064400	-9.182000	28.786404	3.811781E-6	20.786775
2483.643093	-3.001700	3.062900	-9.192700	28.764159	5.065873E-6	20.817947
2484.642441	-3.009700	3.060700	-9.209900	28.715255	3.712773E-6	20.796662
2485.642721	-2.998800	3.060700	-9.177600	28.662607	3.514759E-6	20.801007
2486.642128	-2.984800	3.059600	-9.131400	28.634560	1.633620E-6	20.791724
2487.643631	-2.990900	3.058400	-9.146300	28.645787	4.438827E-6	20.793074
2488.642823	-3.000500	3.056900	-9.171500	28.533986	3.349747E-6	20.796170
2489.641670	-2.995400	3.055700	-9.151100	28.529702	3.382749E-6	20.793752
2490.642436	-3.005300	3.054000	-9.176600	28.519272	3.613766E-6	20.802688
2491.643972	-3.006400	3.052700	-9.176300	28.478237	3.910788E-6	20.791710
2492.642742	-3.016300	3.051700	-9.204000	28.503391	3.580764E-6	20.798549
2493.644742	-3.013900	3.050700	-9.193600	28.530551	2.953717E-6	20.789391
2494.643742	-3.036400	3.048900	-9.256200	28.592328	3.019722E-6	20.779061
2495.645350	-3.008900	3.047500	-9.168400	28.724366	2.293669E-6	20.767907
2496.645133	-3.005200	3.047500	-9.158000	28.778551	3.547761E-6	20.780287
2497.644259	-2.996500	3.046000	-9.126100	28.850025	3.382749E-6	20.794440
2498.644012	-2.970600	3.046300	-9.049100	28.782072	2.359674E-6	20.803275
2499.644239	-3.016100	3.043900	-9.179800	28.791908	1.831635E-6	20.787104
2500.661339	-2.999400	3.040900	-9.119800	28.789529	1.996647E-6	20.808416
2501.645332	-3.005900	3.040000	-9.137500	28.872518	1.633620E-6	20.798608
2502.646454	-2.987600	3.040900	-9.083400	28.943170	1.798632E-6	20.795343
2503.647239	-3.009400	3.038400	-9.143500	28.928804	1.831635E-6	20.791301
2504.647861	-3.011800	3.036700	-9.144600	28.811388	3.877785E-6	20.771165
2505.648273	-3.014500	3.035400	-9.149300	28.754703	1.798632E-6	20.784715
2506.646442	-2.988400	3.034000	-9.065700	28.785179	4.042798E-6	20.774636
2507.647115	-3.013700	3.032100	-9.136900	28.877783	2.029649E-6	20.771194
2508.647844	-3.013100	3.032800	-9.137600	28.935971	-2.805207E-7	20.782875
2509.647674	-2.996500	3.032200	-9.084900	28.920666	2.194662E-6	20.764610
2510.647232	-2.992400	3.028700	-9.061600	28.959680	2.359674E-6	20.775941
2511.653594	-3.014300	3.027900	-9.125700	28.968600	2.722700E-6	20.758848
2512.647679	-3.002600	3.027200	-9.088300	28.955944	3.465255E-7	20.772177
2513.647357	-3.016300	3.024400	-9.121600	28.948663	8.745644E-7	20.775746
2514.649062	-2.991100	3.024600	-9.046100	28.928055	1.798632E-6	20.767787
2515.648825	-3.012300	3.021800	-9.101200	28.798945	8.085595E-7	20.777124
2516.649080	-2.994000	3.020700	-9.043100	28.735273	1.666623E-6	20.770359
2517.655152	-2.977200	3.020400	-8.991400	28.811161	3.465255E-7	20.754815
2518.650293	-3.014500	3.018400	-9.098200	28.738772	-1.963645E-6	20.755391
2519.650972	-2.977600	3.018600	-8.987900	28.688529	6.435474E-7	20.777803
2520.650966	-3.021800	3.014900	-9.109600	28.806907	2.128657E-6	20.778980
2521.651968	-2.992000	3.015200	-9.020000	28.749157	-8.250608E-8	20.753524
2522.651968	-3.013600	3.013400	-9.080300	28.700972	8.250607E-8	20.769474
2523.652968	-3.039200	3.010700	-9.148300	28.730384	6.765498E-7	20.765909
2524.654969	-2.989600	3.010700	-8.999900	28.769381	-1.006574E-6	20.770102
2525.654964	-3.000400	3.009100	-9.026900	28.760363	-1.006574E-6	20.764811
2526.653968	-3.012800	3.007900	-9.060600	28.775256	1.963645E-6	20.752786
2527.654851	-3.000900	3.006500	-9.021500	28.800824	3.019722E-6	20.762420
2528.654661	-2.968900	3.006400	-8.923800	28.868780	-1.402603E-6	20.750744
2529.653711	-2.997300	3.005100	-9.006900	28.901083	1.485109E-7	20.768589
2530.653675	-2.993600	3.003000	-8.988700	28.922637	1.171586E-6	20.756164
2531.653636	-3.004900	3.002400	-9.021300	28.912408	1.864637E-6	20.767196
2532.654420	-3.014500	2.999100	-9.040100	28.948130	2.260666E-6	20.770942
2533.654377	-2.991900	2.999100	-8.971700	28.940279	1.567615E-6	20.742643
2534.653172	-3.009500	2.997700	-9.020400	28.920167	2.062652E-6	20.754624
2535.653501	-3.004100	2.996400	-9.000500	28.926214	2.458681E-6	20.738430
2536.653502	-3.005500	2.993600	-8.996300	28.934639	8.085595E-7	20.743598
2537.654210	-2.996300	2.992500	-8.965500	28.934121	2.326671E-6	20.763466
2538.654978	-2.994300	2.991700	-8.957500	28.975537	9.405693E-7	20.753983
2539.655560	-2.968500	2.990300	-8.875100	28.968134	-1.155085E-7	20.758379
2540.655661	-2.988000	2.988500	-8.928900	28.940094	1.204589E-6	20.761423
2541.654611	-2.984900	2.987600	-8.917200	28.871802	2.392676E-6	20.760902
2542.655086	-3.006900	2.985400	-8.974900	28.906660	2.260666E-6	20.758560
2543.656171	-2.968600	2.985800	-8.862700	28.911120	1.369601E-6	20.738397
2544.654949	-2.985700	2.983200	-8.906400	28.842356	1.138584E-6	20.763955
2545.654664	-2.979200	2.982500	-8.884800	28.777375	-1.303596E-6	20.742118
2546.655567	-3.002500	2.980300	-8.946400	28.744555	8.250607E-8	20.773544
2547.656377	-3.009700	2.978600	-8.963300	28.732240	-5.445401E-7	20.751182
2548.658767	-3.016600	2.978200	-8.983300	28.794054	2.029649E-6	20.745169
2549.657759	-3.009800	2.975300	-8.954000	28.810533	-8.415620E-7	20.756554
2550.657685	-3.010200	2.974600	-8.953000	28.815169	-2.260666E-6	20.752214
2551.665398	-2.987700	2.973900	-8.884100	28.795030	7.095522E-7	20.734297
2552.657345	-3.001000	2.970600	-8.913700	28.749545	1.930642E-6	20.754389
2553.658313	-2.974100	2.970600	-8.833300	28.813269	-2.524686E-6	20.742239
2554.658638	-3.016200	2.967800	-8.950100	28.827340	5.445401E-7	20.762104
2555.658782	-2.987800	2.966500	-8.861500	28.867301	-1.699625E-6	20.736926
2556.659819	-2.969700	2.967200	-8.810500	28.921358	-4.785352E-7	20.739227
2557.658782	-2.999600	2.963400	-8.888100	28.868548	-8.085595E-7	20.747191
2558.658447	-2.979400	2.962600	-8.825700	28.873230	-1.369601E-6	20.741002
2559.661778	-3.017100	2.960600	-8.931000	28.878237	3.465255E-7	20.759324
2560.662426	-2.964900	2.959200	-8.772300	28.816851	-1.485109E-7	20.762444
2561.661152	-2.991100	2.957800	-8.846300	28.872271	-3.795279E-7	20.736717
2562.664154	-3.012100	2.954500	-8.898600	28.946366	-7.095522E-7	20.747353
2563.662497	-2.998800	2.954700	-8.859600	28.926601	9.405693E-7	20.732181
2564.661855	-2.974700	2.953800	-8.785700	28.885903	-2.145158E-7	20.730535
2565.663961	-2.995800	2.950500	-8.837700	28.810326	-1.930642E-6	20.733584
2566.663518	-2.990200	2.949400	-8.818700	28.782828	-1.699625E-6	20.740024
2567.662518	-2.988600	2.948800	-8.812200	28.749089	-1.435606E-6	20.739230
2568.663545	-2.973300	2.947200	-8.762000	28.774858	-1.831635E-6	20.738634
2569.663597	-2.973600	2.944900	-8.756300	28.842121	-1.039577E-6	20.758502
2570.662473	-3.021800	2.943200	-8.893300	28.821263	-2.491683E-6	20.751240
2571.663177	-2.998100	2.942300	-8.820500	28.808507	-1.765630E-6	20.738865
2572.664640	-2.978400	2.940100	-8.755900	28.800039	-6.435474E-7	20.743611
2573.663194	-2.979300	2.938800	-8.754600	28.750691	-1.369601E-6	20.734679
2574.664696	-2.991600	2.937700	-8.787700	28.863365	-2.755703E-6	20.739600
2575.664293	-3.012300	2.935000	-8.839600	28.956606	-1.039577E-6	20.737755
2576.665797	-2.991800	2.934200	-8.777700	28.988116	-3.135231E-7	20.749587
2577.674276	-3.013000	2.932200	-8.833700	28.925054	-1.006574E-6	20.759073
2578.667833	-2.979500	2.931200	-8.731800	28.931498	-2.623693E-6	20.734270
2579.664742	-2.973300	2.930000	-8.710800	28.940861	-1.815134E-7	20.739910
2580.668088	-3.029700	2.926400	-8.864500	28.996176	3.795279E-7	20.733051
2581.668829	-3.011700	2.924900	-8.807800	29.006756	-1.567615E-6	20.757462
2582.664383	-2.996800	2.923800	-8.761400	28.992788	-1.485109E-7	20.737699
2583.668666	-2.991600	2.922200	-8.741000	29.004926	-1.270594E-6	20.727167
2584.668039	-2.994600	2.920700	-8.745000	29.023432	-2.425679E-6	20.756720
2585.664424	-3.022300	2.918000	-8.818300	29.011716	-1.402603E-6	20.750132
2586.667305	-3.032100	2.915500	-8.839600	29.016179	-1.204589E-6	20.757473
2587.668433	-2.981800	2.915200	-8.691800	29.005281	-1.369601E-6	20.744596
2588.666680	-3.013600	2.913900	-8.780900	29.009842	-4.455328E-7	20.758200
2589.669377	-3.008800	2.910800	-8.756800	28.984281	-1.006574E-6	20.750465
2590.668998	-2.978500	2.909900	-8.666100	29.031765	-7.755571E-7	20.730028
2591.668993	-3.024400	2.907800	-8.793300	29.136460	-1.039577E-6	20.738792
2592.670994	-3.002600	2.905600	-8.723300	29.114790	5.775425E-7	20.756785
2593.669025	-3.024800	2.904200	-8.783500	29.029494	-2.029649E-6	20.755241
2594.667994	-3.014000	2.902000	-8.745300	28.986896	-9.735717E-7	20.756418
2595.670027	-3.015000	2.899100	-8.739900	29.058848	-1.105581E-6	20.737402
2596.671992	-2.997800	2.899700	-8.691600	29.167575	-1.798632E-6	20.733636
2597.668713	-3.017300	2.898000	-8.743400	29.189220	-2.854710E-6	20.758293
2598.668978	-2.998900	2.896400	-8.684900	29.262819	-2.986720E-6	20.762287
2599.669101	-2.976200	2.894000	-8.612400	29.306528	3.135231E-7	20.749438
2600.670405	-2.985500	2.891400	-8.631500	29.305860	2.475182E-7	20.733117
2601.671102	-3.014800	2.889500	-8.710900	29.253516	-2.145158E-7	20.751963
2602.671477	-3.017100	2.887500	-8.711200	29.203568	-1.699625E-6	20.771803
2603.670573	-2.988500	2.886600	-8.625700	29.165482	-3.135231E-7	20.748597
2604.671181	-2.976200	2.884800	-8.584600	29.145968	-2.425679E-6	20.743157
2605.671998	-2.986700	2.882300	-8.607400	29.213232	-1.699625E-6	20.754041
2606.670970	-2.999200	2.881300	-8.641600	29.229208	-2.788705E-6	20.740268
2607.674355	-2.993200	2.879700	-8.617900	29.277814	-1.006574E-6	20.735198
2608.673358	-2.995000	2.876900	-8.615900	29.228045	-6.105450E-7	20.740045
2609.674721	-2.981800	2.875800	-8.573900	29.156254	-1.765630E-6	20.774386
2610.674935	-2.992400	2.873300	-8.597400	29.135279	1.237591E-6	20.757517
2611.675130	-3.011000	2.871000	-8.643300	29.131914	-1.815134E-7	20.765032
2612.676135	-2.974300	2.870800	-8.537800	29.094792	-2.029649E-6	20.735686
2613.674127	-2.988100	2.867600	-8.567100	29.086324	-1.930642E-6	20.742327
2614.675127	-3.003800	2.865200	-8.605600	29.101010	-1.600618E-6	20.760445
2615.676131	-3.017500	2.863200	-8.638900	29.088234	-3.465255E-7	20.735242
2616.676128	-2.983400	2.862500	-8.539200	29.146684	-2.145158E-7	20.759052
2617.677453	-3.044700	2.858100	-8.701200	29.199608	1.567615E-6	20.751218
2618.677782	-3.009300	2.858600	-8.601800	29.221178	-3.135231E-7	20.759204
2619.678084	-3.008200	2.856400	-8.592100	29.214668	8.250607E-8	20.748375
2620.677881	-3.005500	2.854100	-8.577000	29.226630	-1.303596E-6	20.731506
2621.679878	-2.991800	2.851800	-8.531300	29.247557	1.798632E-6	20.745957
2622.678881	-2.999900	2.849400	-8.547000	29.350346	3.052725E-6	20.767047
2623.682880	-3.013100	2.847100	-8.577600	29.313502	1.138584E-6	20.770217
2624.679922	-2.993900	2.846000	-8.519200	29.287207	-5.115377E-7	20.748932
2625.680010	-2.989300	2.842700	-8.496100	29.236544	2.425679E-6	20.775637
2626.684792	-2.998600	2.842100	-8.520800	29.169431	7.095522E-7	20.764431
2627.681160	-2.970200	2.839000	-8.432100	29.094589	-1.815134E-7	20.762035
2628.682227	-2.989200	2.837700	-8.482400	29.100930	2.145158E-7	20.770322
2629.686260	-3.000900	2.834900	-8.506500	29.131914	6.105450E-7	20.767402
2630.684450	-2.993600	2.833900	-8.482300	29.176643	-3.465255E-7	20.758895
2631.685960	-2.999200	2.829400	-8.485500	29.179914	-2.095654E-6	20.758873
2632.687954	-3.009900	2.827100	-8.508500	29.185139	5.445401E-7	20.763190
2633.685956	-2.992000	2.825800	-8.453900	29.178355	-1.485109E-7	20.768207
2634.685956	-2.987200	2.822900	-8.431000	29.142443	2.805207E-7	20.762366
2635.687957	-3.001500	2.820100	-8.463700	29.108517	-2.805207E-7	20.758525
2636.690970	-3.014900	2.817500	-8.493400	29.109431	-2.260666E-6	20.754705
2637.686956	-2.992900	2.814600	-8.423100	29.158740	8.745644E-7	20.777839
2638.686641	-2.998600	2.813900	-8.435700	29.222929	1.072579E-6	20.789418
2639.689302	-3.007100	2.808900	-8.445600	29.290462	9.405693E-7	20.781136
2640.687259	-2.998500	2.806200	-8.413400	29.355036	-2.475182E-7	20.771775
2641.686188	-2.990800	2.806000	-8.391500	29.376926	2.475182E-7	20.767284
2642.689198	-2.966100	2.803600	-8.314800	29.417162	-6.765498E-7	20.768483
2643.687374	-3.007300	2.800900	-8.422800	29.442961	-1.650122E-8	20.771728
2644.688548	-3.005400	2.797500	-8.407500	29.398566	5.775425E-7	20.776293
2645.690223	-3.021600	2.794900	-8.444100	29.336568	-1.864637E-6	20.780662
2646.687953	-2.990200	2.793100	-8.350500	29.284742	1.815134E-7	20.778217
2647.689260	-2.992100	2.789300	-8.345200	29.246088	-1.815134E-7	20.779091
2648.688872	-2.997200	2.786000	-8.349400	29.312205	-2.145158E-7	20.780764
2649.689662	-3.018200	2.783900	-8.401200	29.340310	1.303596E-6	20.780640
2650.688846	-3.005900	2.781200	-8.359200	29.448040	1.204589E-6	20.783485
2651.689746	-2.993100	2.777900	-8.314100	29.489660	-1.270594E-6	20.778970
2652.689089	-3.002600	2.774600	-8.330400	29.480799	1.798632E-6	20.798013
2653.691184	-2.993700	2.772000	-8.297900	29.443735	-1.155085E-7	20.773930
2654.691833	-3.016500	2.769100	-8.352200	29.518577	-1.666623E-6	20.782515
2655.690124	-2.997600	2.765100	-8.287500	29.495206	2.194662E-6	20.776025
2656.690671	-3.023400	2.762700	-8.352200	29.478148	-1.501611E-6	20.779220
2657.690680	-2.984500	2.760300	-8.237100	29.397286	-1.369601E-6	20.772632
2658.690701	-3.014000	2.756400	-8.306800	29.409246	1.171586E-6	20.778997
2659.691194	-3.022500	2.752900	-8.319300	29.475304	-3.135231E-7	20.786311
2660.691078	-2.979800	2.750500	-8.195000	29.462751	1.402603E-6	20.767967
2661.691540	-3.002100	2.745500	-8.241800	29.416574	2.475182E-7	20.782589
2662.691891	-2.994300	2.744700	-8.218000	29.348138	4.785352E-7	20.772409
2663.691981	-3.039600	2.738600	-8.322900	29.371934	2.805207E-7	20.787857
2664.692024	-3.024300	2.737100	-8.277000	29.435836	-2.805207E-7	20.777823
2665.691842	-3.006800	2.734300	-8.220200	29.407810	2.475182E-7	20.786085
2666.695472	-3.034100	2.729700	-8.281200	29.396296	2.458681E-6	20.792023
2667.691057	-3.031100	2.726800	-8.264300	29.423655	2.425679E-6	20.800632
2668.693151	-3.019500	2.722800	-8.220700	29.411817	1.650122E-8	20.803874
2669.694770	-2.991800	2.720600	-8.138700	29.455818	-1.435606E-6	20.803653
2670.692770	-3.003500	2.716500	-8.158600	29.540338	7.095522E-7	20.802079
2671.692770	-3.000100	2.713900	-8.141100	29.555387	2.475182E-7	20.804921
2672.695583	-3.003400	2.709300	-8.136700	29.590366	1.468608E-6	20.809362
2673.692585	-2.994100	2.705200	-8.099300	29.588536	2.161659E-6	20.803251
2674.692675	-3.031000	2.699800	-8.182600	29.562962	8.250607E-8	20.809712
2675.696915	-2.988000	2.697000	-8.057100	29.560339	1.666623E-6	20.816552
2676.694807	-3.027600	2.692200	-8.149600	29.516816	1.650122E-8	20.791645
2677.698777	-2.994800	2.688000	-8.049300	29.492977	4.455328E-7	20.815504
2678.698849	-3.001200	2.685500	-8.059100	29.521225	-1.650122E-8	20.796563
2679.695160	-2.983100	2.682600	-8.001300	29.511494	-4.125304E-7	20.804773
2680.697704	-2.983200	2.677300	-7.985500	29.527318	1.138584E-6	20.789429
2681.700015	-3.004200	2.672000	-8.025900	29.526847	2.475182E-7	20.813136
2682.696869	-2.998100	2.667000	-7.993900	29.529670	-1.815134E-7	20.786584
2683.697468	-2.986100	2.663400	-7.951900	29.580619	3.135231E-7	20.803331
2684.700836	-2.998700	2.659000	-7.972500	29.608963	8.745644E-7	20.791601
2685.697836	-2.996800	2.653500	-7.950800	29.627383	1.369601E-6	20.816808
2686.708835	-2.991000	2.650300	-7.926000	29.642805	5.445401E-7	20.813864
2687.699818	-2.990500	2.645600	-7.910600	29.705928	-1.485109E-7	20.804957
2688.709379	-3.000500	2.640400	-7.921700	29.824043	2.062652E-6	20.788913
2689.698054	-2.981100	2.635700	-7.856600	29.861389	-1.039577E-6	20.821354
2690.699055	-2.996100	2.631200	-7.882600	29.840871	-1.270594E-6	20.818208
2691.698087	-2.999800	2.625100	-7.873900	29.866613	5.115377E-7	20.815716
2692.701270	-3.002800	2.619200	-7.863800	29.857531	-1.171586E-6	20.833111
2693.701789	-3.054800	2.612600	-7.979500	29.843648	-1.006574E-6	20.793034
2694.700180	-2.983900	2.609500	-7.785600	29.823603	-4.950365E-8	20.792263
2695.699058	-3.023600	2.602600	-7.868200	29.796405	3.135231E-7	20.811306
2696.702074	-3.006500	2.598500	-7.811100	29.783954	-9.735717E-7	20.807287
2697.700291	-3.008100	2.592200	-7.796300	29.824226	-1.485109E-7	20.820866
2698.704928	-3.012300	2.586400	-7.789600	29.882387	2.227664E-6	20.829726
2699.703961	-2.997600	2.580200	-7.732900	29.899020	1.815134E-7	20.819471
2700.700927	-2.979900	2.577100	-7.678000	29.866203	8.745644E-7	20.815777
2701.703928	-2.994100	2.569700	-7.693400	29.851804	1.831635E-6	20.819275
2702.702476	-3.008600	2.563700	-7.712300	29.792654	3.283742E-6	20.802782
2703.702477	-2.982300	2.558300	-7.627900	29.809159	2.161659E-6	20.827485
2704.704475	-2.991900	2.551600	-7.633300	29.873360	2.095654E-6	20.833425
2705.705476	-3.039100	2.544400	-7.732000	29.934315	1.072579E-6	20.804803
2706.702479	-2.982500	2.539900	-7.574000	29.864106	7.095522E-7	20.810344
2707.704475	-3.027100	2.532900	-7.666700	29.810401	1.732628E-6	20.800287
2708.707116	-2.991100	2.527400	-7.558300	29.772337	1.336598E-6	20.815488
2709.704116	-3.037400	2.520100	-7.653300	29.780329	1.897640E-6	20.821649
2710.705427	-2.961500	2.515500	-7.448600	29.858119	4.125304E-7	20.812367
2711.707620	-2.972600	2.509000	-7.457500	29.973046	4.455328E-7	20.822523
2712.705484	-2.965800	2.504300	-7.426400	30.084647	2.755703E-6	20.822225
2713.706933	-2.987900	2.495800	-7.456500	30.130596	6.435474E-7	20.827791
