LabVIEW Measurement	
Writer_Version	2
Reader_Version	2
Separator	Tab
Decimal_Separator	.
Multi_Headings	No
X_Columns	One
Time_Pref	Absolute
Operator	admin
Description	Clolumns are: time, Current, Voltage, Power, Battery Temp, and Chamber Temp
Date	2024/08/16
Time	13:07:17.8513970375061035156
***End_of_Header***	
	
Channels	6						
Samples	1	1	1	1	1	1	
Date	2024/09/19	2024/09/19	2024/09/19	2024/09/19	2024/09/19	2024/09/19	
Time	01:33:53.5502638816833496094	01:33:53.5578618049621582031	01:33:53.5667448043823242188	01:33:53.531261444091796875	01:33:53.531261444091796875	01:33:53.531261444091796875	
X_Dimension	Time	Time	Time	Time	Time	Time	
X0	0.0000000000000000E+0	0.0000000000000000E+0	0.0000000000000000E+0	0.0000000000000000E+0	0.0000000000000000E+0	0.0000000000000000E+0	
Delta_X	1.000000	1.000000	1.000000	1.000000	1.000000	1.000000	
***End_of_Header***							
X_Value	Untitled	Untitled 1	Untitled 2	Untitled 3	Untitled 4	Untitled 5	Comment
0.000000	0.018082	4.083800	0.074047	20.854182	0.000466	20.837114
1.001824	-2.998700	3.911600	-11.729000	20.859473	0.000464	20.834344
2.001382	-2.977000	3.907500	-11.631000	20.863765	0.000466	20.829153
3.002407	-3.005000	3.901000	-11.721000	20.877265	0.000466	20.842654
4.004162	-2.983100	3.898800	-11.630000	20.870353	0.000463	20.836216
5.003274	-2.998200	3.896000	-11.680000	20.877964	0.000464	20.838137
6.003626	-2.997600	3.892300	-11.666000	20.874770	0.000463	20.850115
7.003864	-3.010900	3.889600	-11.710000	20.878513	0.000460	20.825410
8.003980	-3.005900	3.889300	-11.689000	20.883404	0.000460	20.827456
9.002618	-3.011000	3.886900	-11.703000	20.898226	0.000460	20.830900
10.006370	-3.013200	3.883900	-11.701000	20.908607	0.000460	20.832747
10.998569	-3.000200	3.884000	-11.652000	20.910303	0.000460	20.859099
12.002579	-3.017200	3.881300	-11.710000	20.921008	0.000459	20.854632
13.002419	-2.991100	3.881400	-11.609000	20.914695	0.000459	20.844051
14.003376	-3.002700	3.880300	-11.650000	20.907184	0.000458	20.836540
15.001307	-2.995900	3.878600	-11.620000	20.949229	0.000459	20.833545
16.003716	-2.998800	3.879400	-11.633000	20.936229	0.000457	20.852311
17.005527	-2.983100	3.877100	-11.565000	20.942866	0.000456	20.827655
18.000970	-2.989800	3.877100	-11.591000	20.944089	0.000456	20.846896
19.004075	-2.988500	3.876500	-11.583000	20.965648	0.000456	20.850439
20.002807	-2.964400	3.875400	-11.487000	20.983213	0.000454	20.840507
21.003821	-3.004200	3.874000	-11.637000	20.996113	0.000456	20.856253
22.010628	-2.994600	3.873000	-11.597000	21.003224	0.000454	20.833495
23.002312	-2.998800	3.873000	-11.614000	21.008988	0.000454	20.850165
24.001506	-2.998500	3.871300	-11.607000	21.018769	0.000454	20.848094
25.003979	-2.997200	3.871100	-11.602000	21.038679	0.000454	20.859473
26.001232	-2.997800	3.870400	-11.601000	21.021763	0.000453	20.857251
27.010875	-3.022900	3.870400	-11.699000	21.062007	0.000452	20.854831
28.011767	-3.024600	3.869600	-11.703000	21.084812	0.000453	20.868631
29.007848	-3.032200	3.868500	-11.729000	21.070915	0.000451	20.866111
30.005300	-2.989400	3.868400	-11.564000	21.072387	0.000453	20.853359
31.003572	-2.990100	3.868900	-11.567000	21.089003	0.000453	20.853384
32.006375	-3.032700	3.867000	-11.726000	21.105719	0.000451	20.853509
33.006492	-2.995000	3.866900	-11.580000	21.100954	0.000453	20.869130
34.012094	-3.009400	3.867200	-11.637000	21.099232	0.000451	20.865986
35.001585	-2.990100	3.866900	-11.562000	21.130942	0.000452	20.872100
36.004964	-3.015600	3.864900	-11.654000	21.145561	0.000452	20.855904
37.006890	-3.014300	3.865800	-11.652000	21.131416	0.000450	20.883005
38.006536	-3.009400	3.865000	-11.631000	21.159532	0.000452	20.858500
39.006358	-3.013800	3.865000	-11.647000	21.164073	0.000450	20.848343
40.004677	-2.999100	3.864600	-11.590000	21.168314	0.000452	20.887197
41.005814	-2.995900	3.865400	-11.579000	21.188446	0.000451	20.862293
42.004950	-3.025400	3.864100	-11.689000	21.206907	0.000450	20.868432
43.005183	-3.002900	3.864500	-11.602000	21.207880	0.000451	20.868457
44.006561	-3.004900	3.863400	-11.608000	21.207306	0.000449	20.865986
45.009306	-3.001500	3.863500	-11.595000	21.203589	0.000449	20.859897
46.004229	-2.992500	3.864000	-11.562000	21.248043	0.000449	20.885874
47.007344	-3.003900	3.862100	-11.600000	21.244351	0.000447	20.878862
48.008179	-2.993500	3.861100	-11.556000	21.247794	0.000448	20.874720
49.007250	-3.004100	3.861600	-11.599000	21.275932	0.000448	20.876317
50.008442	-2.992500	3.861200	-11.553000	21.276282	0.000450	20.871925
51.004739	-3.011600	3.861600	-11.629000	21.279226	0.000449	20.898576
52.008611	-3.004800	3.862100	-11.604000	21.293793	0.000449	20.880909
53.009551	-3.018100	3.860800	-11.651000	21.317540	0.000450	20.871950
54.009096	-3.018100	3.860900	-11.651000	21.298832	0.000448	20.865088
55.005262	-2.983600	3.860800	-11.518000	21.316493	0.000449	20.875643
56.005778	-2.987800	3.860900	-11.535000	21.336848	0.000450	20.868507
57.006670	-3.012100	3.859500	-11.624000	21.349069	0.000447	20.879312
58.007009	-3.001800	3.859000	-11.583000	21.345802	0.000448	20.896430
59.005467	-2.997800	3.858400	-11.565000	21.361367	0.000448	20.869805
60.009364	-2.990200	3.858900	-11.538000	21.353585	0.000449	20.872450
61.009775	-2.998500	3.858900	-11.570000	21.376408	0.000450	20.888171
62.008384	-3.019600	3.858300	-11.649000	21.372816	0.000447	20.882681
63.008859	-3.009800	3.858600	-11.613000	21.387758	0.000449	20.877242
64.009261	-3.023300	3.858600	-11.665000	21.398283	0.000447	20.889668
65.007030	-2.992200	3.858900	-11.545000	21.428239	0.000452	20.888346
66.007055	-2.994200	3.857900	-11.550000	21.436046	0.000450	20.895682
67.009471	-2.991000	3.859100	-11.542000	21.427042	0.000448	20.880037
68.010792	-3.003000	3.859400	-11.589000	21.435173	0.000448	20.891016
69.009468	-3.008400	3.857100	-11.602000	21.446472	0.000450	20.896157
70.019753	-3.018200	3.856600	-11.639000	21.478845	0.000450	20.908160
71.012780	-3.024300	3.856400	-11.662000	21.472261	0.000450	20.900624
72.011850	-2.980600	3.856800	-11.495000	21.479419	0.000449	20.879339
73.011139	-2.966600	3.856500	-11.439000	21.479769	0.000448	20.906239
74.013579	-2.994100	3.855300	-11.543000	21.480018	0.000450	20.905066
75.009283	-3.023700	3.854700	-11.654000	21.502365	0.000450	20.907037
76.014730	-3.000000	3.855900	-11.567000	21.537107	0.000450	20.888697
77.012530	-2.977500	3.855300	-11.478000	21.513613	0.000449	20.885104
78.015098	-2.990800	3.854400	-11.526000	21.525735	0.000446	20.914774
79.015275	-2.993000	3.856800	-11.543000	21.525834	0.000451	20.895435
80.017562	-2.994900	3.856300	-11.548000	21.560949	0.000448	20.896433
81.015883	-2.995900	3.854500	-11.547000	21.559003	0.000451	20.910606
82.012397	-3.004600	3.853600	-11.577000	21.579903	0.000452	20.906390
83.014867	-3.003900	3.854700	-11.578000	21.582646	0.000453	20.901549
84.016277	-3.003600	3.854500	-11.576000	21.597684	0.000448	20.920389
85.015025	-3.016000	3.854100	-11.623000	21.609879	0.000450	20.910308
86.013999	-3.017300	3.852800	-11.624000	21.619181	0.000452	20.907763
87.011966	-3.012500	3.853800	-11.609000	21.607011	0.000451	20.923084
88.016342	-2.996500	3.853800	-11.547000	21.639156	0.000449	20.908312
89.017939	-2.991300	3.853600	-11.526000	21.657410	0.000451	20.907613
90.021674	-2.993600	3.852600	-11.533000	21.648832	0.000449	20.902822
91.017880	-3.004400	3.853700	-11.577000	21.649555	0.000451	20.906865
92.018464	-2.999100	3.853600	-11.556000	21.653096	0.000450	20.897607
93.015243	-3.004200	3.852400	-11.573000	21.669106	0.000450	20.897982
94.020817	-3.007400	3.852700	-11.586000	21.680776	0.000450	20.904445
95.014913	-3.011900	3.851400	-11.599000	21.683170	0.000452	20.900203
96.018143	-3.010400	3.852300	-11.597000	21.690701	0.000455	20.909161
97.020903	-3.011500	3.852000	-11.599000	21.689928	0.000453	20.895113
98.019034	-3.002400	3.851900	-11.564000	21.711946	0.000453	20.902923
99.020650	-2.981700	3.853400	-11.489000	21.713841	0.000452	20.908138
100.021158	-2.994300	3.852100	-11.533000	21.727307	0.000453	20.899804
101.020684	-2.989600	3.850900	-11.512000	21.743016	0.000454	20.890871
102.018227	-2.988200	3.853500	-11.513000	21.746557	0.000454	20.884458
103.023946	-3.010000	3.852200	-11.595000	21.744761	0.000453	20.893091
104.022370	-3.003500	3.852400	-11.569000	21.765931	0.000455	20.872081
105.023234	-2.991700	3.852300	-11.524000	21.760970	0.000454	20.873279
106.020136	-2.987600	3.851400	-11.506000	21.770196	0.000454	20.875400
107.029406	-2.997100	3.850300	-11.539000	21.778199	0.000455	20.863971
108.023135	-3.001400	3.850300	-11.555000	21.788297	0.000454	20.886404
109.025180	-2.976500	3.851800	-11.464000	21.797449	0.000455	20.886081
110.024229	-2.997400	3.848800	-11.535000	21.823105	0.000454	20.871932
111.024654	-2.992300	3.850400	-11.521000	21.823230	0.000455	20.882013
112.026266	-3.008800	3.849500	-11.581000	21.837193	0.000457	20.868962
113.023458	-2.999300	3.849600	-11.546000	21.853274	0.000457	20.872256
114.026826	-3.006700	3.848800	-11.571000	21.877334	0.000457	20.872156
115.026069	-3.012600	3.849600	-11.596000	21.859731	0.000454	20.876822
116.031343	-3.015500	3.849300	-11.606000	21.878082	0.000456	20.875749
117.024053	-3.019300	3.849500	-11.621000	21.875314	0.000457	20.885780
118.031751	-3.002200	3.849200	-11.555000	21.886757	0.000456	20.849348
119.030817	-2.971700	3.848800	-11.437000	21.902913	0.000455	20.871208
120.027728	-2.994400	3.848900	-11.525000	21.916601	0.000456	20.876847
121.027363	-3.007800	3.849000	-11.577000	21.903486	0.000458	20.882686
122.026495	-3.023000	3.847400	-11.630000	21.920639	0.000456	20.869036
123.026823	-2.991300	3.848600	-11.510000	21.907375	0.000458	20.861924
124.029262	-2.991800	3.848300	-11.512000	21.920140	0.000458	20.867588
125.031499	-3.004500	3.847300	-11.558000	21.938938	0.000457	20.850844
126.025388	-2.981100	3.848200	-11.471000	21.933803	0.000457	20.852816
127.030265	-2.994500	3.847100	-11.519000	21.960005	0.000459	20.848225
128.027269	-2.996000	3.846600	-11.524000	21.965713	0.000458	20.856309
129.033432	-2.990800	3.846600	-11.503000	21.969104	0.000458	20.848799
130.029450	-2.988600	3.847200	-11.496000	21.968381	0.000459	20.866565
131.031413	-3.011800	3.846400	-11.583000	21.984186	0.000458	20.867688
132.038890	-3.019400	3.845100	-11.609000	22.015573	0.000458	20.858331
133.036263	-2.987100	3.847200	-11.491000	22.020708	0.000460	20.858730
134.032973	-2.991300	3.846000	-11.503000	22.033895	0.000461	20.853439
135.032414	-2.999100	3.845600	-11.532000	22.014426	0.000460	20.859553
136.035935	-3.002700	3.846300	-11.548000	22.010063	0.000461	20.849022
137.032248	-2.991300	3.846400	-11.505000	22.041673	0.000458	20.850795
138.034542	-2.998400	3.846000	-11.532000	22.052840	0.000463	20.824991
139.032681	-2.999000	3.845600	-11.532000	22.045088	0.000461	20.847575
140.033800	-2.997400	3.845800	-11.527000	22.048004	0.000463	20.824417
141.034930	-3.023400	3.845500	-11.625000	22.072433	0.000462	20.827536
142.030797	-3.024600	3.843600	-11.625000	22.084823	0.000463	20.854637
143.037326	-2.987900	3.844700	-11.487000	22.071785	0.000462	20.839214
144.032870	-2.985900	3.845900	-11.482000	22.078965	0.000462	20.866315
145.035432	-3.003000	3.844800	-11.544000	22.103842	0.000464	20.852815
146.034160	-3.009200	3.844000	-11.566000	22.098931	0.000462	20.830355
147.036455	-2.985300	3.844700	-11.477000	22.112566	0.000464	20.844006
148.034248	-3.025800	3.843600	-11.629000	22.140035	0.000463	20.836894
149.035028	-3.013300	3.843400	-11.581000	22.142503	0.000464	20.821347
150.035975	-3.008000	3.842900	-11.558000	22.144447	0.000465	20.825664
151.039558	-3.001400	3.842900	-11.533000	22.163789	0.000465	20.808045
152.037861	-3.011300	3.843100	-11.572000	22.183381	0.000465	20.838091
153.035453	-3.015700	3.842600	-11.587000	22.179068	0.000467	20.857954
154.039792	-2.996700	3.843400	-11.517000	22.195918	0.000465	20.843531
155.036082	-3.003400	3.842300	-11.539000	22.189712	0.000465	20.830205
156.036602	-2.999900	3.841400	-11.523000	22.187618	0.000464	20.846126
157.035987	-3.000500	3.841800	-11.526000	22.220793	0.000466	20.830504
158.036098	-2.997300	3.840500	-11.510000	22.222612	0.000467	20.817153
159.033829	-3.012900	3.842000	-11.575000	22.226376	0.000466	20.830879
160.038635	-3.001900	3.840700	-11.528000	22.249679	0.000468	20.834771
161.035276	-2.992900	3.841800	-11.497000	22.246315	0.000468	20.822868
162.037557	-3.015800	3.840100	-11.580000	22.230937	0.000465	20.835446
163.035551	-3.001000	3.840500	-11.524000	22.233429	0.000469	20.835096
164.042471	-2.988300	3.840700	-11.476000	22.238215	0.000467	20.837517
165.037015	-3.002700	3.840000	-11.530000	22.258328	0.000468	20.832999
166.036634	-3.010300	3.840400	-11.559000	22.245542	0.000469	20.817827
167.041511	-2.975100	3.841500	-11.428000	22.242127	0.000467	20.813460
168.050376	-2.972900	3.840000	-11.416000	22.261320	0.000468	20.827934
169.038938	-3.026400	3.839700	-11.620000	22.268024	0.000470	20.834173
170.039831	-2.999300	3.839000	-11.513000	22.306580	0.000469	20.841010
171.042173	-2.999000	3.839100	-11.512000	22.295090	0.000469	20.825239
172.041332	-3.021800	3.838900	-11.599000	22.302866	0.000471	20.817852
173.038177	-3.025800	3.838000	-11.612000	22.300972	0.000470	20.814533
174.045018	-2.997300	3.838500	-11.504000	22.300299	0.000473	20.825713
175.043025	-3.023300	3.837600	-11.600000	22.320486	0.000471	20.831228
176.045580	-3.001600	3.838100	-11.520000	22.337633	0.000472	20.828957
177.047295	-3.012900	3.836800	-11.558000	22.345184	0.000470	20.837940
178.047146	-2.983800	3.838600	-11.452000	22.372323	0.000472	20.813435
179.042764	-2.997600	3.837200	-11.502000	22.373819	0.000472	20.822993
180.048930	-2.980800	3.837000	-11.436000	22.386453	0.000472	20.822843
181.044075	-2.997900	3.838000	-11.505000	22.393481	0.000474	20.837940
182.046008	-2.989400	3.837500	-11.471000	22.410900	0.000474	20.821245
183.051828	-2.968500	3.837600	-11.391000	22.400708	0.000473	20.832375
184.048316	-3.006400	3.836300	-11.532000	22.404969	0.000474	20.838539
185.044629	-3.001300	3.836800	-11.515000	22.395674	0.000473	20.827334
186.048161	-2.979100	3.837200	-11.430000	22.404346	0.000474	20.826062
187.047578	-3.010700	3.836200	-11.548000	22.433702	0.000474	20.838863
188.044962	-3.007800	3.836100	-11.537000	22.434100	0.000475	20.819348
189.048464	-3.019800	3.836200	-11.583000	22.443072	0.000475	20.826910
190.045660	-3.001600	3.836700	-11.515000	22.457599	0.000475	20.814906
191.049013	-3.009900	3.834700	-11.540000	22.451644	0.000479	20.808942
192.049212	-3.014300	3.834800	-11.558000	22.471080	0.000476	20.829355
193.044827	-3.000400	3.834800	-11.504000	22.454360	0.000477	20.802179
194.049861	-3.013400	3.835900	-11.558000	22.438959	0.000475	20.813309
195.051817	-2.992600	3.834200	-11.473000	22.435919	0.000478	20.813583
196.050139	-3.002000	3.834200	-11.509000	22.481496	0.000477	20.821294
197.050216	-2.994300	3.834900	-11.482000	22.474918	0.000479	20.812335
198.051867	-3.006400	3.834300	-11.525000	22.503823	0.000479	20.801455
199.055003	-2.982800	3.834900	-11.438000	22.494404	0.000479	20.808143
200.049225	-2.996400	3.833300	-11.484000	22.535992	0.000481	20.807120
201.050783	-2.982200	3.834800	-11.436000	22.534772	0.000480	20.804475
202.050982	-2.999500	3.834300	-11.500000	22.562007	0.000479	20.811363
203.049677	-2.980000	3.834600	-11.426000	22.546134	0.000481	20.813958
204.056190	-2.983300	3.833500	-11.435000	22.543767	0.000484	20.817751
205.054293	-2.993000	3.832700	-11.471000	22.543119	0.000481	20.813783
206.053172	-2.991500	3.832600	-11.464000	22.579997	0.000481	20.808044
207.053442	-2.993500	3.833000	-11.473000	22.585428	0.000486	20.826760
208.051499	-2.989700	3.833100	-11.459000	22.594473	0.000483	20.807844
209.048333	-3.000400	3.831700	-11.495000	22.619314	0.000482	20.809965
210.050520	-3.022800	3.832300	-11.583000	22.611565	0.000483	20.788928
211.054638	-3.002300	3.830800	-11.501000	22.618367	0.000483	20.804750
212.054912	-3.005300	3.830900	-11.511000	22.620336	0.000482	20.804824
213.052020	-2.985400	3.831300	-11.437000	22.645102	0.000483	20.797862
214.052111	-2.999300	3.832800	-11.496000	22.639371	0.000484	20.793071
215.056342	-2.991000	3.832000	-11.461000	22.656214	0.000483	20.799509
216.057437	-3.018800	3.830200	-11.561000	22.629256	0.000485	20.813285
217.058359	-2.998100	3.830300	-11.482000	22.638948	0.000484	20.818251
218.054506	-3.017800	3.830700	-11.559000	22.646223	0.000484	20.818425
219.055379	-3.002900	3.830600	-11.502000	22.626939	0.000485	20.796739
220.060759	-3.022400	3.828900	-11.572000	22.648914	0.000487	20.782714
221.062199	-3.002200	3.829200	-11.495000	22.664910	0.000487	20.804426
222.063507	-3.005600	3.830000	-11.511000	22.633318	0.000487	20.789378
223.061217	-2.988200	3.829300	-11.442000	22.662319	0.000487	20.818900
224.058705	-3.031500	3.828500	-11.605000	22.669544	0.000487	20.786782
225.059362	-3.000000	3.828800	-11.485000	22.659628	0.000487	20.806722
226.061094	-3.010600	3.828100	-11.524000	22.697797	0.000486	20.792323
227.059963	-2.998100	3.828400	-11.477000	22.715660	0.000487	20.800258
228.060428	-2.991800	3.826900	-11.448000	22.709755	0.000489	20.813784
229.064051	-2.990100	3.828600	-11.446000	22.745133	0.000490	20.788529
230.059427	-3.002800	3.827300	-11.491000	22.756144	0.000487	20.814732
231.068015	-3.006800	3.828100	-11.509000	22.734296	0.000489	20.788579
232.062787	-2.988200	3.828200	-11.438000	22.754525	0.000486	20.778023
233.063753	-3.001900	3.827800	-11.490000	22.787982	0.000489	20.792098
234.063094	-2.988100	3.827000	-11.435000	22.794384	0.000491	20.809891
235.060344	-3.004400	3.825800	-11.493000	22.821114	0.000491	20.801107
236.063064	-2.992300	3.828200	-11.454000	22.808011	0.000488	20.794619
237.071114	-3.025300	3.825600	-11.573000	22.840719	0.000489	20.780444
238.065021	-2.991400	3.827300	-11.448000	22.829161	0.000492	20.786408
239.062660	-3.003200	3.825400	-11.487000	22.843360	0.000490	20.791150
240.066452	-3.014700	3.825100	-11.531000	22.853350	0.000489	20.787407
241.060350	-2.984800	3.826300	-11.420000	22.873327	0.000492	20.789877
242.064885	-3.014000	3.824400	-11.526000	22.886131	0.000492	20.780419
243.061397	-2.996600	3.824700	-11.461000	22.887352	0.000492	20.777375
244.061401	-2.981500	3.825000	-11.404000	22.902098	0.000491	20.778872
245.062050	-2.998100	3.824600	-11.466000	22.906109	0.000492	20.802805
246.062375	-3.010100	3.822700	-11.506000	22.909796	0.000494	20.790377
247.063218	-2.977900	3.824300	-11.387000	22.907056	0.000493	20.774829
248.067107	-3.008100	3.822500	-11.498000	22.925140	0.000493	20.769714
249.064702	-3.000300	3.823100	-11.470000	22.900181	0.000493	20.783115
250.061673	-3.004600	3.824600	-11.490000	22.901949	0.000493	20.782042
251.068246	-2.977100	3.824700	-11.386000	22.892932	0.000496	20.790552
252.062796	-3.014400	3.822400	-11.521000	22.900853	0.000495	20.799910
253.065411	-2.992800	3.823100	-11.441000	22.902746	0.000496	20.782840
254.065819	-3.006300	3.821900	-11.489000	22.942875	0.000495	20.764722
255.062434	-2.985000	3.822800	-11.409000	22.968456	0.000497	20.778498
256.068906	-3.000700	3.821400	-11.466000	22.963848	0.000494	20.782891
257.065799	-3.008200	3.821800	-11.495000	22.970797	0.000495	20.768516
258.073654	-2.988600	3.821700	-11.421000	22.933833	0.000495	20.786010
259.067239	-3.002400	3.820000	-11.468000	22.960336	0.000497	20.767518
260.065215	-3.007700	3.820900	-11.491000	22.982529	0.000497	20.781693
261.064210	-2.993300	3.820800	-11.435000	22.983376	0.000496	20.763575
262.068488	-2.978500	3.821800	-11.383000	22.968780	0.000496	20.786884
263.067278	-3.014100	3.819300	-11.510000	22.980786	0.000498	20.792274
264.067107	-3.001900	3.819500	-11.464000	22.946313	0.000499	20.780969
265.065028	-3.004400	3.820800	-11.479000	22.990275	0.000499	20.775229
266.063913	-3.009200	3.819700	-11.494000	22.986190	0.000496	20.785361
267.073627	-2.980200	3.821300	-11.387000	22.987610	0.000501	20.783939
268.067993	-3.009300	3.820000	-11.495000	22.997872	0.000500	20.768142
269.070671	-2.992100	3.820400	-11.430000	23.028408	0.000500	20.775978
270.063121	-2.989200	3.817800	-11.411000	23.016503	0.000500	20.781593
271.068402	-3.005100	3.819900	-11.479000	23.015905	0.000500	20.783365
272.066562	-2.979500	3.819000	-11.378000	23.014211	0.000500	20.775978
273.067979	-2.992700	3.818600	-11.427000	23.031546	0.000502	20.772010
274.070812	-2.981200	3.819100	-11.384000	23.024174	0.000501	20.769839
275.067206	-3.012200	3.818000	-11.500000	23.044174	0.000500	20.763325
276.070711	-2.985100	3.817800	-11.396000	23.053688	0.000506	20.758633
277.071527	-2.992900	3.817400	-11.424000	23.064845	0.000501	20.782142
278.068172	-2.973500	3.817100	-11.349000	23.083251	0.000503	20.770238
279.078204	-3.000200	3.816500	-11.449000	23.075978	0.000504	20.784762
280.075023	-2.981800	3.818600	-11.385000	23.097496	0.000506	20.782616
281.072351	-3.009100	3.814600	-11.478000	23.086713	0.000505	20.795518
282.071987	-2.987800	3.817300	-11.404000	23.109575	0.000504	20.794245
283.069811	-2.993700	3.816800	-11.425000	23.130420	0.000503	20.770088
284.073099	-2.991300	3.815100	-11.410000	23.140432	0.000503	20.764947
285.076341	-2.977100	3.815800	-11.359000	23.153332	0.000505	20.756537
286.068802	-3.000400	3.815900	-11.449000	23.142997	0.000505	20.768940
287.073983	-2.980200	3.816900	-11.374000	23.138489	0.000504	20.751146
288.070756	-2.986500	3.814800	-11.390000	23.152161	0.000503	20.755838
289.080348	-2.972000	3.816300	-11.341000	23.143022	0.000506	20.756162
290.076540	-2.987800	3.815700	-11.400000	23.156021	0.000504	20.764921
291.078670	-3.003500	3.814200	-11.454000	23.166431	0.000504	20.756386
292.071264	-3.013500	3.813800	-11.492000	23.181771	0.000506	20.763224
293.071453	-3.004500	3.813400	-11.457000	23.197261	0.000506	20.763099
294.074832	-3.010300	3.813500	-11.479000	23.184261	0.000506	20.752443
295.075361	-2.983600	3.813100	-11.376000	23.180825	0.000506	20.760853
296.078786	-3.010700	3.813400	-11.480000	23.175968	0.000508	20.759780
297.071928	-2.983400	3.814400	-11.379000	23.166829	0.000509	20.739715
298.076845	-2.999200	3.812900	-11.435000	23.197659	0.000506	20.763972
299.077384	-3.004500	3.812900	-11.455000	23.172457	0.000508	20.742036
300.075770	-2.993600	3.812300	-11.411000	23.216584	0.000510	20.737418
301.075837	-3.007900	3.810700	-11.461000	23.236830	0.000510	20.744906
302.072266	-3.001100	3.811400	-11.438000	23.231775	0.000508	20.765444
303.073079	-3.008600	3.810800	-11.464000	23.251472	0.000510	20.725913
304.075093	-2.989500	3.812000	-11.395000	23.271692	0.000512	20.756135
305.073846	-3.000300	3.811100	-11.434000	23.278340	0.000511	20.764221
306.074355	-3.001900	3.811000	-11.440000	23.285462	0.000510	20.758556
307.076939	-3.006000	3.810800	-11.454000	23.290193	0.000511	20.741012
308.085746	-3.001600	3.809800	-11.435000	23.277493	0.000511	20.740612
309.076294	-2.977700	3.808700	-11.341000	23.272090	0.000513	20.730455
310.073658	-2.994100	3.808400	-11.401000	23.245844	0.000511	20.750146
311.077581	-2.994900	3.809800	-11.409000	23.261034	0.000513	20.734074
312.077406	-2.993800	3.809500	-11.403000	23.284989	0.000511	20.733425
313.082266	-3.004900	3.808100	-11.442000	23.304661	0.000514	20.740338
314.079270	-2.997600	3.809000	-11.417000	23.307026	0.000512	20.732277
315.078209	-2.980100	3.809900	-11.353000	23.298834	0.000513	20.732127
316.072717	-3.022500	3.807000	-11.505000	23.312305	0.000511	20.738042
317.081829	-2.986500	3.808200	-11.373000	23.301922	0.000513	20.755612
318.076486	-3.009600	3.807900	-11.458000	23.306803	0.000514	20.754813
319.073564	-2.997600	3.808300	-11.414000	23.311982	0.000515	20.747676
320.081654	-3.015700	3.807000	-11.480000	23.304387	0.000516	20.744332
321.079426	-3.018200	3.806600	-11.487000	23.332002	0.000515	20.745929
322.082535	-2.987400	3.806800	-11.372000	23.321992	0.000514	20.745380
323.075356	-2.996200	3.806100	-11.403000	23.343630	0.000517	20.752368
324.078751	-3.005900	3.807300	-11.443000	23.342709	0.000514	20.717779
325.076097	-3.000900	3.805600	-11.420000	23.351324	0.000515	20.747277
326.082303	-3.001600	3.806200	-11.424000	23.366786	0.000517	20.738592
327.085909	-2.977800	3.806700	-11.334000	23.384639	0.000518	20.748425
328.080432	-2.982000	3.805000	-11.345000	23.377394	0.000516	20.728361
329.080479	-2.998000	3.804700	-11.405000	23.406053	0.000516	20.761353
330.076546	-2.999400	3.806100	-11.415000	23.408268	0.000516	20.745556
331.075559	-3.005900	3.805700	-11.439000	23.398484	0.000515	20.758983
332.079319	-3.017400	3.802800	-11.474000	23.426519	0.000517	20.726389
333.081493	-3.031900	3.803300	-11.530000	23.436329	0.000517	20.738120
334.076450	-3.017000	3.803300	-11.473000	23.439615	0.000517	20.760855
335.080249	-3.013300	3.805100	-11.464000	23.434088	0.000517	20.742986
336.086930	-3.010100	3.804000	-11.450000	23.457243	0.000517	20.737271
337.079942	-3.001000	3.802100	-11.409000	23.472654	0.000518	20.744184
338.080744	-2.968300	3.803900	-11.290000	23.486472	0.000520	20.737646
339.077577	-3.003200	3.802800	-11.419000	23.481916	0.000517	20.760107
340.081394	-3.018700	3.802500	-11.478000	23.484381	0.000519	20.763526
341.076816	-3.002600	3.802200	-11.415000	23.494065	0.000522	20.735300
342.078258	-3.023800	3.800600	-11.492000	23.492174	0.000520	20.740042
343.082234	-3.002200	3.802000	-11.413000	23.487170	0.000519	20.734552
344.083187	-3.021600	3.800800	-11.484000	23.516149	0.000520	20.739893
345.077076	-2.986300	3.801000	-11.350000	23.522024	0.000520	20.755740
346.079685	-2.988100	3.801000	-11.357000	23.561383	0.000521	20.752047
347.082297	-3.011700	3.800200	-11.444000	23.542041	0.000519	20.739769
348.085203	-3.000100	3.799800	-11.398000	23.515925	0.000519	20.750574
349.080624	-2.988400	3.801300	-11.360000	23.469170	0.000520	20.747805
350.077186	-2.988600	3.799500	-11.354000	23.518515	0.000519	20.758386
351.080112	-2.981700	3.799700	-11.329000	23.551003	0.000520	20.746383
352.088592	-2.995900	3.799500	-11.382000	23.572338	0.000524	20.739320
353.084719	-2.981000	3.799400	-11.325000	23.574678	0.000523	20.758736
354.085897	-2.998100	3.798700	-11.388000	23.594718	0.000523	20.742315
355.085052	-2.984600	3.799500	-11.340000	23.581026	0.000523	20.740443
356.083169	-2.990000	3.799100	-11.358000	23.579383	0.000521	20.742589
357.088646	-2.986900	3.799200	-11.347000	23.557999	0.000523	20.745335
358.086771	-3.016100	3.796900	-11.450000	23.550705	0.000524	20.752248
359.087821	-2.975000	3.797700	-11.297000	23.553493	0.000524	20.770690
360.086709	-3.000700	3.798000	-11.395000	23.519312	0.000524	20.752073
361.081994	-3.005600	3.797700	-11.414000	23.511594	0.000524	20.742914
362.084038	-3.003100	3.797200	-11.402000	23.547867	0.000524	20.760783
363.088323	-3.025900	3.795200	-11.482000	23.567285	0.000524	20.749428
364.083730	-3.022000	3.796100	-11.471000	23.580579	0.000524	20.749004
365.088638	-2.990100	3.796800	-11.352000	23.574306	0.000526	20.757888
366.084400	-2.999600	3.796600	-11.388000	23.584587	0.000525	20.748755
367.093019	-3.003500	3.795400	-11.398000	23.611921	0.000524	20.755293
368.086941	-2.990700	3.795500	-11.350000	23.627380	0.000523	20.765576
369.087857	-2.994700	3.796000	-11.367000	23.680177	0.000527	20.779152
370.091755	-3.007100	3.794500	-11.410000	23.640573	0.000525	20.753197
371.088396	-2.998700	3.794300	-11.376000	23.656380	0.000525	20.741543
372.097654	-3.008700	3.793700	-11.413000	23.643536	0.000525	20.765651
373.091242	-3.016700	3.793500	-11.443000	23.655211	0.000525	20.730887
374.089262	-3.015000	3.794700	-11.439000	23.661508	0.000527	20.762331
375.091335	-2.980900	3.794200	-11.310000	23.704596	0.000528	20.744837
376.087579	-3.009300	3.794300	-11.418000	23.721348	0.000526	20.757840
377.089574	-2.997200	3.794800	-11.373000	23.709973	0.000527	20.778204
378.090631	-2.996300	3.794700	-11.370000	23.719481	0.000527	20.764503
379.089457	-2.997800	3.793800	-11.372000	23.677115	0.000526	20.771341
380.089330	-3.016000	3.792200	-11.437000	23.696780	0.000528	20.758812
381.090345	-2.998700	3.792800	-11.372000	23.691180	0.000526	20.754146
382.090131	-3.003000	3.791900	-11.385000	23.708852	0.000528	20.798892
383.090136	-3.017400	3.791900	-11.441000	23.719407	0.000527	20.742142
384.091481	-2.997400	3.791900	-11.365000	23.704795	0.000528	20.749779
385.092183	-3.021200	3.791500	-11.454000	23.723040	0.000529	20.768071
386.095446	-2.991300	3.791400	-11.339000	23.730309	0.000529	20.753073
387.090486	-3.000400	3.792200	-11.378000	23.742032	0.000529	20.753921
388.095553	-2.993200	3.792800	-11.352000	23.731578	0.000528	20.765251
389.098375	-2.999000	3.791900	-11.371000	23.742230	0.000529	20.758862
390.091342	-3.014700	3.791500	-11.429000	23.757812	0.000527	20.771166
391.092295	-2.986600	3.789700	-11.317000	23.742754	0.000528	20.765551
392.089696	-2.991900	3.790600	-11.340000	23.759280	0.000529	20.767422
393.096291	-2.990200	3.789600	-11.330000	23.748677	0.000530	20.778128
394.096000	-3.006200	3.787700	-11.386000	23.755497	0.000530	20.754619
395.094899	-3.016900	3.788800	-11.430000	23.775285	0.000529	20.773037
396.103793	-2.974900	3.789100	-11.272000	23.780785	0.000531	20.801311
397.096587	-3.008400	3.787500	-11.393000	23.784917	0.000530	20.773212
398.103903	-3.004600	3.787800	-11.380000	23.838204	0.000528	20.788708
399.095555	-2.991400	3.787500	-11.329000	23.848084	0.000528	20.769218
400.096356	-2.999300	3.787600	-11.359000	23.843803	0.000528	20.765399
401.095644	-2.986600	3.788400	-11.313000	23.851469	0.000532	20.798690
402.101002	-3.006000	3.787000	-11.382000	23.851121	0.000531	20.756615
403.095627	-3.005500	3.785800	-11.377000	23.831683	0.000530	20.789282
404.098052	-2.994300	3.786300	-11.337000	23.854306	0.000530	20.765973
405.105248	-3.004600	3.786800	-11.377000	23.870284	0.000531	20.784365
406.100154	-3.017800	3.785500	-11.423000	23.867471	0.000531	20.782967
407.100175	-3.003500	3.786500	-11.372000	23.892459	0.000532	20.779100
408.098436	-3.016800	3.784800	-11.417000	23.868019	0.000533	20.776404
409.095964	-3.002900	3.785600	-11.368000	23.862194	0.000532	20.770089
410.099898	-3.013700	3.784600	-11.405000	23.846291	0.000535	20.787808
411.101095	-3.030500	3.784800	-11.469000	23.881432	0.000531	20.787958
412.102197	-2.999000	3.783400	-11.345000	23.850721	0.000533	20.780870
413.100925	-3.040100	3.783700	-11.502000	23.849376	0.000533	20.782367
414.098817	-3.002300	3.784100	-11.361000	23.861248	0.000531	20.780046
415.100894	-3.022800	3.784200	-11.438000	23.878321	0.000532	20.783890
416.101040	-3.006200	3.784200	-11.375000	23.873817	0.000534	20.793123
417.102395	-3.001600	3.783900	-11.357000	23.912342	0.000535	20.784813
418.098568	-3.001500	3.783700	-11.355000	23.914830	0.000533	20.807697
419.098716	-2.996600	3.781400	-11.330000	23.930235	0.000533	20.775729
420.101835	-3.002100	3.782300	-11.354000	23.929413	0.000534	20.792923
421.106151	-3.018400	3.780700	-11.411000	23.936979	0.000533	20.804777
422.104815	-2.991200	3.781300	-11.311000	23.954125	0.000534	20.784512
423.103436	-3.002100	3.782500	-11.355000	23.963980	0.000534	20.785861
424.106340	-3.017600	3.781600	-11.411000	23.954274	0.000536	20.800309
425.100285	-2.998200	3.781800	-11.338000	23.977368	0.000534	20.777949
426.099765	-2.985700	3.782000	-11.291000	23.991055	0.000534	20.810641
427.100455	-3.015700	3.780300	-11.398000	23.978065	0.000534	20.789080
428.102476	-2.987300	3.781300	-11.294000	23.946709	0.000535	20.796042
429.114453	-3.013500	3.778900	-11.387000	23.969356	0.000535	20.795993
430.102487	-2.998300	3.780600	-11.334000	23.987820	0.000534	20.803129
431.102386	-3.001700	3.778300	-11.340000	23.979061	0.000535	20.792449
432.102354	-3.003900	3.779100	-11.351000	23.962910	0.000534	20.801857
433.104597	-3.011400	3.779500	-11.380000	23.965797	0.000536	20.802855
434.106519	-2.991800	3.779100	-11.305000	23.965399	0.000536	20.798189
435.106558	-2.966000	3.779900	-11.209000	23.966045	0.000537	20.792673
436.103698	-2.995200	3.778300	-11.316000	23.967538	0.000536	20.801757
437.107613	-2.970000	3.778700	-11.222000	23.958953	0.000536	20.787932
438.106748	-3.001800	3.778000	-11.340000	23.957833	0.000540	20.807671
439.109172	-2.998900	3.777300	-11.327000	23.966468	0.000537	20.809218
440.104373	-2.978400	3.777500	-11.250000	24.009395	0.000536	20.791575
441.105645	-2.988700	3.777300	-11.288000	24.021265	0.000534	20.802531
442.108339	-2.977700	3.777100	-11.246000	24.030199	0.000538	20.820024
443.105039	-3.001500	3.776700	-11.335000	24.023256	0.000537	20.811166
444.109110	-2.991300	3.776600	-11.296000	24.021091	0.000537	20.801882
445.107044	-3.022700	3.774600	-11.408000	24.049360	0.000536	20.811740
446.110428	-2.985100	3.776300	-11.272000	24.046871	0.000537	20.826787
447.107543	-3.007800	3.775900	-11.355000	24.082231	0.000539	20.814360
448.113463	-3.016100	3.774400	-11.382000	24.076508	0.000537	20.803879
449.109772	-3.000100	3.775400	-11.325000	24.106467	0.000538	20.823020
450.114619	-3.011400	3.774300	-11.365000	24.140381	0.000538	20.813886
451.107846	-3.008100	3.773800	-11.350000	24.092830	0.000536	20.809344
452.109631	-3.008800	3.773700	-11.353000	24.093876	0.000537	20.818927
453.109733	-3.012200	3.773300	-11.365000	24.102261	0.000539	20.798414
454.110530	-3.009600	3.773500	-11.355000	24.106118	0.000538	20.824567
455.117173	-3.021300	3.771800	-11.394000	24.135579	0.000539	20.816657
456.110295	-2.993600	3.771900	-11.290000	24.118883	0.000537	20.811765
457.112347	-3.004100	3.772900	-11.333000	24.114728	0.000539	20.829883
458.115034	-3.013400	3.773500	-11.370000	24.098380	0.000540	20.796892
459.112299	-2.995800	3.772700	-11.302000	24.114479	0.000538	20.819202
460.112806	-3.009700	3.772600	-11.354000	24.152697	0.000540	20.827662
461.114869	-2.999200	3.772200	-11.312000	24.163844	0.000538	20.827936
462.110798	-3.015800	3.771900	-11.375000	24.147099	0.000539	20.822995
463.115874	-2.995900	3.771900	-11.300000	24.107288	0.000539	20.808197
464.115298	-3.017800	3.770700	-11.378000	24.144263	0.000538	20.832479
465.115053	-2.998300	3.770400	-11.304000	24.133912	0.000538	20.825890
466.116512	-3.014100	3.770500	-11.364000	24.147498	0.000540	20.824343
467.111865	-3.004900	3.771300	-11.332000	24.129683	0.000538	20.833502
468.115097	-2.988100	3.770400	-11.265000	24.142347	0.000538	20.829135
469.121022	-2.986500	3.769700	-11.257000	24.138615	0.000540	20.824443
470.117119	-2.983700	3.769900	-11.248000	24.129832	0.000541	20.829384
471.117933	-3.008400	3.767800	-11.334000	24.166905	0.000544	20.829584
472.117592	-2.984100	3.769800	-11.248000	24.196638	0.000540	20.837595
473.116250	-2.996300	3.767800	-11.287000	24.202858	0.000540	20.828661
474.119836	-2.995900	3.768700	-11.290000	24.211765	0.000540	20.842336
475.119823	-3.022900	3.767500	-11.388000	24.206540	0.000542	20.850846
476.118708	-3.021700	3.768600	-11.387000	24.259062	0.000540	20.825293
477.120399	-3.016300	3.767500	-11.363000	24.280308	0.000541	20.824319
478.117399	-3.025400	3.766300	-11.393000	24.287075	0.000541	20.839641
479.121189	-3.016500	3.767300	-11.363000	24.229978	0.000537	20.830259
480.122345	-2.984100	3.767400	-11.242000	24.204302	0.000541	20.850023
481.122070	-3.000000	3.766200	-11.298000	24.176560	0.000540	20.825044
482.121194	-3.023500	3.765900	-11.385000	24.197933	0.000541	20.840790
483.121607	-3.000700	3.766700	-11.301000	24.192111	0.000539	20.842537
484.124032	-2.981500	3.766900	-11.230000	24.229730	0.000539	20.826217
485.128591	-2.996500	3.766500	-11.285000	24.240925	0.000540	20.836498
486.123319	-3.012100	3.763600	-11.336000	24.242493	0.000540	20.835226
487.124574	-2.984500	3.765700	-11.238000	24.239160	0.000542	20.840416
488.121610	-2.994400	3.764600	-11.272000	24.269338	0.000541	20.841290
489.120817	-3.000700	3.764300	-11.295000	24.272001	0.000541	20.860081
490.121516	-3.011800	3.764100	-11.335000	24.253465	0.000539	20.860929
491.122404	-3.022600	3.764000	-11.375000	24.283071	0.000541	20.862651
492.122774	-3.042200	3.762600	-11.446000	24.236448	0.000540	20.855240
493.126063	-3.002900	3.762300	-11.297000	24.252620	0.000542	20.856288
494.126492	-2.983600	3.765100	-11.232000	24.269289	0.000541	20.866844
495.123471	-2.990600	3.762500	-11.251000	24.238066	0.000541	20.852595
496.126414	-2.993000	3.763300	-11.263000	24.257373	0.000541	20.868167
497.128489	-2.996400	3.762900	-11.275000	24.260582	0.000540	20.874705
498.130411	-2.990600	3.762900	-11.252000	24.242595	0.000541	20.874206
499.129312	-3.023000	3.761900	-11.371000	24.296059	0.000542	20.848653
500.128139	-2.971000	3.761900	-11.176000	24.285511	0.000541	20.868892
501.127930	-3.005800	3.760700	-11.303000	24.318400	0.000540	20.849253
502.129421	-2.977000	3.760900	-11.196000	24.303946	0.000542	20.858461
503.131795	-2.993400	3.762100	-11.260000	24.342406	0.000542	20.855790
504.128304	-3.004100	3.760900	-11.297000	24.324172	0.000540	20.857887
505.132224	-2.984900	3.760300	-11.222000	24.351164	0.000542	20.873109
506.136983	-3.004200	3.760500	-11.296000	24.361562	0.000543	20.865998
507.127879	-2.986600	3.760300	-11.229000	24.361313	0.000543	20.865274
508.135301	-2.997200	3.759300	-11.266000	24.360493	0.000541	20.879623
509.133157	-2.978900	3.759500	-11.199000	24.345791	0.000545	20.838798
510.130157	-2.988600	3.758100	-11.231000	24.366837	0.000542	20.870340
511.133759	-3.013300	3.757800	-11.322000	24.349647	0.000542	20.878700
512.132962	-2.967100	3.759700	-11.154000	24.342060	0.000542	20.861133
513.132562	-2.985700	3.759400	-11.223000	24.345792	0.000540	20.867247
514.135664	-2.987600	3.759100	-11.230000	24.369724	0.000544	20.858538
515.132038	-2.997400	3.757800	-11.263000	24.331289	0.000542	20.856966
516.131603	-3.001000	3.757800	-11.275000	24.356041	0.000541	20.887958
517.134009	-2.988500	3.757700	-11.229000	24.367187	0.000543	20.879226
518.131797	-2.981700	3.758500	-11.205000	24.390048	0.000543	20.882719
519.137419	-3.003300	3.757100	-11.283000	24.417486	0.000543	20.876107
520.136333	-2.999000	3.755000	-11.260000	24.448879	0.000543	20.877729
521.135599	-3.003100	3.757000	-11.281000	24.440993	0.000542	20.880724
522.134785	-2.999300	3.757100	-11.268000	24.430894	0.000541	20.900936
523.136115	-2.997300	3.755600	-11.256000	24.390248	0.000541	20.890980
524.135604	-3.024000	3.756200	-11.358000	24.376442	0.000541	20.882346
525.135196	-3.021200	3.755300	-11.343000	24.403408	0.000542	20.889009
526.139402	-2.983900	3.754600	-11.202000	24.400273	0.000542	20.903881
527.135207	-2.978000	3.754300	-11.179000	24.396144	0.000543	20.883619
528.138407	-2.978800	3.754300	-11.182000	24.427587	0.000542	20.889084
529.137569	-2.981800	3.753600	-11.192000	24.475147	0.000541	20.893176
530.139558	-2.988700	3.754000	-11.219000	24.495444	0.000541	20.898366
531.136564	-3.003500	3.754800	-11.277000	24.464302	0.000541	20.892728
532.141161	-3.014900	3.751600	-11.310000	24.460994	0.000543	20.896995
533.140193	-3.001900	3.752600	-11.264000	24.475098	0.000542	20.883645
534.140496	-2.964700	3.754500	-11.130000	24.474476	0.000543	20.885865
535.140238	-2.974700	3.752800	-11.162000	24.503703	0.000542	20.894325
536.139383	-2.964500	3.754200	-11.128000	24.517333	0.000541	20.900413
537.140869	-2.993300	3.751300	-11.228000	24.538003	0.000540	20.901711
538.142931	-2.969500	3.752000	-11.141000	24.543996	0.000543	20.883545
539.144004	-3.002800	3.751100	-11.263000	24.548847	0.000544	20.905479
540.142634	-3.007000	3.749300	-11.273000	24.581355	0.000543	20.903009
541.147738	-3.011000	3.749800	-11.290000	24.592547	0.000543	20.897170
542.152130	-2.995900	3.750100	-11.234000	24.574391	0.000545	20.911668
543.142769	-2.984200	3.749900	-11.190000	24.559966	0.000541	20.904307
544.140405	-2.980800	3.751800	-11.182000	24.558971	0.000543	20.899990
545.141917	-2.991500	3.749300	-11.214000	24.539122	0.000541	20.904731
546.142149	-2.986800	3.749900	-11.200000	24.570014	0.000542	20.898743
547.139485	-2.985800	3.749800	-11.196000	24.597373	0.000542	20.900116
548.141496	-3.007700	3.749800	-11.276000	24.584764	0.000542	20.893628
549.145819	-3.004700	3.747800	-11.260000	24.569866	0.000544	20.911869
550.144866	-3.001300	3.747100	-11.245000	24.581456	0.000543	20.885094
551.149498	-2.987000	3.748700	-11.197000	24.563822	0.000543	20.898694
552.144866	-2.987100	3.748400	-11.196000	24.557953	0.000542	20.902288
553.146355	-2.981500	3.747700	-11.172000	24.569244	0.000543	20.902237
554.146578	-2.989500	3.746800	-11.201000	24.558848	0.000540	20.888488
555.142725	-2.991100	3.747100	-11.207000	24.587102	0.000543	20.886018
556.152049	-3.003000	3.746900	-11.251000	24.542681	0.000543	20.884595
557.142563	-2.984100	3.747000	-11.181000	24.538229	0.000541	20.909998
558.148618	-2.996800	3.745800	-11.225000	24.534349	0.000542	20.891882
559.148881	-2.996800	3.746300	-11.226000	24.542358	0.000543	20.884745
560.147919	-3.014700	3.745200	-11.290000	24.550441	0.000541	20.902812
561.147486	-3.002800	3.745200	-11.245000	24.569220	0.000542	20.857172
562.151575	-3.013800	3.744600	-11.285000	24.596280	0.000543	20.882899
563.148970	-3.031000	3.744500	-11.348000	24.590286	0.000543	20.889212
564.149338	-2.982500	3.745600	-11.170000	24.574294	0.000544	20.874115
565.151216	-3.016800	3.744700	-11.296000	24.584889	0.000541	20.884745
566.146062	-3.000700	3.744400	-11.234000	24.607024	0.000541	20.881352
567.150625	-3.001600	3.743600	-11.236000	24.568822	0.000539	20.867677
568.151082	-3.002600	3.743700	-11.240000	24.613565	0.000542	20.890285
569.146984	-2.982000	3.744100	-11.164000	24.616773	0.000541	20.872642
570.153235	-2.979800	3.742900	-11.152000	24.602149	0.000541	20.873616
571.149356	-3.010200	3.743400	-11.268000	24.613490	0.000540	20.867452
572.160181	-3.014200	3.742400	-11.280000	24.641296	0.000541	20.877334
573.151179	-3.015700	3.742100	-11.284000	24.620952	0.000541	20.868300
574.148572	-2.997600	3.743800	-11.221000	24.671115	0.000542	20.879281
575.151481	-2.989100	3.742900	-11.186000	24.686484	0.000543	20.864832
576.152981	-3.012000	3.742300	-11.271000	24.692875	0.000541	20.856547
577.149557	-2.998300	3.741100	-11.216000	24.653855	0.000540	20.870023
578.158485	-3.014000	3.740600	-11.273000	24.635103	0.000541	20.872543
579.151587	-3.008700	3.742200	-11.259000	24.608989	0.000542	20.870996
580.153153	-3.016700	3.740400	-11.283000	24.612794	0.000542	20.849211
581.155573	-2.999000	3.741300	-11.220000	24.651045	0.000543	20.870996
582.153065	-3.000700	3.740200	-11.223000	24.661789	0.000540	20.892207
583.151946	-3.015400	3.739800	-11.276000	24.684246	0.000543	20.859268
584.153869	-3.012200	3.741300	-11.269000	24.725827	0.000543	20.854052
585.151249	-3.007600	3.740900	-11.251000	24.726125	0.000541	20.857196
586.149826	-2.982800	3.741000	-11.158000	24.713965	0.000542	20.869649
587.149559	-3.006300	3.739800	-11.241000	24.688300	0.000541	20.876136
588.154688	-2.987700	3.738500	-11.168000	24.678253	0.000538	20.865581
589.155472	-3.011700	3.739600	-11.262000	24.699467	0.000542	20.846093
590.152950	-2.997300	3.738500	-11.204000	24.734978	0.000541	20.850908
591.153742	-3.008900	3.737900	-11.246000	24.725752	0.000541	20.864408
592.155659	-2.975700	3.738200	-11.123000	24.722446	0.000539	20.860142
593.155629	-3.009100	3.737200	-11.246000	24.712672	0.000542	20.861240
594.156418	-3.002700	3.739400	-11.227000	24.705485	0.000538	20.868252
595.155786	-3.008000	3.737200	-11.241000	24.712274	0.000542	20.860367
596.157774	-3.001600	3.736100	-11.213000	24.716427	0.000541	20.846991
597.155551	-2.996100	3.736300	-11.193000	24.739032	0.000539	20.849761
598.156501	-2.992800	3.737900	-11.185000	24.765840	0.000540	20.858171
599.162493	-3.010700	3.737200	-11.250000	24.716651	0.000540	20.860491
600.158782	-3.016700	3.735900	-11.269000	24.723715	0.000540	20.860941
601.160854	-3.004300	3.735600	-11.222000	24.718790	0.000539	20.830397
602.156411	-2.992600	3.735500	-11.178000	24.714389	0.000540	20.834514
603.153566	-3.004900	3.734600	-11.220000	24.731574	0.000539	20.821888
604.158734	-3.001700	3.735200	-11.211000	24.727395	0.000539	20.821962
605.159712	-2.989900	3.734300	-11.164000	24.726799	0.000540	20.849812
606.157769	-2.991400	3.735200	-11.173000	24.731697	0.000542	20.826754
607.156784	-2.984500	3.735200	-11.146000	24.721254	0.000538	20.840455
608.160025	-2.971300	3.735200	-11.097000	24.729435	0.000539	20.861466
609.154183	-2.974400	3.736000	-11.111000	24.717623	0.000537	20.841553
610.160827	-2.984800	3.733000	-11.141000	24.752613	0.000540	20.837785
611.159021	-2.971300	3.734300	-11.095000	24.732992	0.000539	20.836588
612.160404	-2.997300	3.733500	-11.190000	24.741796	0.000539	20.849689
613.159560	-3.015800	3.731700	-11.253000	24.769350	0.000539	20.829925
614.156181	-3.033200	3.732500	-11.321000	24.789593	0.000538	20.822266
615.163763	-3.023900	3.731000	-11.281000	24.828061	0.000540	20.848542
616.159762	-3.001500	3.733000	-11.203000	24.832661	0.000540	20.828979
617.158445	-3.036200	3.731700	-11.330000	24.856383	0.000538	20.836191
618.166128	-3.000800	3.732400	-11.199000	24.818065	0.000538	20.834244
619.156048	-2.996000	3.731000	-11.177000	24.805682	0.000537	20.815653
620.161082	-3.027100	3.729100	-11.287000	24.789121	0.000539	20.835068
621.158866	-2.980800	3.730600	-11.119000	24.774078	0.000539	20.833248
622.159158	-2.979300	3.730700	-11.113000	24.795140	0.000537	20.843479
623.155241	-2.982200	3.730200	-11.123000	24.807971	0.000539	20.842132
624.156774	-2.991700	3.729300	-11.156000	24.828139	0.000539	20.837242
625.159574	-2.983200	3.729700	-11.125000	24.831745	0.000537	20.838490
626.162285	-2.994900	3.729800	-11.169000	24.821053	0.000538	20.837243
627.160192	-2.998900	3.728800	-11.181000	24.837888	0.000537	20.841336
628.159029	-3.012300	3.728300	-11.230000	24.827891	0.000538	20.844580
629.158721	-2.999000	3.729500	-11.184000	24.849997	0.000539	20.831678
630.155597	-3.015100	3.727600	-11.238000	24.806184	0.000538	20.831804
631.161469	-3.000500	3.728500	-11.186000	24.844478	0.000538	20.830880
632.156456	-2.999200	3.729000	-11.182000	24.835278	0.000539	20.838242
633.157396	-3.010400	3.727400	-11.220000	24.796612	0.000537	20.828835
634.157538	-3.021900	3.727600	-11.263000	24.798203	0.000536	20.814311
635.157634	-3.013400	3.726800	-11.228000	24.814168	0.000537	20.841712
636.161238	-3.015000	3.726000	-11.233000	24.818221	0.000538	20.853840
637.160862	-2.985500	3.727000	-11.126000	24.838488	0.000537	20.827714
638.161415	-2.995300	3.726600	-11.161000	24.854824	0.000537	20.827514
639.158430	-3.000100	3.726800	-11.180000	24.813994	0.000536	20.826840
640.159035	-3.001600	3.726200	-11.183000	24.782414	0.000537	20.835450
641.163066	-3.004700	3.725900	-11.194000	24.783210	0.000535	20.822498
642.165376	-3.011100	3.725500	-11.217000	24.774109	0.000538	20.854615
643.163099	-3.003300	3.725400	-11.186000	24.774309	0.000536	20.830635
644.161610	-3.004800	3.725600	-11.194000	24.769062	0.000537	20.835326
645.163902	-3.009100	3.724000	-11.204000	24.810142	0.000534	20.825819
646.159267	-3.016100	3.725100	-11.234000	24.860645	0.000535	20.842838
647.163684	-3.019700	3.724600	-11.246000	24.836525	0.000538	20.824322
648.160874	-3.018600	3.723200	-11.238000	24.863356	0.000536	20.836550
649.158134	-3.015400	3.724400	-11.230000	24.905799	0.000534	20.822725
650.158025	-3.000100	3.724400	-11.173000	24.914204	0.000534	20.821677
651.162947	-3.016800	3.721900	-11.227000	24.936830	0.000535	20.818782
652.166656	-3.018400	3.723400	-11.238000	24.928028	0.000533	20.816586
653.166153	-3.001800	3.722100	-11.172000	24.942575	0.000535	20.834980
654.166125	-3.009200	3.721500	-11.197000	24.903313	0.000534	20.829712
655.164766	-3.024000	3.721400	-11.253000	24.889814	0.000534	20.815690
656.165824	-3.006400	3.722200	-11.190000	24.861766	0.000533	20.840644
657.167015	-2.995900	3.721700	-11.149000	24.866092	0.000535	20.828392
658.164503	-3.024400	3.721100	-11.253000	24.848687	0.000533	20.827518
659.165022	-3.006300	3.722800	-11.191000	24.873975	0.000535	20.839622
660.163848	-3.012400	3.721100	-11.208000	24.862289	0.000532	20.817462
661.161420	-2.988700	3.722700	-11.125000	24.894439	0.000532	20.825548
662.166937	-2.996400	3.721100	-11.149000	24.902545	0.000533	20.836528
663.163299	-3.027900	3.720500	-11.265000	24.898219	0.000532	20.815117
664.163475	-3.005500	3.720400	-11.181000	24.876960	0.000534	20.836928
665.161138	-2.995700	3.720300	-11.144000	24.882280	0.000531	20.797224
666.161683	-2.997600	3.719400	-11.148000	24.918856	0.000531	20.817338
667.164627	-3.005300	3.719000	-11.176000	24.898592	0.000534	20.815966
668.167101	-3.020200	3.718500	-11.228000	24.902197	0.000531	20.828592
669.164244	-3.021300	3.718200	-11.233000	24.884619	0.000531	20.803838
670.161980	-2.991500	3.718100	-11.122000	24.878825	0.000532	20.827894
671.163006	-3.010000	3.717600	-11.188000	24.867710	0.000532	20.821480
672.163183	-3.012900	3.717700	-11.200000	24.853910	0.000532	20.825174
673.167308	-3.005000	3.718900	-11.174000	24.910775	0.000531	20.814443
674.167141	-3.008800	3.717100	-11.183000	24.902272	0.000531	20.828193
675.169567	-2.976800	3.717000	-11.064000	24.922337	0.000532	20.819409
676.168434	-2.997100	3.716600	-11.138000	24.888298	0.000531	20.817013
677.169330	-2.992700	3.716500	-11.122000	24.857142	0.000532	20.812297
678.168996	-3.004800	3.716900	-11.168000	24.906772	0.000532	20.811373
679.172277	-3.006000	3.716600	-11.171000	24.933674	0.000532	20.805184
680.167238	-2.989400	3.717500	-11.112000	24.937329	0.000532	20.805059
681.166133	-2.991600	3.716600	-11.117000	24.936335	0.000532	20.804535
682.166227	-3.044800	3.714100	-11.307000	24.964058	0.000529	20.824774
683.174823	-2.973000	3.715700	-11.046000	24.987478	0.000530	20.826471
684.173488	-3.007500	3.715100	-11.172000	25.009281	0.000531	20.811847
685.171740	-2.993000	3.715300	-11.118000	25.001251	0.000529	20.807106
686.178892	-2.967400	3.716300	-11.027000	24.991779	0.000532	20.809926
687.169058	-3.013600	3.714700	-11.194000	24.958786	0.000530	20.812845
688.166946	-3.019400	3.714000	-11.212000	24.911272	0.000529	20.779854
689.173302	-2.967200	3.715200	-11.022000	24.900978	0.000529	20.819309
690.168515	-2.985500	3.714500	-11.089000	24.886929	0.000529	20.800467
691.169641	-3.000000	3.713900	-11.141000	24.895856	0.000529	20.822229
692.171027	-2.983700	3.714500	-11.083000	24.911868	0.000529	20.817911
693.169594	-2.984200	3.714100	-11.082000	24.950208	0.000528	20.805658
694.177398	-3.021500	3.711600	-11.213000	24.963212	0.000528	20.820132
695.175937	-3.016900	3.711900	-11.197000	24.980168	0.000526	20.826720
696.170598	-2.983100	3.713500	-11.077000	25.003216	0.000529	20.801965
697.172895	-2.996200	3.712100	-11.120000	24.960402	0.000528	20.803562
698.174410	-3.006400	3.711500	-11.158000	24.945783	0.000527	20.798371
699.179306	-2.988400	3.712400	-11.093000	24.907766	0.000526	20.810000
700.177076	-2.992800	3.711900	-11.109000	24.893593	0.000526	20.803362
701.169160	-3.028600	3.709800	-11.235000	24.925394	0.000526	20.795451
702.173884	-3.004200	3.712000	-11.149000	24.947449	0.000526	20.823277
703.174788	-2.988700	3.711000	-11.091000	24.957220	0.000527	20.805109
704.170132	-3.005700	3.710000	-11.150000	24.976861	0.000524	20.816763
705.178306	-3.000800	3.710400	-11.132000	24.953142	0.000527	20.811447
706.174326	-3.025800	3.708400	-11.220000	24.955181	0.000527	20.798795
707.176504	-2.981900	3.711000	-11.064000	24.948840	0.000526	20.794328
708.177491	-3.000500	3.710300	-11.132000	24.931585	0.000527	20.796449
709.174172	-3.017000	3.707900	-11.186000	24.924325	0.000527	20.795800
710.179804	-3.023000	3.708900	-11.211000	24.940437	0.000528	20.795850
711.171432	-3.009100	3.709100	-11.160000	24.987204	0.000524	20.798695
712.175041	-2.991400	3.710000	-11.097000	25.003762	0.000524	20.786867
713.177229	-3.015900	3.708600	-11.184000	25.002593	0.000528	20.798495
714.171107	-2.999000	3.708800	-11.122000	24.985861	0.000523	20.788812
715.173496	-2.999300	3.708400	-11.122000	24.988247	0.000525	20.784570
716.177906	-3.013200	3.706700	-11.168000	25.004905	0.000525	20.791333
717.175842	-3.011000	3.706100	-11.158000	25.012611	0.000524	20.800965
718.174623	-3.002600	3.708100	-11.133000	24.973702	0.000521	20.803635
719.183190	-2.982400	3.707200	-11.055000	24.986457	0.000523	20.780402
720.189666	-2.983700	3.707400	-11.061000	24.963160	0.000525	20.802063
721.178893	-2.997300	3.706900	-11.110000	24.973702	0.000523	20.786092
722.180911	-3.017400	3.705900	-11.181000	24.978824	0.000524	20.790284
723.176910	-3.019000	3.704500	-11.183000	24.954185	0.000523	20.785467
724.177250	-2.994500	3.706300	-11.097000	24.951823	0.000522	20.796847
725.178283	-2.992600	3.706400	-11.091000	24.951823	0.000520	20.780726
726.181394	-3.012400	3.705000	-11.159000	24.950778	0.000525	20.785842
727.182078	-3.001000	3.704400	-11.116000	24.943916	0.000522	20.792704
728.181723	-3.007200	3.705400	-11.142000	24.977157	0.000521	20.787662
729.186003	-2.993800	3.705800	-11.094000	24.981358	0.000524	20.797096
730.182602	-3.009200	3.705800	-11.151000	25.023947	0.000523	20.779627
731.190459	-2.996800	3.704000	-11.099000	25.055570	0.000520	20.770593
732.183278	-2.993300	3.705000	-11.089000	25.015643	0.000523	20.790732
733.181873	-3.002800	3.704000	-11.121000	25.036477	0.000521	20.777031
734.181659	-3.000100	3.702600	-11.108000	25.060790	0.000521	20.786738
735.182071	-3.004800	3.703700	-11.128000	25.085029	0.000522	20.784517
736.196006	-3.012600	3.702400	-11.153000	25.068647	0.000521	20.796996
737.189878	-3.000000	3.703600	-11.110000	25.080405	0.000519	20.774185
738.188008	-3.014300	3.702600	-11.159000	25.056042	0.000520	20.788610
739.187320	-3.004200	3.701900	-11.120000	25.067254	0.000521	20.771889
740.190192	-3.015900	3.701100	-11.161000	25.058777	0.000517	20.790881
741.188309	-2.992500	3.702400	-11.079000	25.035556	0.000518	20.753820
742.193118	-2.999200	3.701500	-11.100000	25.057110	0.000519	20.764078
743.189011	-2.997700	3.700700	-11.093000	25.095196	0.000520	20.772912
744.185866	-2.996400	3.702100	-11.092000	25.113940	0.000518	20.784616
745.184890	-2.978000	3.702400	-11.025000	25.073219	0.000519	20.786413
746.187365	-2.983600	3.701300	-11.042000	25.047291	0.000519	20.769394
747.188952	-2.987800	3.701600	-11.059000	25.088335	0.000517	20.773611
748.186318	-3.002600	3.700900	-11.112000	25.098428	0.000518	20.765724
749.185927	-2.995100	3.700000	-11.080000	25.101684	0.000518	20.768519
750.185408	-3.006800	3.700100	-11.125000	25.151826	0.000517	20.791829
751.190064	-2.995300	3.699100	-11.079000	25.169599	0.000515	20.748030
752.189229	-3.013500	3.698800	-11.146000	25.178200	0.000518	20.769468
753.191831	-2.997500	3.700000	-11.090000	25.180661	0.000519	20.767671
754.190359	-3.010400	3.698400	-11.133000	25.157742	0.000516	20.772164
755.186134	-3.027000	3.698000	-11.192000	25.159184	0.000516	20.761757
756.196476	-3.006900	3.697600	-11.117000	25.170843	0.000518	20.764927
757.186074	-3.002100	3.698300	-11.101000	25.115657	0.000517	20.763579
758.190195	-3.012000	3.698500	-11.138000	25.083513	0.000516	20.784892
759.194145	-2.991300	3.698300	-11.061000	25.046445	0.000516	20.759062
760.189949	-3.010300	3.697800	-11.131000	25.069815	0.000515	20.792952
761.190382	-3.009500	3.697800	-11.127000	25.124482	0.000514	20.771491
762.189889	-3.010100	3.697700	-11.129000	25.141560	0.000518	20.750703
763.191998	-3.020700	3.696400	-11.164000	25.113991	0.000514	20.762382
764.191632	-3.028600	3.695900	-11.192000	25.089779	0.000515	20.759887
765.191439	-2.992600	3.695500	-11.058000	25.087566	0.000515	20.765727
766.189433	-3.007600	3.696200	-11.116000	25.108621	0.000515	20.777380
767.194393	-3.027000	3.696400	-11.188000	25.097187	0.000514	20.762582
768.191918	-3.012400	3.694900	-11.130000	25.073495	0.000513	20.751127
769.194705	-2.986000	3.695700	-11.034000	25.113893	0.000514	20.767024
770.197862	-3.017000	3.694200	-11.145000	25.125775	0.000515	20.749081
771.194448	-3.012900	3.693800	-11.128000	25.137982	0.000513	20.759438
772.194788	-2.991800	3.694700	-11.052000	25.173678	0.000513	20.757342
773.195649	-3.008300	3.694800	-11.114000	25.202762	0.000511	20.756668
774.195395	-3.018900	3.694300	-11.152000	25.202264	0.000510	20.743366
775.191739	-3.005100	3.693900	-11.100000	25.197915	0.000511	20.740896
776.194474	-3.007100	3.693400	-11.106000	25.155010	0.000512	20.746661
777.192171	-3.012800	3.694500	-11.130000	25.180640	0.000513	20.735881
778.193461	-2.996000	3.693600	-11.065000	25.171118	0.000511	20.743392
779.196621	-3.010400	3.692800	-11.116000	25.144719	0.000512	20.754348
780.199427	-2.992000	3.692100	-11.046000	25.142207	0.000511	20.769844
781.196655	-2.996700	3.692500	-11.064000	25.135919	0.000513	20.770644
782.197342	-3.006600	3.693700	-11.105000	25.145788	0.000509	20.761585
783.201307	-3.011600	3.691200	-11.116000	25.120084	0.000511	20.765653
784.197443	-2.988700	3.690900	-11.030000	25.108376	0.000511	20.747261
785.203407	-3.004600	3.690600	-11.088000	25.080806	0.000510	20.768898
786.195957	-3.015400	3.690800	-11.128000	25.050649	0.000508	20.745737
787.195141	-3.015800	3.690700	-11.129000	25.050674	0.000509	20.753823
788.202722	-3.022300	3.689900	-11.151000	25.077922	0.000509	20.726646
789.198256	-2.966500	3.691200	-10.950000	25.092490	0.000509	20.770195
790.203139	-3.019100	3.689300	-11.138000	25.107629	0.000508	20.747460
791.203820	-3.000300	3.689200	-11.068000	25.111880	0.000510	20.783022
792.198140	-2.997000	3.689800	-11.058000	25.110364	0.000510	20.748783
793.195523	-3.012500	3.689300	-11.112000	25.129481	0.000508	20.772242
794.200830	-3.012700	3.690500	-11.118000	25.095100	0.000507	20.762384
795.199532	-3.006900	3.689200	-11.092000	25.112751	0.000509	20.747386
796.203625	-3.016600	3.688700	-11.126000	25.123142	0.000507	20.760663
797.199002	-2.988800	3.690000	-11.028000	25.134676	0.000510	20.753749
798.196163	-2.987400	3.689500	-11.020000	25.121377	0.000507	20.752252
799.199032	-3.004400	3.688100	-11.080000	25.143751	0.000507	20.753376
800.202145	-3.000200	3.688700	-11.065000	25.141886	0.000507	20.744392
801.203717	-3.008200	3.687700	-11.092000	25.153719	0.000505	20.767651
802.196528	-2.990600	3.687200	-11.026000	25.194138	0.000504	20.744691
803.200426	-3.012400	3.686300	-11.104000	25.177210	0.000506	20.742869
804.201769	-3.031500	3.685800	-11.172000	25.144671	0.000505	20.775163
805.201340	-2.994100	3.686200	-11.036000	25.123491	0.000504	20.760064
806.201653	-3.008800	3.686900	-11.091000	25.104449	0.000505	20.753277
807.207561	-2.972700	3.687000	-10.960000	25.096444	0.000507	20.745240
808.202707	-3.001200	3.685900	-11.061000	25.124934	0.000505	20.749658
809.199926	-2.994700	3.685400	-11.036000	25.162693	0.000504	20.742520
810.205544	-2.999600	3.686200	-11.057000	25.143876	0.000504	20.752079
811.205736	-2.982100	3.685200	-10.989000	25.182331	0.000503	20.747537
812.205075	-2.988800	3.685500	-11.013000	25.181611	0.000502	20.743020
813.200294	-2.996000	3.684900	-11.039000	25.176888	0.000503	20.758193
814.201221	-2.998000	3.684000	-11.044000	25.180790	0.000503	20.747886
815.204842	-2.980600	3.685700	-10.985000	25.193169	0.000503	20.771220
816.200477	-2.996900	3.683300	-11.038000	25.189094	0.000505	20.756222
817.201474	-2.983800	3.684900	-10.994000	25.166647	0.000502	20.771620
818.199399	-3.002100	3.685000	-11.062000	25.133933	0.000501	20.758692
819.202363	-3.006100	3.682800	-11.070000	25.152228	0.000502	20.735333
820.204627	-3.009900	3.683300	-11.086000	25.092940	0.000502	20.782027
821.204888	-2.998300	3.682500	-11.041000	25.132092	0.000501	20.759690
822.209935	-2.993200	3.682500	-11.022000	25.160705	0.000502	20.755223
823.204313	-3.000700	3.680900	-11.044000	25.208357	0.000501	20.757070
824.206275	-2.989100	3.683700	-11.010000	25.220612	0.000499	20.769373
825.207414	-3.025300	3.680800	-11.134000	25.229958	0.000500	20.755997
826.206312	-2.992300	3.681500	-11.016000	25.229560	0.000501	20.741846
827.210626	-2.992400	3.682400	-11.018000	25.274154	0.000500	20.761962
828.208534	-3.006200	3.680300	-11.062000	25.312106	0.000498	20.775887
829.206153	-2.986600	3.680800	-10.992000	25.262445	0.000500	20.757319
830.210395	-3.002800	3.680900	-11.052000	25.252080	0.000499	20.782001
831.207067	-2.984800	3.680300	-10.984000	25.291253	0.000499	20.780079
832.212405	-3.010300	3.679700	-11.075000	25.309074	0.000498	20.779954
833.209769	-3.010800	3.680300	-11.079000	25.265179	0.000499	20.781876
834.208434	-3.011600	3.680000	-11.082000	25.254491	0.000498	20.774938
835.206647	-3.013100	3.678000	-11.081000	25.276488	0.000500	20.784221
836.212022	-2.991900	3.679100	-11.006000	25.309596	0.000498	20.761986
837.208184	-2.991600	3.678800	-11.005000	25.295329	0.000497	20.770421
838.209685	-3.002500	3.678700	-11.044000	25.287623	0.000498	20.766003
839.214099	-2.977000	3.677700	-10.947000	25.274898	0.000498	20.775512
840.208488	-2.993000	3.677400	-11.006000	25.286828	0.000500	20.772318
841.215134	-3.007700	3.677800	-11.060000	25.297069	0.000497	20.784971
842.209190	-3.005000	3.677200	-11.049000	25.328784	0.000498	20.756596
843.214599	-3.007300	3.676000	-11.053000	25.291675	0.000496	20.754898
844.214095	-3.002700	3.676200	-11.038000	25.239827	0.000496	20.766379
845.210922	-2.997700	3.677100	-11.022000	25.214597	0.000496	20.744367
846.210313	-3.009100	3.675600	-11.059000	25.152701	0.000496	20.770896
847.214072	-3.028400	3.675400	-11.130000	25.164831	0.000498	20.774539
848.215287	-3.027500	3.675300	-11.126000	25.120856	0.000495	20.769748
849.217465	-2.995400	3.676700	-11.012000	25.173631	0.000495	20.767252
850.213536	-3.001100	3.675000	-11.029000	25.207562	0.000496	20.777609
851.209805	-3.001600	3.675100	-11.031000	25.197419	0.000495	20.793031
852.215340	-2.958100	3.675400	-10.871000	25.246364	0.000496	20.779581
853.210346	-2.990200	3.676300	-10.991000	25.275296	0.000493	20.769748
854.217819	-3.022100	3.674800	-11.105000	25.249968	0.000496	20.778932
855.210937	-2.994600	3.674600	-11.003000	25.265677	0.000492	20.765306
856.214773	-2.990100	3.674600	-10.986000	25.276067	0.000494	20.795178
857.214720	-3.013600	3.673100	-11.069000	25.292298	0.000494	20.785396
858.214870	-2.992400	3.674900	-10.996000	25.275918	0.000492	20.783175
859.215706	-2.975700	3.674000	-10.932000	25.233439	0.000491	20.780355
860.214231	-3.003800	3.673300	-11.033000	25.209651	0.000493	20.783973
861.213170	-2.985600	3.674800	-10.971000	25.219942	0.000490	20.799995
862.214674	-2.977900	3.672800	-10.936000	25.195085	0.000492	20.770772
863.213782	-2.993900	3.672100	-10.993000	25.201920	0.000490	20.791860
864.214431	-2.980700	3.672700	-10.946000	25.243432	0.000487	20.788966
865.214908	-2.979300	3.672700	-10.941000	25.246365	0.000492	20.796178
866.214103	-2.993800	3.670800	-10.989000	25.272563	0.000490	20.788341
867.214694	-3.018500	3.669300	-11.074000	25.268910	0.000489	20.791785
868.218551	-3.003800	3.670700	-11.024000	25.279723	0.000488	20.786995
869.217185	-3.002300	3.669900	-11.017000	25.267966	0.000491	20.791786
870.219762	-2.982500	3.671100	-10.947000	25.274701	0.000490	20.804713
871.217509	-3.010600	3.670000	-11.048000	25.287477	0.000489	20.799048
872.218886	-3.007400	3.669200	-11.034000	25.273832	0.000488	20.789616
873.214539	-2.995700	3.670000	-10.994000	25.256110	0.000488	20.798849
874.222867	-2.989200	3.669500	-10.968000	25.250543	0.000488	20.795156
875.221414	-3.000000	3.668600	-11.005000	25.261156	0.000487	20.815769
876.216338	-2.979200	3.669100	-10.930000	25.263716	0.000488	20.788467
877.217091	-2.998400	3.668200	-10.997000	25.338481	0.000488	20.790989
878.220921	-2.970800	3.669100	-10.899000	25.383639	0.000488	20.807408
879.218719	-3.015200	3.668500	-11.060000	25.358787	0.000488	20.819912
880.231818	-3.011300	3.668200	-11.045000	25.370617	0.000488	20.805713
881.223439	-3.000400	3.667200	-11.002000	25.397881	0.000486	20.816967
882.225265	-2.995400	3.666700	-10.982000	25.370293	0.000487	20.806336
883.227555	-3.003400	3.667500	-11.013000	25.350311	0.000489	20.798600
884.221055	-2.997400	3.667000	-10.990000	25.308630	0.000488	20.819812
885.225898	-2.975400	3.667300	-10.910000	25.298216	0.000486	20.816942
886.221859	-2.996800	3.667100	-10.989000	25.312483	0.000486	20.800921
887.223931	-3.007200	3.666300	-11.024000	25.303883	0.000484	20.816942
888.222285	-3.017100	3.666400	-11.061000	25.291182	0.000486	20.809880
889.222433	-3.009100	3.665100	-11.028000	25.269732	0.000484	20.825802
890.224898	-2.982200	3.666500	-10.932000	25.278830	0.000485	20.803168
891.229703	-3.010700	3.666000	-11.037000	25.315541	0.000483	20.810155
892.225600	-2.986400	3.665300	-10.945000	25.351406	0.000482	20.820088
893.227647	-2.983800	3.664800	-10.934000	25.388265	0.000483	20.825329
894.230903	-3.003600	3.664200	-11.004000	25.421641	0.000483	20.820911
895.225581	-2.999200	3.664300	-10.988000	25.441275	0.000483	20.842048
896.229945	-3.012700	3.663700	-11.037000	25.407502	0.000482	20.798179
897.221825	-2.998900	3.663800	-10.986000	25.425568	0.000483	20.804466
898.225829	-2.961200	3.664200	-10.848000	25.395696	0.000481	20.838481
899.224418	-2.977700	3.663800	-10.909000	25.385333	0.000482	20.829023
900.226460	-2.992900	3.663000	-10.962000	25.335948	0.000482	20.806937
901.227887	-3.008900	3.662100	-11.018000	25.329313	0.000480	20.827302
902.226010	-2.993000	3.662400	-10.961000	25.357671	0.000479	20.824482
903.222209	-2.986300	3.661700	-10.934000	25.351980	0.000481	20.814026
904.232514	-3.003900	3.662300	-11.000000	25.385532	0.000480	20.819740
905.226845	-3.012700	3.662700	-11.034000	25.350961	0.000479	20.821064
906.225343	-3.005800	3.660800	-11.002000	25.340050	0.000479	20.832867
907.230013	-3.007900	3.660800	-11.010000	25.332246	0.000479	20.834040
908.225473	-2.965700	3.661900	-10.860000	25.331003	0.000476	20.828051
909.229506	-3.007900	3.660400	-11.008000	25.323051	0.000479	20.817221
910.228323	-2.990900	3.662000	-10.952000	25.345420	0.000479	20.823560
911.229851	-3.014900	3.659200	-11.031000	25.311319	0.000477	20.837209
912.234110	-3.001300	3.658900	-10.980000	25.315719	0.000477	20.843524
913.227508	-2.971300	3.660200	-10.874000	25.324344	0.000477	20.829899
914.228549	-2.995600	3.659800	-10.963000	25.335305	0.000476	20.826206
915.228657	-3.009200	3.658300	-11.007000	25.346465	0.000476	20.830299
916.234686	-3.003500	3.659100	-10.988000	25.324444	0.000475	20.843276
917.228636	-3.000100	3.658800	-10.976000	25.353151	0.000477	20.857874
918.237236	-2.995200	3.658800	-10.957000	25.295016	0.000476	20.838384
919.231813	-2.983100	3.657800	-10.910000	25.337518	0.000479	20.830799
920.230101	-2.997000	3.658200	-10.962000	25.403530	0.000477	20.839708
921.234580	-3.023300	3.656000	-11.052000	25.443218	0.000478	20.823138
922.229292	-3.001400	3.657100	-10.976000	25.472294	0.000478	20.842852
923.234823	-2.988600	3.657600	-10.930000	25.516429	0.000474	20.858249
924.229773	-3.012800	3.656900	-11.016000	25.423262	0.000475	20.846720
925.230377	-3.024800	3.656400	-11.059000	25.407680	0.000474	20.843876
926.231367	-3.013200	3.655100	-11.012000	25.415285	0.000472	20.841555
927.233331	-3.000800	3.655400	-10.968000	25.436037	0.000473	20.822564
928.236888	-3.027400	3.654100	-11.061000	25.444909	0.000472	20.862766
929.235707	-3.006400	3.656000	-10.990000	25.437205	0.000471	20.848393
930.234549	-3.003900	3.655000	-10.978000	25.431290	0.000474	20.843876
931.232780	-2.972100	3.656900	-10.868000	25.394111	0.000472	20.836414
932.232387	-2.995100	3.653600	-10.942000	25.387004	0.000471	20.847770
933.231724	-3.005500	3.654300	-10.982000	25.383722	0.000470	20.858225
934.234448	-3.001700	3.653300	-10.965000	25.394931	0.000471	20.833446
935.233115	-3.002200	3.653800	-10.969000	25.412453	0.000472	20.861944
936.235838	-2.990300	3.653300	-10.923000	25.399156	0.000470	20.849067
937.237108	-2.994300	3.652800	-10.937000	25.425824	0.000470	20.851663
938.235445	-2.989100	3.653600	-10.919000	25.468370	0.000470	20.853135
939.241475	-2.988000	3.652300	-10.912000	25.456441	0.000469	20.856803
940.232539	-2.994600	3.651800	-10.935000	25.455969	0.000469	20.840683
941.236278	-3.002800	3.652500	-10.967000	25.411285	0.000467	20.848444
942.239368	-3.003200	3.651300	-10.965000	25.415659	0.000467	20.876542
943.233649	-2.995700	3.651000	-10.936000	25.435839	0.000469	20.851289
944.234850	-3.001200	3.650600	-10.955000	25.458653	0.000466	20.866610
945.235108	-3.016900	3.650300	-11.012000	25.466456	0.000469	20.875394
946.237042	-3.034200	3.649900	-11.073000	25.486909	0.000467	20.851364
947.237786	-3.011000	3.650500	-10.991000	25.492003	0.000468	20.854108
948.232958	-3.020600	3.648100	-11.017000	25.524880	0.000468	20.849192
949.241336	-3.002200	3.649400	-10.955000	25.518221	0.000467	20.862419
950.235425	-3.013700	3.649800	-10.999000	25.525352	0.000468	20.856778
951.238457	-2.996600	3.649900	-10.936000	25.517500	0.000466	20.877340
952.238513	-3.002400	3.649000	-10.955000	25.512604	0.000465	20.871476
953.236166	-2.997600	3.650100	-10.941000	25.484771	0.000465	20.865812
954.240651	-3.021900	3.647600	-11.021000	25.483952	0.000465	20.879686
955.240448	-3.007600	3.648900	-10.974000	25.470607	0.000466	20.873398
956.241283	-2.993400	3.649100	-10.922000	25.485865	0.000464	20.883504
957.240808	-3.016800	3.647700	-11.003000	25.491234	0.000465	20.877042
958.238853	-2.983100	3.648600	-10.882000	25.482586	0.000465	20.869780
959.237622	-2.992000	3.647900	-10.914000	25.448689	0.000462	20.886000
960.246020	-3.009900	3.647700	-10.977000	25.431790	0.000463	20.874247
961.235274	-2.983400	3.647500	-10.882000	25.380295	0.000462	20.874222
962.239779	-3.007700	3.646200	-10.966000	25.404352	0.000463	20.874197
963.239126	-3.028100	3.644100	-11.034000	25.436189	0.000462	20.872027
964.236580	-3.001200	3.647300	-10.946000	25.455722	0.000465	20.873149
965.243550	-3.007800	3.645700	-10.964000	25.475231	0.000461	20.877093
966.240457	-3.004800	3.644800	-10.951000	25.505674	0.000462	20.873051
967.241059	-3.007400	3.644600	-10.960000	25.505972	0.000461	20.884729
968.241071	-3.015100	3.644200	-10.987000	25.534101	0.000461	20.882158
969.245384	-3.015100	3.645600	-10.991000	25.557412	0.000461	20.889446
970.238285	-2.993200	3.645500	-10.911000	25.547025	0.000462	20.905566
971.243900	-2.992900	3.644600	-10.907000	25.511788	0.000460	20.895785
972.242700	-2.993900	3.645000	-10.912000	25.493498	0.000460	20.876471
973.240304	-3.007100	3.641700	-10.950000	25.500829	0.000463	20.863919
974.246990	-3.023100	3.642200	-11.009000	25.503190	0.000459	20.887151
975.240323	-2.994700	3.643100	-10.909000	25.515963	0.000458	20.884332
976.240075	-2.986900	3.643200	-10.881000	25.548294	0.000460	20.899255
977.243762	-2.992300	3.641500	-10.896000	25.576250	0.000459	20.892243
978.250451	-2.985200	3.643800	-10.877000	25.566061	0.000458	20.893865
979.240923	-2.988300	3.642000	-10.882000	25.541137	0.000458	20.914352
980.244112	-3.004200	3.642100	-10.940000	25.469445	0.000460	20.888351
981.246386	-2.981900	3.643100	-10.862000	25.438853	0.000456	20.899356
982.249861	-3.012700	3.641800	-10.970000	25.423743	0.000456	20.907890
983.247801	-2.986500	3.641300	-10.874000	25.471359	0.000456	20.902600
984.241995	-3.014400	3.639800	-10.971000	25.428565	0.000457	20.896138
985.243311	-3.015200	3.639700	-10.973000	25.479785	0.000455	20.889726
986.242614	-2.998000	3.640100	-10.912000	25.478665	0.000457	20.925582
987.245319	-3.017400	3.639500	-10.981000	25.519323	0.000455	20.910937
988.245310	-2.989900	3.640100	-10.883000	25.475438	0.000455	20.898162
989.246125	-2.994500	3.638700	-10.895000	25.521262	0.000455	20.910039
990.244278	-3.030600	3.637200	-11.022000	25.530829	0.000455	20.924386
991.241709	-2.975400	3.639100	-10.827000	25.552672	0.000455	20.883264
992.256900	-2.972000	3.637700	-10.810000	25.536495	0.000454	20.917276
993.243898	-3.001000	3.637000	-10.913000	25.479340	0.000451	20.885486
994.241899	-2.991900	3.637200	-10.882000	25.450090	0.000454	20.913484
995.241899	-2.998900	3.637200	-10.907000	25.443952	0.000452	20.917277
996.245362	-3.002700	3.636000	-10.917000	25.494202	0.000452	20.914632
997.242458	-3.001900	3.636900	-10.917000	25.477154	0.000452	20.905100
998.248259	-3.001800	3.636000	-10.914000	25.495718	0.000451	20.913784
999.245764	-3.034400	3.634300	-11.027000	25.483764	0.000451	20.927857
1000.246013	-3.003000	3.635300	-10.916000	25.452775	0.000452	20.916654
1001.245422	-3.010400	3.635700	-10.945000	25.510057	0.000451	20.913011
1002.247698	-2.999800	3.635800	-10.906000	25.537068	0.000449	20.917851
1003.252498	-2.994900	3.635600	-10.887000	25.547133	0.000451	20.921321
1004.246998	-3.016100	3.633400	-10.957000	25.534684	0.000450	20.929680
1005.247444	-3.003200	3.634800	-10.915000	25.584754	0.000450	20.935394
1006.250414	-3.005000	3.633000	-10.916000	25.570194	0.000450	20.937366
1007.249119	-3.025300	3.632600	-10.989000	25.554316	0.000449	20.932326
1008.245866	-2.998300	3.634500	-10.896000	25.551532	0.000448	20.920048
1009.251569	-3.010300	3.632600	-10.935000	25.562913	0.000448	20.945700
1010.248992	-2.992900	3.634900	-10.878000	25.570666	0.000446	20.924565
1011.250786	-2.997200	3.632900	-10.888000	25.620662	0.000449	20.922620
1012.258043	-3.005800	3.631900	-10.915000	25.574245	0.000447	20.936693
1013.250846	-3.040400	3.631100	-11.039000	25.579239	0.000446	20.902831
1014.252378	-2.986300	3.632500	-10.847000	25.562317	0.000447	20.912863
1015.250270	-3.017200	3.630000	-10.951000	25.557497	0.000446	20.904704
1016.250175	-3.008200	3.631300	-10.922000	25.579091	0.000447	20.917854
1017.253207	-3.016900	3.630600	-10.952000	25.554043	0.000446	20.927785
1018.249804	-3.020800	3.630700	-10.966000	25.537220	0.000445	20.916581
1019.254214	-3.005100	3.629600	-10.906000	25.544726	0.000446	20.915584
1020.251111	-2.995900	3.631100	-10.877000	25.537145	0.000445	20.912714
1021.249158	-2.998000	3.630300	-10.883000	25.523329	0.000444	20.907847
1022.251465	-3.003200	3.627900	-10.895000	25.527280	0.000443	20.916556
1023.248653	-2.949200	3.630000	-10.705000	25.537742	0.000443	20.909994
1024.253116	-2.997100	3.628100	-10.873000	25.563958	0.000443	20.898390
1025.264231	-3.001100	3.629400	-10.890000	25.569623	0.000442	20.898864
1026.251384	-3.001700	3.627400	-10.888000	25.554466	0.000443	20.895497
1027.253338	-2.995700	3.627500	-10.866000	25.540252	0.000441	20.903981
1028.254432	-3.009600	3.627100	-10.915000	25.541021	0.000444	20.886262
1029.252026	-2.981700	3.628300	-10.817000	25.564579	0.000441	20.901385
1030.258827	-3.001300	3.627100	-10.885000	25.600336	0.000443	20.896519
1031.255589	-2.997600	3.626500	-10.870000	25.578668	0.000439	20.903681
1032.251349	-2.999600	3.625600	-10.874000	25.593578	0.000442	20.901111
1033.251940	-2.983600	3.626100	-10.817000	25.587017	0.000441	20.888359
1034.256632	-2.990100	3.625700	-10.840000	25.561374	0.000442	20.890106
1035.255215	-3.008600	3.625000	-10.905000	25.563933	0.000440	20.910218
1036.260594	-3.026200	3.624500	-10.967000	25.619519	0.000441	20.878327
1037.254625	-2.999900	3.624200	-10.871000	25.598373	0.000440	20.904504
1038.254225	-2.981700	3.624600	-10.806000	25.563461	0.000439	20.870392
1039.262118	-3.018100	3.624700	-10.939000	25.587515	0.000440	20.897393
1040.257809	-3.004900	3.625100	-10.891000	25.583266	0.000438	20.901660
1041.258577	-2.986900	3.625300	-10.827000	25.588831	0.000435	20.902981
1042.257452	-2.998800	3.623500	-10.864000	25.576158	0.000438	20.870816
1043.256012	-2.994900	3.622800	-10.849000	25.561200	0.000436	20.893250
1044.257950	-2.985100	3.623800	-10.817000	25.534189	0.000434	20.864704
1045.259387	-3.005000	3.622500	-10.885000	25.526560	0.000435	20.880749
1046.260715	-3.008500	3.623000	-10.899000	25.581900	0.000437	20.862358
1047.260750	-2.996800	3.622300	-10.854000	25.590870	0.000438	20.872789
1048.262965	-3.006400	3.621100	-10.885000	25.570940	0.000436	20.866998
1049.265795	-2.994100	3.622200	-10.845000	25.583390	0.000433	20.873811
1050.266395	-2.993600	3.621300	-10.839000	25.601182	0.000436	20.861335
1051.265899	-3.015100	3.621300	-10.918000	25.623097	0.000434	20.885240
1052.265307	-3.006800	3.621200	-10.887000	25.605431	0.000432	20.859438
1053.267929	-3.010800	3.619500	-10.897000	25.642453	0.000434	20.864853
1054.265435	-2.986000	3.620300	-10.809000	25.575066	0.000433	20.875883
1055.267062	-3.003000	3.618400	-10.866000	25.593229	0.000432	20.873261
1056.268034	-2.999800	3.619800	-10.857000	25.572532	0.000432	20.873812
1057.272831	-3.000600	3.619200	-10.859000	25.571462	0.000431	20.871316
1058.269042	-2.982200	3.619000	-10.792000	25.590149	0.000432	20.878702
1059.267457	-2.998000	3.619300	-10.849000	25.622451	0.000433	20.877953
1060.270094	-2.985000	3.618300	-10.800000	25.634253	0.000431	20.869419
1061.265165	-3.020700	3.617900	-10.927000	25.641335	0.000430	20.876057
1062.269742	-3.014000	3.617200	-10.901000	25.629384	0.000430	20.877804
1063.270883	-2.992700	3.618100	-10.827000	25.618873	0.000433	20.856818
1064.271456	-2.971800	3.617100	-10.748000	25.637087	0.000431	20.857093
1065.269597	-3.020500	3.616800	-10.923000	25.603244	0.000429	20.865776
1066.269013	-2.988600	3.617700	-10.811000	25.611096	0.000429	20.868921
1067.272467	-3.001400	3.616000	-10.852000	25.595317	0.000429	20.861609
1068.274220	-2.985000	3.616800	-10.795000	25.604959	0.000431	20.862283
1069.274619	-2.991800	3.616000	-10.817000	25.590895	0.000430	20.877081
1070.269516	-3.010800	3.615200	-10.883000	25.599667	0.000428	20.871667
1071.274216	-2.985900	3.615400	-10.795000	25.613731	0.000428	20.868248
1072.269511	-2.991100	3.614600	-10.811000	25.652468	0.000428	20.868747
1073.273389	-3.006600	3.614100	-10.865000	25.695154	0.000429	20.859938
1074.277122	-3.011200	3.613300	-10.879000	25.725217	0.000427	20.859313
1075.271955	-3.008100	3.614000	-10.870000	25.645660	0.000426	20.851953
1076.277003	-3.012300	3.613200	-10.883000	25.615644	0.000426	20.857842
1077.274680	-2.985400	3.613500	-10.787000	25.599517	0.000427	20.870094
1078.276662	-3.023700	3.612900	-10.924000	25.609059	0.000428	20.872091
1079.278246	-2.987900	3.612800	-10.795000	25.663227	0.000424	20.858217
1080.276474	-3.003700	3.612600	-10.851000	25.618576	0.000423	20.841347
1081.273436	-3.016400	3.611300	-10.892000	25.646107	0.000425	20.847660
1082.277141	-3.004300	3.610200	-10.845000	25.632068	0.000425	20.862483
1083.278266	-2.983500	3.612200	-10.777000	25.668419	0.000421	20.849682
1084.279428	-2.980200	3.611400	-10.762000	25.675376	0.000422	20.845764
1085.279984	-3.001000	3.610900	-10.835000	25.674656	0.000422	20.844092
1086.282183	-3.000400	3.610000	-10.831000	25.648467	0.000424	20.867099
1087.278592	-3.002400	3.609300	-10.836000	25.678606	0.000421	20.860861
1088.278176	-2.992400	3.609000	-10.798000	25.696073	0.000421	20.854223
1089.275025	-3.009400	3.609400	-10.861000	25.691053	0.000422	20.852501
1090.280313	-2.990800	3.608300	-10.791000	25.634825	0.000421	20.866200
1091.279834	-2.993800	3.610100	-10.807000	25.635297	0.000421	20.859562
1092.276615	-2.991800	3.608400	-10.795000	25.675349	0.000421	20.855693
1093.283134	-3.008600	3.608600	-10.855000	25.705016	0.000418	20.831913
1094.277722	-2.993700	3.608500	-10.802000	25.733637	0.000420	20.832211
1095.281639	-2.981000	3.607600	-10.754000	25.709463	0.000419	20.849181
1096.284818	-2.976300	3.606900	-10.735000	25.702480	0.000419	20.853546
1097.278555	-3.007600	3.608000	-10.849000	25.723202	0.000418	20.833109
1098.280529	-2.997400	3.607200	-10.812000	25.726706	0.000419	20.827619
1099.279171	-3.032900	3.605400	-10.934000	25.685586	0.000418	20.829940
1100.276989	-3.016400	3.605000	-10.873000	25.622374	0.000417	20.847532
1101.278225	-3.023000	3.605400	-10.899000	25.638873	0.000416	20.840869
1102.278363	-3.018000	3.605000	-10.879000	25.614671	0.000417	20.838374
1103.280890	-3.010300	3.605600	-10.853000	25.627542	0.000418	20.832808
1104.279888	-2.988200	3.606300	-10.776000	25.635518	0.000416	20.841294
1105.279042	-3.022700	3.604600	-10.895000	25.690603	0.000417	20.847781
1106.284243	-3.008300	3.603400	-10.840000	25.717064	0.000414	20.841169
1107.281511	-2.983800	3.605400	-10.757000	25.645681	0.000416	20.842965
1108.283996	-3.007500	3.604200	-10.839000	25.612161	0.000416	20.860982
1109.283342	-2.991000	3.602400	-10.774000	25.625157	0.000415	20.836577
1110.285307	-2.993300	3.603400	-10.785000	25.652986	0.000413	20.846509
1111.283411	-2.978600	3.602600	-10.729000	25.710977	0.000414	20.845486
1112.281484	-2.992900	3.602000	-10.780000	25.731624	0.000412	20.840146
1113.280368	-3.008200	3.602800	-10.837000	25.689760	0.000413	20.833658
1114.288609	-2.996500	3.602600	-10.794000	25.715325	0.000413	20.845586
1115.279840	-3.012400	3.601300	-10.848000	25.742854	0.000414	20.838624
1116.280076	-2.999000	3.601900	-10.801000	25.710581	0.000411	20.838924
1117.284088	-3.010300	3.601100	-10.839000	25.747825	0.000412	20.845038
1118.278920	-3.008300	3.600900	-10.832000	25.724072	0.000411	20.839672
1119.291437	-2.995000	3.601700	-10.786000	25.722308	0.000411	20.836478
1120.287108	-2.994600	3.600100	-10.780000	25.726010	0.000410	20.838301
1121.288518	-3.001200	3.600100	-10.804000	25.711823	0.000411	20.830214
1122.285688	-2.969900	3.599600	-10.690000	25.739824	0.000409	20.843640
1123.282719	-2.985000	3.600100	-10.744000	25.722904	0.000408	20.833758
1124.286114	-3.012700	3.598300	-10.839000	25.714332	0.000409	20.828942
1125.278879	-3.000200	3.599000	-10.797000	25.684741	0.000407	20.825299
1126.284054	-2.998400	3.597400	-10.786000	25.697090	0.000408	20.811149
1127.283640	-3.010800	3.597200	-10.830000	25.711600	0.000408	20.834257
1128.285553	-3.000000	3.597100	-10.790000	25.718930	0.000406	20.821706
1129.282508	-2.998000	3.597500	-10.784000	25.731476	0.000406	20.832411
1130.287074	-2.999700	3.597300	-10.789000	25.718954	0.000406	20.843541
1131.285067	-2.988300	3.597700	-10.750000	25.711152	0.000405	20.836653
1132.285734	-2.996300	3.596500	-10.775000	25.731576	0.000404	20.832985
1133.288138	-2.996700	3.595700	-10.773000	25.748297	0.000406	20.842194
1134.284648	-3.019400	3.595100	-10.854000	25.730234	0.000407	20.848482
1135.291646	-3.020000	3.594800	-10.855000	25.719675	0.000406	20.824351
1136.284359	-3.016700	3.594600	-10.843000	25.724719	0.000405	20.839374
1137.287803	-2.981500	3.596300	-10.720000	25.720694	0.000404	20.830215
1138.290092	-3.007400	3.593200	-10.805000	25.719278	0.000403	20.833909
1139.288636	-2.993300	3.594000	-10.757000	25.747700	0.000403	20.841120
1140.292109	-2.989400	3.594100	-10.743000	25.752944	0.000403	20.861086
1141.291395	-3.014400	3.593500	-10.830000	25.770185	0.000402	20.831938
1142.289188	-2.976600	3.592600	-10.693000	25.784943	0.000401	20.835856
1143.287044	-3.003200	3.592500	-10.788000	25.774955	0.000402	20.829617
1144.290009	-2.973300	3.593600	-10.684000	25.766956	0.000401	20.828220
1145.289266	-3.004600	3.591000	-10.789000	25.743279	0.000403	20.834783
1146.293018	-3.004200	3.591800	-10.789000	25.711949	0.000399	20.833186
1147.291754	-2.972400	3.591700	-10.675000	25.675052	0.000401	20.832163
1148.291743	-3.000000	3.591400	-10.774000	25.655971	0.000398	20.835757
1149.291948	-3.003800	3.590300	-10.784000	25.628290	0.000399	20.824077
1150.290941	-2.997700	3.591500	-10.765000	25.629980	0.000399	20.834783
1151.294685	-3.000500	3.590700	-10.773000	25.710360	0.000399	20.842495
1152.292512	-2.997100	3.589900	-10.757000	25.698880	0.000399	20.811051
1153.289434	-2.971600	3.589900	-10.667000	25.701663	0.000399	20.811001
1154.292223	-3.000500	3.588100	-10.765000	25.731727	0.000398	20.812749
1155.289483	-2.981000	3.590600	-10.702000	25.751902	0.000398	20.829220
1156.300650	-2.970900	3.590400	-10.667000	25.698086	0.000398	20.825426
1157.300059	-2.965700	3.589700	-10.644000	25.651151	0.000397	20.816218
1158.295662	-2.996600	3.588500	-10.752000	25.616416	0.000396	20.841074
1159.291192	-2.996100	3.588500	-10.750000	25.634057	0.000398	20.822283
1160.291184	-3.004100	3.588300	-10.778000	25.658433	0.000395	20.834436
1161.292277	-2.994200	3.588300	-10.743000	25.696871	0.000396	20.813300
1162.294586	-3.004500	3.586700	-10.776000	25.716101	0.000395	20.838304
1163.293647	-2.970300	3.588500	-10.658000	25.728325	0.000396	20.820237
1164.291735	-3.005300	3.585900	-10.776000	25.749543	0.000395	20.816420
1165.294333	-2.994600	3.588300	-10.744000	25.762836	0.000393	20.822186
1166.298695	-3.000000	3.585800	-10.756000	25.704548	0.000393	20.826701
1167.297402	-3.014000	3.585100	-10.804000	25.704674	0.000393	20.799801
1168.297511	-3.011400	3.584800	-10.794000	25.706065	0.000393	20.816371
1169.295748	-2.995300	3.584500	-10.736000	25.671678	0.000392	20.806015
1170.295287	-2.998200	3.584000	-10.745000	25.675330	0.000391	20.823907
1171.297616	-3.007600	3.584400	-10.780000	25.704972	0.000390	20.817644
1172.294406	-2.999400	3.584100	-10.749000	25.726215	0.000391	20.809584
1173.298847	-3.015600	3.584500	-10.808000	25.697569	0.000391	20.817794
1174.293074	-2.996500	3.583600	-10.737000	25.697891	0.000391	20.821437
1175.296610	-2.997700	3.582700	-10.740000	25.734316	0.000391	20.809660
1176.298213	-3.021500	3.582500	-10.824000	25.777993	0.000391	20.799004
1177.297799	-3.009300	3.583100	-10.782000	25.741944	0.000390	20.816373
1178.304702	-3.013100	3.582000	-10.792000	25.766490	0.000391	20.791717
1179.300284	-2.996400	3.581600	-10.731000	25.768801	0.000391	20.809211
1180.297151	-3.004900	3.581300	-10.760000	25.772056	0.000390	20.823386
1181.298795	-3.007000	3.581000	-10.767000	25.763733	0.000390	20.804594
1182.296112	-2.998400	3.581800	-10.739000	25.779485	0.000389	20.815201
1183.297002	-2.974300	3.582300	-10.654000	25.783511	0.000388	20.830624
1184.298869	-2.982700	3.580400	-10.678000	25.796927	0.000390	20.800479
1185.297143	-2.987700	3.580100	-10.696000	25.767487	0.000387	20.800779
1186.300152	-2.990200	3.579000	-10.701000	25.722070	0.000388	20.809214
1187.301900	-2.978900	3.580400	-10.665000	25.718891	0.000385	20.796538
1188.298559	-2.979500	3.579300	-10.663000	25.731736	0.000385	20.791895
1189.305743	-3.001800	3.579400	-10.744000	25.729998	0.000386	20.818124
1190.302989	-2.995800	3.578100	-10.719000	25.728035	0.000389	20.813308
1191.299488	-2.989900	3.578600	-10.699000	25.709152	0.000386	20.818998
1192.302341	-2.990200	3.578500	-10.700000	25.679984	0.000384	20.833797
1193.303203	-3.003500	3.576800	-10.742000	25.708483	0.000384	20.816903
1194.305193	-3.004800	3.576400	-10.746000	25.735490	0.000385	20.823641
1195.304193	-3.015300	3.575100	-10.779000	25.764807	0.000385	20.806622
1196.303414	-2.993400	3.576700	-10.705000	25.756187	0.000383	20.794170
1197.305115	-3.023900	3.576300	-10.813000	25.739565	0.000383	20.795966
1198.303483	-3.016000	3.575100	-10.782000	25.774869	0.000380	20.794918
1199.306887	-2.973800	3.577000	-10.636000	25.793082	0.000384	20.792349
1200.309286	-2.986400	3.575800	-10.678000	25.841079	0.000381	20.805001
1201.307784	-2.993200	3.574700	-10.699000	25.829750	0.000380	20.803579
1202.308864	-2.998600	3.574200	-10.716000	25.797455	0.000381	20.790103
1203.312009	-2.999000	3.574000	-10.718000	25.784162	0.000382	20.803304
1204.310362	-2.997400	3.574700	-10.714000	25.781256	0.000381	20.816032
1205.315275	-2.990300	3.573300	-10.684000	25.830720	0.000377	20.803131
1206.310055	-2.984100	3.574600	-10.666000	25.832783	0.000381	20.813263
1207.312024	-2.993800	3.573800	-10.698000	25.842570	0.000382	20.817405
1208.318622	-3.011400	3.571700	-10.756000	25.868059	0.000380	20.801284
1209.312010	-2.989000	3.573500	-10.681000	25.857799	0.000379	20.804728
1210.316417	-2.991300	3.573500	-10.689000	25.849427	0.000377	20.790629
1211.307129	-3.016500	3.571700	-10.773000	25.773084	0.000378	20.804504
1212.311727	-2.968500	3.572400	-10.604000	25.736537	0.000378	20.818054
1213.306774	-3.007800	3.572300	-10.743000	25.763967	0.000377	20.801510
1214.307202	-3.000400	3.572000	-10.716000	25.730575	0.000376	20.797367
1215.313420	-3.007600	3.569600	-10.735000	25.739470	0.000375	20.798715
1216.309518	-2.983200	3.569100	-10.647000	25.756712	0.000375	20.785214
1217.309252	-2.989300	3.571000	-10.674000	25.768339	0.000377	20.787884
1218.310033	-2.979300	3.569700	-10.634000	25.806598	0.000376	20.783167
1219.315926	-2.991000	3.569800	-10.676000	25.829181	0.000376	20.797791
1220.314514	-2.985600	3.570500	-10.658000	25.822077	0.000374	20.823845
1221.314093	-2.999300	3.568400	-10.702000	25.798997	0.000374	20.784541
1222.313327	-2.996200	3.568200	-10.690000	25.816859	0.000373	20.803906
1223.311432	-2.954600	3.569700	-10.547000	25.793681	0.000374	20.790581
1224.314771	-2.996700	3.569100	-10.695000	25.800687	0.000372	20.798566
1225.313498	-2.986900	3.568100	-10.657000	25.805110	0.000374	20.795422
1226.317028	-2.992100	3.568100	-10.676000	25.791470	0.000373	20.795471
1227.314533	-3.001700	3.567000	-10.705000	25.842474	0.000373	20.774160
1228.312345	-3.016800	3.565100	-10.753000	25.875812	0.000370	20.799590
1229.313174	-2.981100	3.566700	-10.632000	25.900629	0.000370	20.773312
1230.312549	-2.994500	3.566500	-10.679000	25.889599	0.000372	20.784517
1231.315053	-3.014700	3.564800	-10.746000	25.863068	0.000372	20.789158
1232.318738	-3.007700	3.565200	-10.722000	25.860335	0.000370	20.791629
1233.314319	-3.009500	3.565200	-10.729000	25.833232	0.000369	20.771040
1234.314939	-3.012100	3.563400	-10.732000	25.808836	0.000370	20.774509
1235.314251	-3.006200	3.565000	-10.715000	25.800961	0.000370	20.777030
1236.314805	-3.019500	3.563700	-10.760000	25.819792	0.000371	20.768919
1237.323212	-3.003300	3.564400	-10.704000	25.812315	0.000367	20.779426
1238.316749	-3.008300	3.563600	-10.720000	25.832761	0.000368	20.780524
1239.316763	-3.011700	3.564100	-10.733000	25.840461	0.000369	20.776406
1240.317080	-3.023700	3.562900	-10.771000	25.826399	0.000366	20.777927
1241.313158	-2.985900	3.564100	-10.641000	25.831568	0.000366	20.794973
1242.315223	-2.983600	3.562700	-10.629000	25.827220	0.000367	20.772114
1243.314527	-2.979600	3.563100	-10.615000	25.855069	0.000367	20.775907
1244.314133	-2.984800	3.562300	-10.632000	25.857603	0.000367	20.792203
1245.317231	-2.998000	3.560900	-10.675000	25.857354	0.000366	20.779625
1246.314853	-2.983400	3.561800	-10.626000	25.860584	0.000365	20.764852
1247.319723	-2.984600	3.562500	-10.631000	25.813036	0.000366	20.786314
1248.318532	-2.988300	3.560900	-10.640000	25.762428	0.000364	20.772464
1249.315543	-2.991000	3.559900	-10.647000	25.796415	0.000363	20.766774
1250.324189	-2.998300	3.559600	-10.672000	25.827767	0.000365	20.783094
1251.319242	-3.020400	3.559300	-10.749000	25.817284	0.000362	20.780624
1252.318138	-3.005500	3.559100	-10.696000	25.831419	0.000363	20.786764
1253.324626	-2.989000	3.558600	-10.635000	25.834575	0.000365	20.775709
1254.323514	-2.985400	3.560200	-10.628000	25.819122	0.000362	20.780100
1255.318303	-2.983700	3.558200	-10.616000	25.860660	0.000362	20.786740
1256.321408	-3.002000	3.557400	-10.679000	25.849555	0.000362	20.761359
1257.321592	-2.984100	3.557300	-10.614000	25.817011	0.000361	20.780825
1258.321558	-3.003200	3.556400	-10.679000	25.848263	0.000363	20.803684
1259.323181	-3.011900	3.555300	-10.708000	25.882024	0.000363	20.774536
1260.324703	-3.007600	3.556100	-10.695000	25.853183	0.000359	20.770219
1261.324589	-3.002500	3.556000	-10.677000	25.880510	0.000360	20.777757
1262.321211	-3.015300	3.555300	-10.719000	25.885552	0.000357	20.785193
1263.322474	-3.027000	3.556300	-10.765000	25.807869	0.000359	20.782073
1264.326187	-2.988200	3.555500	-10.624000	25.792069	0.000358	20.786591
1265.325104	-2.995200	3.556200	-10.651000	25.798355	0.000358	20.793379
1266.323498	-2.982000	3.555900	-10.603000	25.792219	0.000358	20.777732
1267.328626	-2.990700	3.554300	-10.629000	25.748095	0.000358	20.776558
1268.326984	-2.997900	3.553200	-10.651000	25.727425	0.000357	20.778556
1269.327979	-3.030700	3.553300	-10.768000	25.763350	0.000360	20.776708
1270.326058	-2.990500	3.553500	-10.627000	25.760344	0.000358	20.789336
1271.323724	-2.980400	3.553600	-10.591000	25.783499	0.000358	20.786517
1272.333384	-3.014900	3.552300	-10.708000	25.777288	0.000354	20.771268
1273.324381	-3.020600	3.552300	-10.730000	25.785686	0.000357	20.798671
1274.327938	-3.020400	3.551300	-10.726000	25.823721	0.000354	20.771918
1275.327698	-3.024200	3.552900	-10.744000	25.839099	0.000355	20.780254
1276.329131	-3.006500	3.552100	-10.678000	25.814578	0.000356	20.758466
1277.330845	-3.005600	3.551500	-10.674000	25.831446	0.000355	20.779678
1278.328192	-3.006100	3.551900	-10.677000	25.852439	0.000354	20.778481
1279.335781	-2.983300	3.551200	-10.593000	25.844017	0.000353	20.762434
1280.333910	-2.989800	3.550700	-10.615000	25.834750	0.000353	20.797222
1281.327204	-3.040700	3.547800	-10.787000	25.853284	0.000352	20.786917
1282.331402	-3.002300	3.551300	-10.661000	25.826826	0.000351	20.758915
1283.329542	-2.978700	3.550400	-10.574000	25.846825	0.000353	20.781376
1284.348710	-3.015200	3.549000	-10.700000	25.875418	0.000352	20.789236
1285.334594	-2.996200	3.549300	-10.633000	25.853506	0.000352	20.772441
1286.334477	-3.005300	3.547600	-10.662000	25.827248	0.000352	20.774987
1287.330942	-3.027100	3.549000	-10.742000	25.794976	0.000350	20.777657
1288.337894	-3.005100	3.548200	-10.662000	25.831446	0.000348	20.782997
1289.333188	-2.985200	3.547000	-10.587000	25.831794	0.000349	20.770070
1290.336826	-3.002200	3.546700	-10.647000	25.853506	0.000351	20.781450
1291.333559	-3.007500	3.547000	-10.666000	25.882049	0.000349	20.784519
1292.334628	-3.003000	3.546700	-10.650000	25.841830	0.000349	20.791057
1293.339691	-2.998200	3.546300	-10.631000	25.850500	0.000348	20.764205
1294.338467	-2.992600	3.545800	-10.610000	25.862896	0.000348	20.779028
1295.333794	-2.991900	3.546000	-10.609000	25.880831	0.000348	20.795149
1296.338692	-3.004100	3.543900	-10.645000	25.879267	0.000346	20.787414
1297.336619	-3.004400	3.545000	-10.650000	25.880708	0.000346	20.771317
1298.339077	-2.998000	3.543900	-10.624000	25.884209	0.000348	20.772464
1299.343142	-2.993900	3.543900	-10.609000	25.902244	0.000347	20.780624
1300.340556	-2.998900	3.543100	-10.625000	25.881179	0.000346	20.782222
1301.342347	-3.015400	3.543100	-10.683000	25.875886	0.000347	20.791130
1302.335322	-3.004400	3.543400	-10.645000	25.836487	0.000346	20.780474
1303.339774	-3.019500	3.543600	-10.699000	25.796142	0.000348	20.777880
1304.339231	-3.008600	3.541900	-10.654000	25.831768	0.000345	20.786640
1305.333794	-2.983400	3.544000	-10.572000	25.859640	0.000345	20.797569
1306.340647	-2.999300	3.541900	-10.622000	25.875887	0.000344	20.807252
1307.338443	-3.010700	3.541900	-10.663000	25.855119	0.000345	20.775010
1308.337604	-3.014800	3.540400	-10.672000	25.855616	0.000344	20.784992
1309.340279	-3.014600	3.541000	-10.674000	25.854126	0.000344	20.784443
1310.337115	-2.992400	3.540900	-10.595000	25.858473	0.000343	20.775060
1311.339368	-3.005700	3.539500	-10.638000	25.881403	0.000341	20.782447
1312.339103	-2.979200	3.539600	-10.544000	25.882695	0.000343	20.780425
1313.342199	-3.003500	3.539500	-10.630000	25.868436	0.000342	20.786965
1314.343207	-2.981600	3.539400	-10.553000	25.849656	0.000341	20.774737
1315.342412	-3.002400	3.538800	-10.624000	25.861481	0.000341	20.800366
1316.342379	-2.985400	3.540000	-10.567000	25.872238	0.000341	20.787465
1317.348175	-2.996200	3.537600	-10.598000	25.813635	0.000340	20.792607
1318.347239	-3.000100	3.538500	-10.615000	25.827324	0.000340	20.795926
1319.344644	-3.005700	3.537400	-10.632000	25.848615	0.000341	20.798822
1320.345811	-2.992000	3.537400	-10.583000	25.864712	0.000340	20.794129
1321.351273	-2.992300	3.537500	-10.584000	25.887145	0.000337	20.809552
1322.348017	-2.998400	3.536300	-10.602000	25.824294	0.000337	20.794778
1323.349819	-2.994300	3.535400	-10.586000	25.769240	0.000338	20.794005
1324.345008	-3.015800	3.535900	-10.663000	25.761166	0.000338	20.805809
1325.343938	-2.995100	3.536000	-10.590000	25.766210	0.000339	20.804712
1326.346363	-3.002700	3.536400	-10.618000	25.783477	0.000339	20.806883
1327.343851	-2.989800	3.534800	-10.567000	25.789663	0.000335	20.813097
1328.348769	-2.950800	3.535600	-10.432000	25.813960	0.000337	20.817589
1329.347406	-2.989000	3.535000	-10.565000	25.842605	0.000336	20.780930
1330.344245	-3.007200	3.533200	-10.623000	25.881110	0.000333	20.800644
1331.349506	-3.005800	3.533300	-10.619000	25.896561	0.000337	20.800045
1332.347403	-3.006700	3.532400	-10.620000	25.933574	0.000337	20.800719
1333.352914	-2.984600	3.532100	-10.541000	25.982063	0.000336	20.808656
1334.352306	-3.003200	3.532800	-10.609000	26.001785	0.000335	20.809978
1335.346616	-2.982100	3.532000	-10.532000	26.002158	0.000335	20.812724
1336.346582	-2.972400	3.532700	-10.500000	25.965868	0.000334	20.766307
1337.346713	-3.016300	3.532100	-10.653000	25.927440	0.000334	20.783651
1338.347795	-2.989000	3.531100	-10.554000	25.918522	0.000333	20.813098
1339.346292	-2.997500	3.531200	-10.584000	25.896538	0.000334	20.804290
1340.349014	-2.994200	3.531900	-10.574000	25.951287	0.000335	20.804764
1341.347486	-3.012200	3.530400	-10.634000	25.968899	0.000331	20.807759
1342.348940	-3.025000	3.528700	-10.673000	26.016316	0.000333	20.808457
1343.349052	-3.011300	3.528500	-10.625000	26.028562	0.000333	20.801320
1344.349220	-2.989900	3.528000	-10.548000	25.964329	0.000330	20.797003
1345.354581	-2.980300	3.529500	-10.518000	25.877361	0.000331	20.802094
1346.352968	-3.004100	3.527900	-10.598000	25.892390	0.000332	20.800596
1347.351492	-2.989400	3.528400	-10.546000	25.916486	0.000331	20.827174
1348.350426	-3.005400	3.528800	-10.605000	25.899494	0.000330	20.803941
1349.350563	-3.014800	3.528500	-10.637000	25.892986	0.000330	20.814946
1350.351731	-3.003000	3.527600	-10.592000	25.897707	0.000331	20.805938
1351.355243	-2.998800	3.527800	-10.579000	25.889883	0.000330	20.823208
1352.357817	-2.984300	3.527700	-10.527000	25.904687	0.000328	20.834287
1353.352900	-2.988300	3.526300	-10.537000	25.899944	0.000330	20.811030
1354.355214	-3.007300	3.525700	-10.602000	25.911122	0.000327	20.824630
1355.352815	-3.018400	3.524000	-10.636000	25.936161	0.000328	20.809482
1356.353422	-2.995300	3.526300	-10.561000	25.965672	0.000325	20.813526
1357.353274	-2.993900	3.525300	-10.554000	25.950619	0.000326	20.821636
1358.351930	-3.009500	3.525200	-10.607000	25.922624	0.000327	20.821486
1359.355539	-3.013800	3.523600	-10.618000	25.920412	0.000326	20.814523
1360.356550	-3.010400	3.523000	-10.605000	25.892839	0.000325	20.818591
1361.349678	-3.002000	3.522500	-10.572000	25.882008	0.000325	20.811978
1362.365892	-3.009800	3.523700	-10.604000	25.889560	0.000324	20.827625
1363.361145	-3.000500	3.522900	-10.569000	25.882977	0.000325	20.810581
1364.359519	-3.004700	3.522200	-10.583000	25.863675	0.000324	20.841924
1365.354990	-2.994400	3.522600	-10.547000	25.884343	0.000325	20.831867
1366.353970	-2.996300	3.522200	-10.553000	25.894851	0.000325	20.821087
1367.358581	-3.005400	3.521800	-10.583000	25.965523	0.000324	20.811479
1368.356358	-3.006900	3.520300	-10.584000	25.961996	0.000323	20.840178
1369.353129	-2.990800	3.520100	-10.527000	25.933753	0.000324	20.808011
1370.353351	-2.969900	3.521200	-10.456000	25.946744	0.000322	20.843821
1371.357114	-2.995000	3.519700	-10.541000	25.902900	0.000324	20.832017
1372.356931	-2.992700	3.519200	-10.531000	25.862334	0.000322	20.805964
1373.356438	-2.978300	3.519900	-10.482000	25.878034	0.000322	20.833116
1374.360570	-2.991100	3.520200	-10.528000	25.872941	0.000322	20.829422
1375.352565	-3.010400	3.519300	-10.594000	25.848919	0.000321	20.843697
1376.356578	-2.993500	3.519100	-10.533000	25.842138	0.000319	20.843049
1377.358808	-2.958600	3.517500	-10.406000	25.814214	0.000319	20.828275
1378.356982	-2.998600	3.518600	-10.550000	25.830363	0.000320	20.846393
1379.360078	-3.013300	3.517200	-10.598000	25.822090	0.000321	20.829075
1380.360484	-3.014800	3.516300	-10.600000	25.891028	0.000317	20.827677
1381.354220	-2.996100	3.516800	-10.536000	25.876918	0.000320	20.853805
1382.357809	-3.008800	3.516800	-10.581000	25.905908	0.000319	20.862065
1383.355546	-2.994000	3.516100	-10.527000	25.949603	0.000319	20.833891
1384.357308	-3.009700	3.516900	-10.584000	25.961155	0.000320	20.847393
1385.357603	-3.004100	3.515800	-10.561000	25.951045	0.000320	20.839133
1386.355553	-3.017200	3.514100	-10.601000	25.922329	0.000317	20.832570
1387.354029	-2.990700	3.514700	-10.511000	25.936016	0.000317	20.864811
1388.358830	-3.006600	3.513500	-10.563000	25.954275	0.000316	20.826731
1389.359603	-2.996500	3.514500	-10.530000	25.958720	0.000316	20.839732
1390.353745	-2.986000	3.514400	-10.493000	25.973253	0.000317	20.839159
1391.357647	-2.995000	3.513200	-10.520000	25.962447	0.000317	20.842528
1392.364047	-2.996900	3.513600	-10.529000	25.964757	0.000318	20.850538
1393.354874	-3.012000	3.512800	-10.579000	25.984182	0.000318	20.853458
1394.359458	-2.990200	3.512500	-10.502000	25.970571	0.000316	20.847844
1395.359129	-3.001900	3.511800	-10.541000	25.965901	0.000315	20.852161
1396.359275	-2.988500	3.512200	-10.495000	25.988034	0.000314	20.834095
1397.360175	-2.999200	3.511400	-10.531000	25.962176	0.000315	20.842729
1398.360960	-3.004000	3.509300	-10.541000	25.965257	0.000315	20.863367
1399.356436	-3.014100	3.509600	-10.578000	25.978373	0.000314	20.845725
1400.357019	-3.019200	3.509400	-10.595000	25.977180	0.000312	20.858751
1401.357841	-2.985400	3.509500	-10.476000	25.980708	0.000314	20.847122
1402.365757	-2.994800	3.510200	-10.511000	25.965133	0.000312	20.871303
1403.359139	-2.994400	3.509100	-10.507000	25.963420	0.000311	20.838763
1404.362836	-2.974600	3.509600	-10.439000	25.974200	0.000312	20.846274
1405.367123	-2.990900	3.509200	-10.495000	26.001027	0.000312	20.855209
1406.360779	-2.999100	3.507200	-10.517000	26.020998	0.000312	20.858678
1407.362493	-2.994100	3.508600	-10.502000	26.038211	0.000312	20.875971
1408.366891	-2.995700	3.507000	-10.505000	26.060915	0.000311	20.862273
1409.363987	-3.014800	3.506700	-10.571000	26.018515	0.000309	20.856183
1410.362645	-3.007400	3.507300	-10.547000	25.978997	0.000310	20.862473
1411.366672	-3.003100	3.506100	-10.528000	25.941042	0.000309	20.854213
1412.360413	-2.997300	3.506900	-10.510000	25.902713	0.000308	20.861226
1413.364657	-3.010200	3.505000	-10.550000	25.851812	0.000310	20.875999
1414.365027	-3.011900	3.505900	-10.559000	25.887063	0.000310	20.869685
1415.364562	-3.005300	3.505800	-10.535000	25.951601	0.000309	20.870510
1416.365016	-2.991400	3.504600	-10.483000	25.968344	0.000309	20.870261
1417.365238	-3.021800	3.503000	-10.584000	25.989457	0.000308	20.859706
1418.365722	-3.010400	3.503200	-10.545000	25.983398	0.000308	20.898660
1419.365810	-3.004200	3.504300	-10.527000	25.975202	0.000306	20.868142
1420.365132	-3.000800	3.503600	-10.512000	25.990527	0.000307	20.858409
1421.362011	-2.999300	3.503700	-10.507000	25.971748	0.000307	20.870363
1422.366262	-3.006600	3.503100	-10.531000	25.966434	0.000307	20.898212
1423.363426	-3.013300	3.501900	-10.550000	25.997856	0.000309	20.867195
1424.365394	-2.988000	3.503600	-10.468000	26.008264	0.000305	20.881918
1425.367587	-2.995200	3.502600	-10.490000	26.022672	0.000307	20.891177
1426.366719	-2.995000	3.502900	-10.490000	26.053421	0.000305	20.893622
1427.363865	-3.012500	3.500700	-10.545000	26.077240	0.000305	20.876305
1428.365811	-2.995300	3.501400	-10.486000	26.089461	0.000306	20.880523
1429.363787	-3.009800	3.500200	-10.533000	26.087276	0.000304	20.872638
1430.364480	-2.990800	3.501000	-10.470000	26.059608	0.000305	20.893200
1431.366310	-2.988800	3.501200	-10.463000	26.035093	0.000306	20.880424
1432.361917	-3.016000	3.498900	-10.552000	25.976846	0.000302	20.890182
1433.367138	-2.994600	3.498900	-10.478000	26.031691	0.000303	20.891704
1434.362143	-3.008300	3.500100	-10.529000	26.069743	0.000303	20.893426
1435.367261	-2.996300	3.497700	-10.479000	26.069768	0.000301	20.900089
1436.368443	-2.991400	3.498700	-10.465000	26.050667	0.000302	20.906027
1437.366096	-3.005700	3.498800	-10.515000	26.014653	0.000301	20.894500
1438.371767	-2.994300	3.498700	-10.475000	25.990484	0.000301	20.877331
1439.372626	-3.006000	3.497100	-10.510000	25.976773	0.000301	20.895323
1440.368338	-2.974600	3.498300	-10.405000	25.952109	0.000303	20.899467
1441.368687	-2.996400	3.496400	-10.475000	25.934969	0.000300	20.897421
1442.369669	-2.996000	3.495800	-10.472000	25.960132	0.000301	20.903260
1443.373952	-2.971200	3.495500	-10.385000	25.997739	0.000300	20.910222
1444.375379	-2.996700	3.496200	-10.476000	26.009936	0.000299	20.902088
1445.370585	-2.980200	3.496300	-10.419000	26.031992	0.000301	20.901489
1446.369414	-3.008300	3.494800	-10.513000	26.073248	0.000299	20.911645
1447.368845	-2.962100	3.497100	-10.358000	26.063462	0.000297	20.906081
1448.369946	-2.996500	3.495000	-10.471000	26.055043	0.000298	20.893355
1449.368412	-2.995100	3.493100	-10.461000	26.001540	0.000296	20.893180
1450.371212	-2.973600	3.495800	-10.394000	26.004074	0.000296	20.929387
1451.370646	-3.006100	3.492100	-10.497000	25.995307	0.000298	20.893555
1452.369422	-2.990100	3.492800	-10.443000	26.041481	0.000295	20.908178
1453.369153	-2.999900	3.492600	-10.477000	26.080601	0.000297	20.918558
1454.371737	-3.020600	3.492000	-10.546000	26.108890	0.000295	20.928015
1455.370228	-3.011500	3.491800	-10.514000	26.118103	0.000296	20.941539
1456.372541	-2.990600	3.491500	-10.441000	26.086463	0.000297	20.929662
1457.371638	-2.989300	3.492100	-10.438000	26.058743	0.000295	20.914141
1458.373441	-2.967900	3.491700	-10.362000	26.086661	0.000294	20.894303
1459.378802	-3.000800	3.490000	-10.472000	26.072254	0.000295	20.917759
1460.375999	-2.994000	3.491700	-10.454000	26.109660	0.000293	20.901291
1461.371908	-2.986300	3.490500	-10.423000	26.135041	0.000294	20.897871
1462.371646	-3.009700	3.488100	-10.497000	26.116812	0.000294	20.924596
1463.376249	-3.006200	3.490300	-10.491000	26.109261	0.000293	20.927914
1464.379931	-3.002700	3.490200	-10.479000	26.084673	0.000293	20.922650
1465.380016	-2.993200	3.488900	-10.442000	26.035495	0.000292	20.926342
1466.373927	-3.006300	3.487900	-10.485000	26.004671	0.000293	20.924297
1467.379849	-2.985700	3.488800	-10.416000	26.030031	0.000291	20.911371
1468.377099	-3.020100	3.487000	-10.530000	26.080451	0.000292	20.915089
1469.379095	-3.013400	3.486800	-10.507000	26.054273	0.000292	20.907753
1470.382559	-3.021700	3.486400	-10.533000	26.040438	0.000292	20.927516
1471.377768	-2.996500	3.487900	-10.450000	25.979757	0.000293	20.928190
1472.375176	-2.977600	3.487900	-10.384000	25.956483	0.000289	20.927567
1473.383172	-3.003700	3.486000	-10.470000	25.952385	0.000291	20.947629
1474.380007	-3.009900	3.484800	-10.488000	25.950399	0.000289	20.951323
1475.376814	-3.011200	3.485800	-10.496000	25.971189	0.000291	20.933805
1476.382650	-2.976500	3.486300	-10.376000	25.957874	0.000289	20.927542
1477.379426	-2.978100	3.485700	-10.381000	26.004078	0.000288	20.926546
1478.379771	-2.980600	3.485400	-10.387000	26.028668	0.000287	20.925174
1479.381639	-3.012600	3.483100	-10.493000	26.036643	0.000289	20.946459
1480.379911	-2.976600	3.484900	-10.372000	26.029613	0.000289	20.946509
1481.377219	-3.006200	3.482200	-10.467000	26.042033	0.000288	20.932437
1482.384148	-3.005600	3.484300	-10.473000	26.099433	0.000287	20.918040
1483.376482	-2.993400	3.483300	-10.425000	26.113666	0.000289	20.936606
1484.377998	-3.021800	3.482400	-10.523000	26.078571	0.000288	20.932164
1485.383138	-3.001100	3.481800	-10.448000	26.076410	0.000288	20.939950
1486.383936	-2.988900	3.480700	-10.403000	26.075541	0.000284	20.908260
1487.381958	-3.000600	3.480900	-10.444000	26.087762	0.000285	20.932390
1488.379753	-2.993600	3.481500	-10.421000	26.084459	0.000284	20.925279
1489.382518	-2.998300	3.480600	-10.435000	26.094568	0.000283	20.921686
1490.380400	-3.007900	3.480800	-10.468000	26.073904	0.000284	20.919890
1491.385258	-3.015400	3.479800	-10.492000	26.035158	0.000282	20.939753
1492.384644	-3.012500	3.479700	-10.482000	26.002993	0.000284	20.921664
1493.385845	-2.997900	3.479800	-10.431000	25.986374	0.000284	20.922036
1494.388551	-3.010700	3.479500	-10.474000	26.007042	0.000284	20.919567
1495.387416	-2.973100	3.479100	-10.343000	25.994648	0.000283	20.940778
1496.384592	-2.995200	3.478300	-10.417000	26.013426	0.000283	20.929299
1497.385159	-2.988300	3.477400	-10.391000	26.087368	0.000281	20.915400
1498.385155	-2.997500	3.477000	-10.421000	26.103189	0.000282	20.916599
1499.383092	-2.988500	3.478300	-10.395000	26.132794	0.000283	20.932593
1500.388169	-2.997600	3.477800	-10.423000	26.167588	0.000282	20.914926
1501.384834	-2.984000	3.477100	-10.374000	26.170443	0.000282	20.885555
1502.387778	-3.017500	3.476200	-10.488000	26.177746	0.000281	20.897160
1503.388923	-2.997400	3.475800	-10.418000	26.112676	0.000282	20.941775
1504.386939	-3.002800	3.475700	-10.435000	26.085479	0.000281	20.904495
1505.390216	-2.983300	3.476300	-10.370000	26.012854	0.000278	20.917821
1506.387722	-2.980300	3.475500	-10.356000	26.015264	0.000280	20.919293
1507.387583	-3.003700	3.473900	-10.434000	26.039928	0.000280	20.910884
1508.400942	-2.986000	3.476000	-10.378000	26.055178	0.000278	20.883061
1509.390494	-2.990500	3.473600	-10.387000	26.124621	0.000281	20.904470
1510.388405	-2.984200	3.474100	-10.367000	26.128173	0.000280	20.905194
1511.392666	-2.977000	3.474500	-10.342000	26.083343	0.000275	20.906616
1512.388787	-2.988900	3.473100	-10.379000	26.077059	0.000277	20.898880
1513.388253	-3.008600	3.471500	-10.443000	26.077233	0.000277	20.871557
1514.393867	-3.038500	3.472000	-10.548000	26.097773	0.000276	20.904994
1515.390353	-3.005000	3.472200	-10.434000	26.073308	0.000275	20.875672
1516.395617	-3.022400	3.472700	-10.495000	26.034163	0.000275	20.880439
1517.392923	-3.021500	3.470100	-10.483000	26.070526	0.000276	20.891368
1518.393968	-3.024200	3.470000	-10.493000	26.043354	0.000273	20.908162
1519.395411	-3.030200	3.469900	-10.514000	26.053263	0.000276	20.900101
1520.393766	-3.017500	3.470700	-10.472000	26.092455	0.000272	20.875471
1521.394501	-2.987400	3.471400	-10.369000	26.127550	0.000274	20.871379
1522.392622	-3.010300	3.470700	-10.447000	26.132641	0.000273	20.892614
1523.396443	-3.011800	3.470600	-10.452000	26.092530	0.000276	20.886925
1524.393526	-3.011400	3.469400	-10.447000	26.118707	0.000273	20.876244
1525.396249	-3.002800	3.467900	-10.412000	26.127573	0.000273	20.896057
1526.396159	-2.979200	3.470300	-10.337000	26.087015	0.000274	20.874272
1527.392810	-3.011300	3.468100	-10.443000	26.083835	0.000271	20.897628
1528.395763	-2.987900	3.469100	-10.365000	26.022734	0.000271	20.891239
1529.396251	-2.989900	3.467700	-10.368000	26.052217	0.000271	20.889568
1530.395339	-2.953600	3.468000	-10.242000	26.093694	0.000270	20.886198
1531.394476	-2.994400	3.467600	-10.382000	26.114334	0.000271	20.875644
1532.393261	-3.000600	3.468000	-10.405000	26.107205	0.000271	20.877963
1533.394909	-2.995600	3.467900	-10.387000	26.140461	0.000270	20.870602
1534.411339	-2.990500	3.465800	-10.364000	26.136660	0.000269	20.877688
1535.396816	-2.987000	3.466100	-10.352000	26.134400	0.000271	20.883477
1536.394667	-3.005500	3.466200	-10.417000	26.080878	0.000273	20.870477
1537.399869	-2.972000	3.466100	-10.299000	26.069079	0.000268	20.858149
1538.396351	-3.002800	3.464700	-10.402000	26.036417	0.000268	20.862316
1539.396996	-2.988200	3.465600	-10.355000	26.016721	0.000268	20.877613
1540.404765	-3.022200	3.464200	-10.469000	26.027971	0.000268	20.870899
1541.399407	-2.984700	3.465000	-10.341000	26.046625	0.000268	20.864511
1542.396979	-2.971500	3.465000	-10.295000	26.089518	0.000267	20.877735
1543.399564	-2.977800	3.462800	-10.310000	26.056335	0.000266	20.879482
1544.401176	-3.008700	3.462500	-10.417000	26.070494	0.000266	20.854828
1545.401147	-2.998300	3.462700	-10.381000	26.016668	0.000266	20.869500
1546.404928	-2.988400	3.462900	-10.347000	26.010658	0.000266	20.853979
1547.399030	-2.990400	3.463400	-10.355000	26.020270	0.000266	20.854627
1548.401186	-2.988100	3.462600	-10.345000	26.087604	0.000265	20.853529
1549.400141	-2.987800	3.460300	-10.337000	26.090064	0.000265	20.837982
1550.402382	-2.990400	3.461400	-10.350000	26.161417	0.000262	20.857521
1551.400355	-2.990300	3.461700	-10.350000	26.149346	0.000264	20.848237
1552.402326	-2.988200	3.460400	-10.339000	26.077544	0.000265	20.869972
1553.405914	-2.976300	3.460400	-10.298000	26.101983	0.000264	20.870820
1554.401982	-2.996000	3.459300	-10.363000	26.044658	0.000265	20.853526
1555.404202	-2.997100	3.458700	-10.364000	26.049078	0.000263	20.837106
1556.400462	-2.981500	3.460300	-10.316000	26.024241	0.000263	20.855772
1557.400953	-2.964200	3.460200	-10.255000	26.050593	0.000263	20.869919
1558.399521	-3.013200	3.456800	-10.414000	26.048607	0.000261	20.835209
1559.404045	-2.974100	3.458800	-10.285000	26.059162	0.000260	20.839176
1560.407914	-2.994400	3.457600	-10.353000	26.017310	0.000262	20.839800
1561.402750	-2.984500	3.458400	-10.321000	26.047439	0.000262	20.843992
1562.407275	-2.979100	3.457300	-10.297000	26.035416	0.000261	20.837604
1563.405197	-2.994700	3.457800	-10.354000	26.019942	0.000262	20.857617
1564.402235	-2.970100	3.456100	-10.264000	26.049971	0.000261	20.860761
1565.403759	-2.987800	3.457200	-10.328000	26.103968	0.000261	20.839625
1566.405902	-2.976100	3.456900	-10.287000	26.127140	0.000261	20.855322
1567.401194	-2.983700	3.456400	-10.312000	26.114498	0.000262	20.855895
1568.402943	-3.004600	3.453600	-10.375000	26.089437	0.000262	20.851103
1569.405005	-3.020800	3.454400	-10.434000	26.120036	0.000260	20.838701
1570.402136	-2.977100	3.454400	-10.283000	26.141669	0.000258	20.850480
1571.401854	-2.963100	3.455500	-10.237000	26.111444	0.000261	20.839076
1572.405583	-2.989100	3.454700	-10.325000	26.114348	0.000258	20.833934
1573.402402	-3.012600	3.453100	-10.402000	26.173258	0.000261	20.842868
1574.404247	-2.998400	3.452000	-10.349000	26.149590	0.000258	20.843267
1575.407104	-2.991600	3.452000	-10.326000	26.126245	0.000258	20.842095
1576.401439	-3.008200	3.452300	-10.384000	26.098005	0.000257	20.845013
1577.402290	-3.000400	3.451500	-10.355000	26.144449	0.000256	20.842843
1578.403860	-3.011200	3.452200	-10.394000	26.155601	0.000257	20.867324
1579.407457	-3.010400	3.450900	-10.387000	26.178524	0.000257	20.825874
1580.407872	-3.013100	3.450600	-10.396000	26.214383	0.000258	20.847209
1581.407235	-3.000200	3.450700	-10.352000	26.203258	0.000254	20.864004
1582.407624	-3.014200	3.451300	-10.402000	26.146460	0.000253	20.845812
1583.407378	-2.986900	3.449900	-10.303000	26.110175	0.000256	20.842543
1584.409917	-3.006300	3.449300	-10.369000	26.098353	0.000254	20.844414
1585.409565	-2.995600	3.449800	-10.333000	26.122394	0.000254	20.846760
1586.411362	-2.984500	3.449600	-10.295000	26.140251	0.000254	20.842892
1587.415462	-2.996700	3.449600	-10.336000	26.120606	0.000252	20.847334
1588.415047	-3.011300	3.447100	-10.378000	26.160568	0.000253	20.854771
1589.411176	-2.990200	3.447700	-10.307000	26.190196	0.000254	20.845663
1590.417836	-2.984200	3.448600	-10.290000	26.144796	0.000250	20.832760
1591.414851	-2.984600	3.448000	-10.290000	26.136973	0.000253	20.847658
1592.414224	-2.992400	3.447800	-10.317000	26.169731	0.000251	20.842643
1593.412378	-2.989700	3.446800	-10.304000	26.192877	0.000251	20.838401
1594.411505	-2.989200	3.448200	-10.307000	26.188283	0.000251	20.840896
1595.416849	-2.990200	3.446600	-10.305000	26.157535	0.000249	20.837974
1596.415976	-3.013300	3.445900	-10.383000	26.111765	0.000249	20.846511
1597.416640	-3.016700	3.445900	-10.395000	26.087300	0.000248	20.825249
1598.414841	-3.007300	3.444800	-10.359000	26.082779	0.000248	20.848206
1599.413909	-2.993300	3.445600	-10.313000	26.059482	0.000248	20.844239
1600.416913	-3.008100	3.445200	-10.362000	26.090205	0.000247	20.840021
1601.414320	-2.984000	3.444700	-10.278000	26.069118	0.000248	20.829266
1602.414405	-2.996400	3.445100	-10.322000	26.099493	0.000249	20.820431
1603.413405	-2.993800	3.443100	-10.307000	26.080394	0.000247	20.841069
1604.419107	-2.966700	3.445300	-10.220000	26.053296	0.000248	20.814791
1605.414523	-3.005100	3.442400	-10.344000	26.070608	0.000247	20.848305
1606.413916	-2.977600	3.445100	-10.257000	26.144298	0.000247	20.835104
1607.418018	-2.954300	3.443500	-10.171000	26.141664	0.000249	20.814915
1608.414582	-2.967300	3.442800	-10.215000	26.142658	0.000244	20.828715
1609.411682	-2.994600	3.442400	-10.308000	26.137193	0.000244	20.849776
1610.413001	-3.005200	3.441200	-10.340000	26.106521	0.000244	20.820854
1611.413229	-3.028300	3.439700	-10.416000	26.136373	0.000247	20.838047
1612.415083	-2.982000	3.442600	-10.265000	26.149660	0.000244	20.841915
1613.414359	-3.010300	3.439100	-10.351000	26.154502	0.000246	20.831608
1614.414691	-3.012100	3.439400	-10.360000	26.168361	0.000245	20.832731
1615.415159	-3.020600	3.439300	-10.388000	26.198733	0.000245	20.832905
1616.415180	-3.000800	3.439900	-10.321000	26.176406	0.000242	20.824695
1617.415774	-3.013400	3.438000	-10.360000	26.160537	0.000243	20.823922
1618.417045	-3.018800	3.439100	-10.381000	26.172781	0.000241	20.839543
1619.416174	-3.006100	3.438700	-10.335000	26.169874	0.000241	20.813389
1620.421397	-2.998500	3.438900	-10.310000	26.158798	0.000241	20.839243
1621.413217	-2.985700	3.438800	-10.266000	26.177125	0.000241	20.818779
1622.422389	-3.010000	3.437700	-10.347000	26.217083	0.000240	20.808197
1623.420652	-3.010500	3.438000	-10.349000	26.221826	0.000241	20.825766
1624.419786	-3.005000	3.436300	-10.325000	26.220064	0.000240	20.833951
1625.415958	-3.008500	3.436900	-10.339000	26.213408	0.000242	20.839591
1626.419838	-3.015000	3.434700	-10.355000	26.217057	0.000242	20.809594
1627.419951	-2.971300	3.437300	-10.212000	26.182464	0.000241	20.811341
1628.419616	-3.003600	3.435200	-10.317000	26.163290	0.000240	20.821946
1629.420456	-3.024900	3.434900	-10.389000	26.150698	0.000239	20.813561
1630.417943	-3.013900	3.435400	-10.353000	26.174416	0.000239	20.809419
1631.422459	-2.982400	3.435500	-10.244000	26.159067	0.000237	20.790202
1632.419939	-3.004500	3.432200	-10.311000	26.198728	0.000239	20.820573
1633.423455	-3.010000	3.433100	-10.332000	26.194208	0.000237	20.805125
1634.420037	-2.989500	3.433000	-10.262000	26.194431	0.000239	20.821470
1635.428150	-3.010400	3.433900	-10.337000	26.214697	0.000237	20.832351
1636.431040	-3.011300	3.432800	-10.337000	26.189489	0.000238	20.825039
1637.423336	-3.001700	3.433400	-10.305000	26.146126	0.000237	20.811812
1638.428720	-2.998800	3.433300	-10.295000	26.119652	0.000236	20.830729
1639.426118	-3.005500	3.432400	-10.315000	26.099584	0.000235	20.806297
1640.424466	-3.007700	3.431700	-10.320000	26.100701	0.000234	20.820222
1641.425911	-3.001900	3.430200	-10.296000	26.114882	0.000236	20.821195
1642.427602	-2.989000	3.431000	-10.254000	26.150150	0.000237	20.837666
1643.424856	-2.995300	3.430500	-10.274000	26.190854	0.000234	20.822143
1644.428755	-3.019900	3.429900	-10.357000	26.191625	0.000236	20.809641
1645.429697	-3.018200	3.429800	-10.351000	26.183827	0.000234	20.813660
1646.426355	-2.998400	3.429200	-10.281000	26.178735	0.000235	20.817552
1647.432097	-3.022600	3.428700	-10.362000	26.228230	0.000233	20.796639
1648.431780	-3.016400	3.429600	-10.344000	26.240473	0.000232	20.800882
1649.427879	-2.986100	3.428900	-10.238000	26.266697	0.000232	20.797838
1650.431784	-2.991100	3.428300	-10.254000	26.287804	0.000232	20.805773
1651.434181	-2.991200	3.428400	-10.254000	26.223460	0.000231	20.805597
1652.430408	-2.988400	3.427500	-10.242000	26.187029	0.000230	20.806920
1653.436767	-2.995600	3.427400	-10.267000	26.214496	0.000230	20.791373
1654.436286	-2.969200	3.428300	-10.178000	26.219562	0.000231	20.797887
1655.435707	-2.988300	3.427000	-10.240000	26.258377	0.000230	20.808917
1656.433716	-3.004900	3.426700	-10.296000	26.266447	0.000229	20.811811
1657.432956	-2.997300	3.426500	-10.270000	26.229818	0.000231	20.814831
1658.436229	-2.996200	3.425600	-10.262000	26.180795	0.000231	20.803974
1659.438614	-2.993100	3.425500	-10.252000	26.170787	0.000230	20.779219
1660.435966	-2.995400	3.424300	-10.256000	26.134253	0.000229	20.805098
1661.433694	-3.000300	3.424600	-10.274000	26.134551	0.000230	20.792595
1662.435474	-3.000500	3.425700	-10.278000	26.163981	0.000228	20.792295
1663.438031	-3.007900	3.423800	-10.297000	26.185662	0.000229	20.759553
1664.440235	-3.001300	3.424300	-10.277000	26.195572	0.000228	20.778994
1665.437168	-2.991500	3.423500	-10.240000	26.162540	0.000229	20.797011
1666.437355	-3.003100	3.423300	-10.280000	26.179404	0.000228	20.794042
1667.439240	-2.998000	3.422300	-10.259000	26.158443	0.000227	20.788626
1668.438938	-3.020100	3.421800	-10.332000	26.180669	0.000227	20.790098
1669.437603	-2.990500	3.423200	-10.236000	26.198053	0.000227	20.791445
1670.434539	-2.988000	3.422800	-10.226000	26.189635	0.000224	20.794840
1671.436839	-3.010200	3.421100	-10.298000	26.195644	0.000223	20.788550
1672.441361	-3.031200	3.421000	-10.369000	26.172350	0.000225	20.780316
1673.440041	-2.997500	3.421400	-10.254000	26.130302	0.000226	20.790222
1674.442346	-2.987400	3.421200	-10.220000	26.129830	0.000226	20.785954
1675.441460	-2.999100	3.421700	-10.261000	26.166613	0.000224	20.779292
1676.439776	-3.010200	3.420000	-10.294000	26.195246	0.000223	20.777718
1677.439323	-2.985200	3.419700	-10.207000	26.199294	0.000223	20.776097
1678.438575	-2.988100	3.420000	-10.218000	26.209129	0.000224	20.793092
1679.439393	-3.016600	3.417300	-10.308000	26.269052	0.000224	20.774125
1680.439955	-2.963500	3.419300	-10.131000	26.284175	0.000221	20.770357
1681.442450	-3.007300	3.417000	-10.275000	26.336172	0.000222	20.786103
1682.443015	-2.994400	3.418500	-10.235000	26.342553	0.000222	20.776869
1683.440459	-2.980800	3.417500	-10.186000	26.278214	0.000221	20.784756
1684.440739	-3.009600	3.416700	-10.282000	26.221049	0.000219	20.787527
1685.444691	-2.985100	3.416500	-10.197000	26.232224	0.000223	20.792118
1686.445847	-2.977000	3.416700	-10.170000	26.220006	0.000221	20.782685
1687.439942	-3.004500	3.415500	-10.261000	26.229790	0.000222	20.787776
1688.439331	-2.975100	3.416200	-10.163000	26.233291	0.000219	20.774698
1689.443971	-3.015500	3.415400	-10.298000	26.221843	0.000222	20.779790
1690.441133	-2.983200	3.416500	-10.191000	26.281268	0.000219	20.782135
1691.442942	-3.001800	3.414900	-10.250000	26.300340	0.000218	20.787077
1692.445090	-2.994300	3.414800	-10.224000	26.313974	0.000219	20.773277
1693.445394	-3.013000	3.413000	-10.282000	26.294057	0.000218	20.784556
1694.442747	-2.981800	3.414400	-10.180000	26.310621	0.000218	20.775124
1695.446604	-3.006800	3.413600	-10.263000	26.293883	0.000217	20.766362
1696.444306	-3.007800	3.413700	-10.267000	26.291351	0.000217	20.779465
1697.449648	-3.027700	3.413000	-10.333000	26.285192	0.000218	20.775647
1698.449854	-3.004400	3.412100	-10.251000	26.280374	0.000214	20.783133
1699.444344	-2.977300	3.413300	-10.162000	26.268380	0.000215	20.771079
1700.451156	-3.002500	3.411600	-10.243000	26.232273	0.000216	20.767037
1701.450334	-3.013700	3.410400	-10.278000	26.231130	0.000217	20.769207
1702.453724	-2.985000	3.412700	-10.186000	26.227430	0.000216	20.755532
1703.452326	-2.984900	3.411200	-10.180000	26.246651	0.000214	20.768209
1704.446548	-3.020300	3.411200	-10.302000	26.237438	0.000214	20.784556
1705.449706	-3.006700	3.409900	-10.251000	26.193530	0.000211	20.777891
1706.461040	-3.015800	3.410600	-10.285000	26.168497	0.000215	20.768383
1707.451021	-3.027900	3.409900	-10.324000	26.174109	0.000215	20.782558
1708.452309	-3.014800	3.409000	-10.276000	26.193306	0.000216	20.758225
1709.462062	-3.009000	3.409800	-10.259000	26.219233	0.000214	20.770055
1710.449149	-2.982700	3.409800	-10.169000	26.233786	0.000213	20.750065
1711.453721	-2.990100	3.409300	-10.194000	26.245879	0.000214	20.763640
1712.456082	-2.992000	3.409200	-10.200000	26.277764	0.000212	20.769604
1713.453715	-3.001900	3.408300	-10.231000	26.329961	0.000211	20.758998
1714.450303	-2.979200	3.407800	-10.152000	26.299592	0.000212	20.750289
1715.455656	-2.994200	3.407400	-10.202000	26.277540	0.000210	20.767957
1716.458026	-2.998400	3.407400	-10.216000	26.277665	0.000212	20.740580
1717.454938	-2.988000	3.407500	-10.180000	26.273244	0.000211	20.765536
1718.456729	-3.001500	3.406400	-10.223000	26.311412	0.000209	20.751262
1719.459086	-3.020400	3.404900	-10.283000	26.274537	0.000212	20.751662
1720.454885	-2.993500	3.405600	-10.194000	26.252310	0.000209	20.740705
1721.453759	-2.983000	3.404600	-10.155000	26.255316	0.000209	20.747044
1722.458540	-2.998200	3.405200	-10.208000	26.252063	0.000209	20.759423
1723.455494	-2.996500	3.403500	-10.198000	26.216674	0.000209	20.743300
1724.453049	-2.991100	3.404400	-10.182000	26.236740	0.000208	20.756353
1725.454839	-3.022000	3.404100	-10.286000	26.257798	0.000206	20.734366
1726.458170	-2.990300	3.404900	-10.181000	26.291870	0.000209	20.747270
1727.467787	-2.980700	3.404400	-10.146000	26.248263	0.000206	20.746595
1728.455949	-2.987700	3.403400	-10.167000	26.241161	0.000208	20.746096
1729.455016	-2.977200	3.402800	-10.129000	26.247766	0.000208	20.754631
1730.453419	-2.999500	3.402600	-10.205000	26.202817	0.000205	20.755454
1731.466230	-3.004300	3.400800	-10.216000	26.243992	0.000207	20.753683
1732.453843	-2.985500	3.402500	-10.157000	26.233834	0.000207	20.751062
1733.457663	-3.017400	3.401300	-10.261000	26.217965	0.000205	20.741752
1734.455375	-3.001400	3.400900	-10.206000	26.221169	0.000204	20.762991
1735.458820	-2.987500	3.402000	-10.163000	26.235474	0.000205	20.738010
1736.454123	-3.007500	3.400600	-10.226000	26.298871	0.000202	20.750513
1737.457134	-3.011200	3.397900	-10.231000	26.283475	0.000205	20.744048
1738.465366	-3.016900	3.398900	-10.253000	26.282481	0.000202	20.743050
1739.461550	-3.004100	3.399600	-10.212000	26.317420	0.000202	20.736910
1740.460143	-3.032100	3.397700	-10.301000	26.344561	0.000202	20.740006
1741.459298	-3.015100	3.398300	-10.245000	26.397326	0.000203	20.744198
1742.467424	-2.999200	3.398200	-10.191000	26.416642	0.000202	20.738482
1743.458634	-3.027200	3.397800	-10.285000	26.445469	0.000203	20.730471
1744.462390	-2.991000	3.398100	-10.163000	26.410931	0.000203	20.741751
1745.457676	-2.988700	3.398100	-10.155000	26.406884	0.000200	20.735787
1746.458178	-3.024300	3.397500	-10.274000	26.388411	0.000200	20.754205
1747.458416	-3.015200	3.396000	-10.239000	26.379075	0.000201	20.755253
1748.459635	-3.000900	3.395300	-10.188000	26.365565	0.000199	20.742149
1749.459986	-2.986600	3.396500	-10.143000	26.367255	0.000200	20.741950
1750.463959	-2.980200	3.397900	-10.125000	26.381383	0.000202	20.739554
1751.468575	-3.010000	3.395200	-10.219000	26.406013	0.000198	20.746292
1752.469606	-2.998600	3.394200	-10.177000	26.427491	0.000200	20.736584
1753.462160	-3.002700	3.395000	-10.193000	26.414953	0.000197	20.754803
1754.462174	-2.997900	3.394600	-10.175000	26.359084	0.000200	20.732790
1755.461902	-3.018800	3.394200	-10.245000	26.374503	0.000197	20.744020
1756.463469	-2.995000	3.393300	-10.163000	26.363603	0.000197	20.741125
1757.465299	-2.986800	3.394100	-10.137000	26.276319	0.000198	20.743970
1758.471762	-2.993000	3.393200	-10.154000	26.278108	0.000198	20.746242
1759.463979	-2.998800	3.393800	-10.176000	26.255783	0.000198	20.734237
1760.470566	-3.002900	3.392700	-10.187000	26.239244	0.000196	20.749386
1761.464173	-2.997300	3.392100	-10.167000	26.216893	0.000195	20.730718
1762.465589	-3.010400	3.390900	-10.206000	26.236761	0.000197	20.740251
1763.464371	-3.006400	3.391500	-10.195000	26.244260	0.000195	20.744943
1764.466600	-3.003000	3.392100	-10.185000	26.234600	0.000197	20.746142
1765.466854	-2.990500	3.390700	-10.139000	26.276866	0.000195	20.750209
1766.470502	-2.996800	3.391700	-10.164000	26.300085	0.000195	20.771174
1767.465774	-3.002900	3.389600	-10.177000	26.241405	0.000196	20.734487
1768.469604	-3.012300	3.390300	-10.212000	26.264002	0.000193	20.762413
1769.467518	-2.986000	3.389900	-10.121000	26.293107	0.000192	20.741400
1770.466615	-3.006600	3.389100	-10.188000	26.322136	0.000193	20.749237
1771.470438	-2.997200	3.389500	-10.158000	26.359457	0.000194	20.740752
1772.471919	-2.965600	3.388500	-10.047000	26.261297	0.000191	20.735511
1773.468380	-3.010900	3.387900	-10.200000	26.304257	0.000193	20.759244
1774.469452	-3.004100	3.388900	-10.179000	26.294870	0.000192	20.739378
1775.470198	-3.008000	3.386900	-10.187000	26.293753	0.000191	20.740627
1776.472105	-2.990400	3.388200	-10.132000	26.286428	0.000190	20.760767
1777.469917	-3.015500	3.386700	-10.212000	26.253525	0.000188	20.753780
1778.470778	-2.993200	3.386800	-10.137000	26.211232	0.000191	20.734987
1779.471197	-3.001800	3.386300	-10.164000	26.263805	0.000190	20.754154
1780.470087	-3.007900	3.386700	-10.186000	26.336861	0.000190	20.741276
1781.471474	-3.005400	3.386300	-10.176000	26.374703	0.000190	20.745644
1782.474097	-3.025600	3.385400	-10.243000	26.446609	0.000190	20.758171
1783.471457	-3.002900	3.386500	-10.169000	26.453462	0.000190	20.742299
1784.471888	-2.996000	3.385900	-10.143000	26.438888	0.000188	20.754204
1785.469828	-3.009300	3.385600	-10.187000	26.409837	0.000189	20.758196
1786.470971	-2.998200	3.384400	-10.146000	26.409440	0.000189	20.744520
1787.469397	-3.027500	3.383900	-10.244000	26.389526	0.000188	20.748688
1788.473625	-2.998900	3.384100	-10.147000	26.401271	0.000187	20.769027
1789.484739	-3.004200	3.384700	-10.167000	26.389948	0.000189	20.731567
1790.473183	-3.011700	3.383000	-10.187000	26.381903	0.000188	20.754777
1791.477574	-2.996700	3.381800	-10.134000	26.387142	0.000186	20.729694
1792.479950	-3.013900	3.381100	-10.190000	26.388681	0.000185	20.742148
1793.473423	-3.007700	3.381600	-10.170000	26.373683	0.000186	20.744618
1794.475955	-2.994600	3.382600	-10.128000	26.481715	0.000185	20.742247
1795.482139	-2.999800	3.381400	-10.142000	26.501378	0.000187	20.740675
1796.477943	-2.997100	3.380300	-10.130000	26.514314	0.000184	20.751782
1797.478421	-2.984800	3.382100	-10.094000	26.508006	0.000184	20.743069
1798.475002	-2.997400	3.380500	-10.132000	26.461058	0.000184	20.765582
1799.476811	-2.977900	3.381700	-10.070000	26.433821	0.000183	20.748162
1800.478717	-3.011400	3.380000	-10.178000	26.441220	0.000182	20.753702
1801.480806	-2.985000	3.381000	-10.092000	26.415769	0.000184	20.750407
1802.480356	-3.027700	3.378900	-10.229000	26.389624	0.000183	20.732664
1803.477455	-2.991200	3.378700	-10.105000	26.409140	0.000181	20.763660
1804.479491	-3.001600	3.378200	-10.139000	26.420437	0.000182	20.748460
1805.480702	-2.991300	3.379200	-10.107000	26.393348	0.000181	20.763909
1806.505540	-3.009000	3.378000	-10.164000	26.405093	0.000183	20.764333
1807.483265	-2.995000	3.377800	-10.116000	26.415297	0.000179	20.738079
1808.482760	-3.007600	3.377400	-10.157000	26.437295	0.000181	20.766354
1809.479831	-3.008000	3.376300	-10.156000	26.415322	0.000181	20.758019
1810.484617	-3.006200	3.375400	-10.146000	26.444446	0.000181	20.766903
1811.487627	-3.007000	3.376200	-10.151000	26.421553	0.000180	20.754324
1812.484322	-2.995500	3.375800	-10.112000	26.423267	0.000181	20.775488
1813.483987	-2.996600	3.376600	-10.117000	26.401317	0.000177	20.772393
1814.484359	-2.981300	3.374900	-10.060000	26.390342	0.000179	20.772268
1815.483670	-2.993700	3.375300	-10.103000	26.403602	0.000178	20.764731
1816.484710	-3.009700	3.374100	-10.153000	26.372267	0.000176	20.780180
1817.486608	-3.015800	3.374400	-10.176000	26.355356	0.000176	20.780254
1818.487527	-3.015400	3.372200	-10.168000	26.353693	0.000177	20.767202
1819.484848	-2.978200	3.373000	-10.045000	26.309543	0.000177	20.768825
1820.488984	-3.008100	3.373800	-10.148000	26.318730	0.000174	20.761462
1821.488400	-3.016400	3.372300	-10.171000	26.382149	0.000176	20.767352
1822.489837	-3.018700	3.371800	-10.176000	26.428505	0.000175	20.761312
1823.489489	-3.029700	3.372100	-10.215000	26.456363	0.000174	20.767975
1824.493579	-2.989000	3.372200	-10.078000	26.456041	0.000174	20.751055
1825.490227	-2.994200	3.371500	-10.094000	26.482606	0.000173	20.763533
1826.492200	-2.997400	3.372000	-10.107000	26.500905	0.000173	20.769124
1827.496513	-3.009800	3.371200	-10.146000	26.551650	0.000175	20.762285
1828.492223	-2.997500	3.370600	-10.102000	26.486752	0.000174	20.765804
1829.491925	-2.989700	3.372100	-10.080000	26.407152	0.000173	20.770670
1830.492215	-3.002400	3.369500	-10.116000	26.400647	0.000175	20.768874
1831.496375	-3.014600	3.370200	-10.158000	26.461057	0.000174	20.752778
1832.492887	-2.979600	3.370400	-10.041000	26.479329	0.000173	20.766877
1833.496467	-3.011900	3.369400	-10.147000	26.513368	0.000173	20.787815
1834.494983	-2.989200	3.369200	-10.071000	26.543880	0.000174	20.762535
1835.496027	-3.004300	3.368700	-10.119000	26.556143	0.000171	20.770121
1836.496333	-2.989500	3.368000	-10.068000	26.602767	0.000173	20.762935
1837.497709	-3.010700	3.366900	-10.135000	26.562426	0.000170	20.778807
1838.496986	-2.990600	3.367400	-10.070000	26.458896	0.000171	20.792807
1839.496902	-2.980600	3.366700	-10.034000	26.432503	0.000170	20.787142
1840.494731	-3.012800	3.367100	-10.144000	26.443726	0.000168	20.782774
1841.494392	-3.047700	3.365200	-10.255000	26.436328	0.000169	20.773916
1842.495317	-3.016100	3.365500	-10.149000	26.424707	0.000170	20.779306
1843.496099	-3.023800	3.365500	-10.175000	26.461950	0.000170	20.777385
1844.498312	-3.010500	3.365100	-10.129000	26.489609	0.000170	20.787642
1845.498763	-3.006600	3.365300	-10.117000	26.507634	0.000170	20.783949
1846.497210	-3.001100	3.364300	-10.096000	26.540158	0.000169	20.780605
1847.503567	-2.984700	3.364800	-10.042000	26.539809	0.000168	20.798273
1848.495857	-2.993400	3.365000	-10.072000	26.530228	0.000168	20.780581
1849.495791	-2.984600	3.363300	-10.037000	26.518907	0.000169	20.780107
1850.498298	-2.998800	3.363900	-10.087000	26.506120	0.000167	20.791909
1851.496106	-2.966300	3.363600	-9.976600	26.487028	0.000165	20.805910
1852.496363	-2.995400	3.363500	-10.073000	26.480771	0.000166	20.803888
1853.496398	-2.989100	3.362800	-10.051000	26.493781	0.000168	20.770024
1854.499866	-2.981300	3.363000	-10.025000	26.524394	0.000167	20.787993
1855.497313	-3.016100	3.362400	-10.140000	26.573252	0.000164	20.782577
1856.497656	-3.018400	3.360800	-10.143000	26.525139	0.000165	20.794906
1857.499692	-2.991700	3.363100	-10.060000	26.556793	0.000164	20.799697
1858.496934	-2.998700	3.360400	-10.076000	26.590928	0.000166	20.791812
1859.498587	-3.008800	3.360400	-10.110000	26.562254	0.000162	20.787643
1860.501427	-2.998700	3.361500	-10.079000	26.505352	0.000163	20.792086
1861.504539	-2.992900	3.361000	-10.058000	26.494130	0.000163	20.807359
1862.504234	-2.982400	3.360400	-10.021000	26.470693	0.000162	20.790439
1863.505084	-3.014600	3.359800	-10.128000	26.470694	0.000163	20.789492
1864.503894	-2.998400	3.359300	-10.072000	26.511411	0.000161	20.789168
1865.502226	-3.012700	3.357800	-10.116000	26.488469	0.000162	20.803091
1866.499200	-2.990600	3.357700	-10.041000	26.511583	0.000162	20.807359
1867.505128	-3.006300	3.357500	-10.093000	26.539689	0.000161	20.816644
1868.503708	-3.010300	3.357900	-10.108000	26.571590	0.000162	20.804615
1869.505060	-2.984600	3.357000	-10.018000	26.553666	0.000161	20.815994
1870.504059	-2.991300	3.356200	-10.038000	26.525613	0.000160	20.806287
1871.502639	-2.979300	3.357400	-10.002000	26.507638	0.000159	20.842746
1872.507971	-2.983400	3.356900	-10.014000	26.509401	0.000158	20.797105
1873.508814	-2.985100	3.355100	-10.014000	26.510567	0.000160	20.822933
1874.505629	-2.973300	3.356300	-9.977900	26.540534	0.000157	20.809907
1875.507198	-3.018800	3.354600	-10.126000	26.533659	0.000160	20.810582
1876.509420	-2.979300	3.355500	-9.996400	26.547511	0.000156	20.816446
1877.504330	-3.005200	3.355000	-10.081000	26.556598	0.000158	20.800450
1878.504905	-3.012200	3.354600	-10.104000	26.544731	0.000158	20.838306
1879.503052	-3.021700	3.353000	-10.130000	26.501880	0.000158	20.815148
1880.506438	-2.971200	3.355600	-9.969700	26.502650	0.000157	20.799802
1881.502757	-2.997400	3.354500	-10.054000	26.462305	0.000155	20.828950
1882.503133	-3.008500	3.354700	-10.092000	26.483583	0.000156	20.809560
1883.515714	-3.011900	3.351800	-10.094000	26.527627	0.000155	20.824433
1884.506951	-3.012200	3.353700	-10.101000	26.515636	0.000157	20.819019
1885.510608	-2.985600	3.352200	-10.007000	26.540960	0.000156	20.825982
1886.507555	-2.991300	3.352300	-10.027000	26.579912	0.000154	20.824359
1887.507048	-3.000500	3.351100	-10.054000	26.628569	0.000155	20.812581
1888.506621	-3.005900	3.353000	-10.077000	26.662007	0.000155	20.810160
1889.508802	-3.000600	3.351200	-10.055000	26.675115	0.000153	20.838984
1890.511115	-2.998000	3.351800	-10.048000	26.677646	0.000154	20.828253
1891.515402	-3.019200	3.351500	-10.118000	26.732107	0.000153	20.827529
1892.509078	-3.024100	3.349200	-10.128000	26.723445	0.000151	20.811709
1893.512652	-2.999100	3.350900	-10.049000	26.697605	0.000154	20.818447
1894.512283	-3.004300	3.349900	-10.063000	26.710240	0.000154	20.813605
1895.512398	-2.997700	3.349600	-10.041000	26.695347	0.000151	20.840357
1896.511766	-2.996800	3.348700	-10.035000	26.672658	0.000150	20.840307
1897.510991	-2.974100	3.350400	-9.962600	26.644012	0.000149	20.828579
1898.511780	-3.001700	3.348400	-10.050000	26.593221	0.000149	20.854806
1899.510419	-2.997100	3.348800	-10.036000	26.574976	0.000149	20.826509
1900.511714	-2.977400	3.348900	-9.969900	26.533763	0.000150	20.846721
1901.511517	-2.977700	3.349500	-9.972800	26.524529	0.000150	20.838862
1902.510588	-3.004700	3.345500	-10.052000	26.611194	0.000149	20.841581
1903.510369	-2.992400	3.346600	-10.013000	26.556578	0.000148	20.843103
1904.511863	-2.991300	3.345700	-10.008000	26.540615	0.000146	20.819945
1905.512403	-3.021500	3.345900	-10.109000	26.550522	0.000148	20.821369
1906.512341	-3.010500	3.345300	-10.070000	26.587165	0.000147	20.831176
1907.512503	-3.008700	3.345300	-10.064000	26.614100	0.000148	20.835019
1908.513252	-3.001200	3.344000	-10.035000	26.638801	0.000145	20.867435
1909.510996	-3.001300	3.343900	-10.035000	26.643865	0.000145	20.840759
1910.512995	-2.999600	3.344300	-10.030000	26.646000	0.000145	20.826310
1911.510254	-3.021100	3.344200	-10.102000	26.584310	0.000144	20.860547
1912.510257	-3.015100	3.343100	-10.079000	26.612064	0.000146	20.843877
1913.509444	-3.009400	3.343100	-10.060000	26.586842	0.000145	20.855981
1914.508000	-3.021500	3.343200	-10.101000	26.546475	0.000143	20.837214
1915.511986	-3.035900	3.342700	-10.147000	26.537837	0.000143	20.838963
1916.513390	-3.002200	3.343500	-10.037000	26.537016	0.000144	20.835767
1917.512287	-2.973200	3.342900	-9.938500	26.535451	0.000143	20.846048
1918.513738	-3.018100	3.341800	-10.085000	26.571574	0.000144	20.850116
1919.516694	-3.011100	3.341100	-10.059000	26.634010	0.000145	20.844602
1920.511458	-3.006600	3.340100	-10.041000	26.654241	0.000142	20.837914
1921.511924	-2.996700	3.340000	-10.008000	26.649574	0.000141	20.856929
1922.515558	-2.990700	3.340800	-9.990600	26.633711	0.000142	20.855681
1923.514699	-2.990000	3.340600	-9.987700	26.622018	0.000141	20.843926
1924.515764	-2.988300	3.339500	-9.978000	26.647314	0.000141	20.842330
1925.517443	-2.977900	3.340500	-9.946900	26.709844	0.000140	20.853509
1926.519966	-2.978000	3.340400	-9.946900	26.749535	0.000140	20.841731
1927.514999	-3.007000	3.339200	-10.041000	26.731364	0.000139	20.861868
1928.516533	-2.985300	3.340200	-9.970500	26.731316	0.000138	20.861345
1929.517251	-3.000000	3.337600	-10.012000	26.749756	0.000140	20.869453
1930.517135	-3.030200	3.336900	-10.110000	26.792375	0.000140	20.857301
1931.519431	-3.001500	3.337900	-10.018000	26.830126	0.000140	20.861119
1932.513226	-2.986400	3.338700	-9.968300	26.828612	0.000138	20.864812
1933.522167	-3.028000	3.336100	-10.099000	26.829977	0.000139	20.849116
1934.515509	-3.004300	3.337300	-10.026000	26.809601	0.000140	20.850439
1935.519183	-2.988900	3.337500	-9.974500	26.789718	0.000137	20.872647
1936.516401	-2.992900	3.335700	-9.981200	26.789892	0.000136	20.858124
1937.515601	-2.988400	3.336600	-9.970100	26.798431	0.000138	20.858174
1938.516068	-3.000000	3.335100	-10.005000	26.768744	0.000136	20.859146
1939.517718	-3.008400	3.335100	-10.033000	26.810096	0.000137	20.872747
1940.519099	-2.980000	3.335500	-9.938700	26.773485	0.000136	20.877662
1941.519651	-2.994600	3.335000	-9.985900	26.770481	0.000133	20.865634
1942.522904	-3.014100	3.335200	-10.052000	26.745461	0.000131	20.876988
1943.526128	-3.012800	3.334300	-10.045000	26.729873	0.000135	20.862739
1944.521831	-3.010400	3.333300	-10.033000	26.744442	0.000136	20.883075
1945.520255	-2.972100	3.333500	-9.906600	26.728085	0.000134	20.868054
1946.521859	-2.978700	3.333900	-9.929200	26.705596	0.000134	20.885746
1947.523707	-2.966000	3.333700	-9.886300	26.747767	0.000133	20.856548
1948.527167	-2.982400	3.333800	-9.941900	26.801406	0.000134	20.881553
1949.522631	-3.013100	3.332300	-10.039000	26.757149	0.000132	20.896799
1950.523264	-3.004900	3.331800	-10.011000	26.785197	0.000132	20.886592
1951.524699	-3.018100	3.330700	-10.051000	26.768665	0.000132	20.886566
1952.524902	-3.009100	3.331500	-10.024000	26.728356	0.000131	20.884447
1953.523900	-3.019700	3.330300	-10.055000	26.734958	0.000131	20.880653
1954.526035	-3.012900	3.330400	-10.032000	26.690477	0.000129	20.898520
1955.531481	-3.020900	3.328700	-10.054000	26.767250	0.000131	20.878980
1956.525349	-3.015400	3.329100	-10.038000	26.821682	0.000133	20.889137
1957.527901	-3.011100	3.328400	-10.021000	26.869012	0.000131	20.901163
1958.524834	-2.989100	3.329300	-9.951200	26.889536	0.000129	20.879129
1959.522420	-2.982100	3.328800	-9.925900	26.876110	0.000129	20.892654
1960.522304	-3.012300	3.327400	-10.022000	26.859977	0.000128	20.890183
1961.521784	-3.001400	3.328300	-9.988700	26.901797	0.000127	20.874862
1962.521831	-2.987600	3.329100	-9.945400	26.922991	0.000127	20.881949
1963.522928	-3.010300	3.327100	-10.014000	26.873974	0.000126	20.896670
1964.520801	-2.980900	3.327300	-9.917100	26.840468	0.000125	20.892852
1965.522481	-3.009000	3.327100	-10.011000	26.855856	0.000126	20.891729
1966.522241	-3.003200	3.325600	-9.986900	26.851364	0.000125	20.900014
1967.526034	-2.995200	3.325500	-9.959500	26.848932	0.000124	20.911792
1968.524485	-2.991600	3.324600	-9.944700	26.822746	0.000127	20.887836
1969.523172	-2.984700	3.325100	-9.923500	26.834362	0.000126	20.908048
1970.533602	-2.996200	3.324400	-9.959800	26.897402	0.000124	20.884193
1971.523776	-2.990300	3.324400	-9.939900	26.861143	0.000123	20.881399
1972.527792	-2.993300	3.324200	-9.949700	26.888095	0.000123	20.873412
1973.530815	-2.992100	3.324700	-9.947000	26.928672	0.000122	20.904255
1974.524864	-2.985500	3.324000	-9.923300	26.967065	0.000122	20.916782
1975.524717	-3.006100	3.322800	-9.988100	26.970265	0.000123	20.901509
1976.529665	-3.000700	3.323100	-9.970200	26.923162	0.000122	20.891129
1977.528127	-2.985700	3.322700	-9.919900	26.892759	0.000124	20.886163
1978.529624	-2.994700	3.322100	-9.947900	26.895937	0.000122	20.879875
1979.531148	-2.980200	3.323900	-9.905300	26.908569	0.000121	20.905377
1980.540718	-2.993700	3.322100	-9.944700	26.915989	0.000122	20.912364
1981.528568	-2.977800	3.322100	-9.891400	26.946862	0.000122	20.918751
1982.532033	-3.012800	3.321700	-10.006000	26.909164	0.000119	20.917354
1983.536035	-2.988100	3.321000	-9.922000	26.892338	0.000122	20.910392
1984.543422	-2.991700	3.320500	-9.932700	26.898765	0.000120	20.910217
1985.533717	-2.994300	3.320800	-9.942500	26.907650	0.000118	20.912987
1986.549309	-3.000000	3.320300	-9.959000	26.920431	0.000118	20.903081
1987.533613	-2.988000	3.319000	-9.916100	26.871191	0.000119	20.902406
1988.535629	-3.004800	3.318200	-9.970000	26.821230	0.000118	20.921396
1989.536127	-3.008700	3.318100	-9.981700	26.823613	0.000116	20.901034
1990.534621	-2.998600	3.318700	-9.950700	26.800927	0.000117	20.912363
1991.534891	-3.025000	3.318200	-10.037000	26.830190	0.000117	20.904802
1992.539496	-3.012900	3.317200	-9.993800	26.823910	0.000115	20.897540
1993.536887	-3.016200	3.315900	-9.999900	26.804451	0.000115	20.925862
1994.537492	-3.024200	3.316300	-10.027000	26.814702	0.000118	20.920523
1995.542408	-2.995800	3.317000	-9.936000	26.842921	0.000118	20.932299
1996.536602	-2.986400	3.316500	-9.904100	26.888167	0.000115	20.902406
1997.534044	-2.993600	3.316900	-9.928700	26.912935	0.000115	20.898863
1998.542210	-3.009400	3.315700	-9.977400	26.881565	0.000115	20.901931
1999.536029	-3.004800	3.314500	-9.959300	26.845205	0.000112	20.901881
2000.536613	-2.980700	3.314900	-9.879600	26.817879	0.000112	20.883891
2001.535166	-2.971100	3.316800	-9.854200	26.837784	0.000113	20.901058
2002.541206	-2.987200	3.314300	-9.899600	26.856126	0.000114	20.896268
2003.539104	-2.991900	3.315800	-9.920000	26.844039	0.000113	20.881270
2004.541344	-2.990200	3.314400	-9.909700	26.844907	0.000113	20.889729
2005.538654	-3.013200	3.312600	-9.981100	26.870942	0.000113	20.898362
2006.538783	-3.000300	3.312800	-9.938000	26.840043	0.000115	20.872038
2007.540397	-2.996000	3.312300	-9.922500	26.822471	0.000111	20.881395
2008.537014	-2.986900	3.311500	-9.890700	26.848729	0.000112	20.886461
2009.545947	-2.986700	3.312300	-9.891400	26.862256	0.000109	20.871613
2010.538158	-3.020500	3.311000	-9.999700	26.850888	0.000109	20.890528
2011.541142	-2.985800	3.312700	-9.890500	26.895264	0.000109	20.880621
2012.544682	-3.011700	3.310500	-9.969300	26.976616	0.000110	20.869966
2013.544061	-2.994300	3.311700	-9.914700	27.014186	0.000108	20.870764
2014.540129	-3.014300	3.309300	-9.974800	27.090343	0.000110	20.870539
2015.543395	-3.014400	3.310400	-9.977600	27.055081	0.000106	20.886759
2016.548213	-2.984000	3.310700	-9.878500	27.025651	0.000106	20.877551
2017.540016	-3.002800	3.310200	-9.938500	27.037685	0.000109	20.889178
2018.543450	-3.022600	3.309000	-10.000000	27.018156	0.000108	20.876178
2019.542636	-2.969900	3.310100	-9.829800	27.043046	0.000106	20.868967
2020.542221	-2.996800	3.307500	-9.911300	26.991058	0.000108	20.874057
2021.539982	-2.994100	3.307100	-9.900800	27.045825	0.000107	20.875555
2022.545397	-3.005900	3.307800	-9.941700	27.092898	0.000105	20.869790
2023.543439	-2.995000	3.306900	-9.903300	27.103963	0.000106	20.867168
2024.544961	-3.000400	3.305600	-9.917200	27.088307	0.000104	20.853795
2025.544005	-2.998400	3.306800	-9.913600	27.090986	0.000104	20.871187
2026.541504	-3.000600	3.306800	-9.920800	27.111308	0.000105	20.864125
2027.544063	-2.995700	3.306400	-9.903900	27.074486	0.000105	20.859334
2028.545998	-3.008700	3.303800	-9.939100	27.026196	0.000105	20.883789
2029.544218	-3.003700	3.304700	-9.926000	27.002447	0.000103	20.850425
2030.545265	-2.993700	3.304400	-9.891100	27.000734	0.000102	20.862452
2031.546030	-3.005000	3.305600	-9.932400	27.069423	0.000104	20.870837
2032.543667	-2.995700	3.304600	-9.898900	27.045006	0.000102	20.845335
2033.541380	-2.997600	3.303400	-9.901600	27.078133	0.000100	20.845460
2034.548584	-3.009600	3.303700	-9.942400	27.077587	9.938679E-5	20.866246
2035.543461	-3.003500	3.302400	-9.917800	27.028082	0.000102	20.847755
2036.542801	-2.998700	3.304100	-9.908000	27.042449	0.000100	20.872634
2037.544631	-2.991300	3.302100	-9.876700	27.061333	9.961780E-5	20.851797
2038.546819	-3.014000	3.301500	-9.949900	27.042152	9.856173E-5	20.864749
2039.546603	-3.010000	3.302900	-9.941300	27.033491	0.000100	20.855091
2040.547629	-2.995400	3.302100	-9.890200	27.001454	9.658158E-5	20.864599
2041.549149	-3.013600	3.301100	-9.947700	26.937924	9.892475E-5	20.857138
2042.545403	-3.003500	3.299500	-9.909200	26.969442	9.697761E-5	20.859433
2043.550941	-2.994600	3.301900	-9.886800	26.970831	9.618555E-5	20.869839
2044.547007	-2.983500	3.300900	-9.847200	27.023888	9.767066E-5	20.853969
2045.552168	-3.001600	3.299300	-9.902400	27.070489	9.796768E-5	20.860531
2046.556919	-3.010200	3.297900	-9.926700	27.082524	9.644957E-5	20.852246
2047.548882	-3.002600	3.299500	-9.906100	27.119572	9.559151E-5	20.839246
2048.547186	-2.996400	3.299800	-9.886900	27.145524	9.694461E-5	20.849226
2049.548520	-2.999800	3.297400	-9.890200	27.157385	9.407340E-5	20.839819
2050.548704	-2.988700	3.299800	-9.861200	27.120389	9.331434E-5	20.850499
2051.548415	-2.975300	3.298500	-9.813000	27.135426	9.456844E-5	20.863250
2052.549080	-2.975200	3.297700	-9.810300	27.173959	9.437042E-5	20.835626
2053.556864	-2.980600	3.296700	-9.825800	27.213979	9.262129E-5	20.858808
2054.549250	-2.976400	3.298000	-9.814700	27.204551	9.242328E-5	20.855015
2055.556095	-3.015200	3.295500	-9.935500	27.198050	9.202725E-5	20.848002
2056.552690	-3.001900	3.294600	-9.888900	27.111827	8.984909E-5	20.851845
2057.548725	-2.984300	3.295000	-9.832400	27.112671	9.182924E-5	20.844159
2058.553654	-2.986200	3.295500	-9.839700	27.148773	9.272030E-5	20.839218
2059.551518	-2.969900	3.296800	-9.789900	27.160309	9.163122E-5	20.843708
2060.555110	-2.986900	3.295300	-9.841700	27.136589	9.496446E-5	20.825068
2061.555831	-2.990300	3.294200	-9.849700	27.083886	8.978309E-5	20.837021
2062.552866	-2.998200	3.294000	-9.875500	27.148351	8.879301E-5	20.850173
2063.551311	-3.019800	3.293800	-9.945900	27.178150	8.945306E-5	20.840789
2064.549988	-3.022500	3.292200	-9.949600	27.201174	8.856200E-5	20.853042
2065.552825	-3.010200	3.292900	-9.910900	27.172295	8.942006E-5	20.830633
2066.550364	-3.014300	3.291600	-9.920600	27.227722	8.806696E-5	20.829485
2067.551523	-2.977500	3.292800	-9.803200	27.281485	8.793495E-5	20.860803
2068.555203	-2.989400	3.292700	-9.842400	27.276524	8.730790E-5	20.824519
2069.552448	-3.000200	3.290400	-9.870900	27.246852	8.506374E-5	20.843036
2070.553919	-2.988100	3.290500	-9.831000	27.264615	8.377665E-5	20.830084
2071.555578	-3.002800	3.290900	-9.880800	27.291732	8.767093E-5	20.830334
2072.551895	-3.005400	3.290800	-9.889000	27.325448	8.813297E-5	20.822524
2073.552978	-3.004800	3.289100	-9.882300	27.354721	8.714289E-5	20.826841
2074.556492	-3.002300	3.290000	-9.877000	27.335892	8.202752E-5	20.834452
2075.553734	-3.007300	3.289700	-9.891600	27.329243	8.483272E-5	20.822074
2076.552835	-3.024400	3.286900	-9.939900	27.278783	8.536076E-5	20.819679
2077.556583	-3.014800	3.289100	-9.915600	27.231743	8.394166E-5	20.830684
2078.556059	-3.029300	3.286700	-9.954200	27.192914	8.338062E-5	20.851371
2079.555378	-2.995100	3.289500	-9.851500	27.176736	8.232454E-5	20.827514
2080.562945	-3.014000	3.288200	-9.909800	27.205964	8.116946E-5	20.844109
2081.554222	-3.006000	3.286600	-9.879000	27.274516	8.123546E-5	20.831034
2082.555749	-3.017700	3.287100	-9.918900	27.305700	8.265456E-5	20.834427
2083.563302	-3.023600	3.286100	-9.934400	27.288036	8.120246E-5	20.827564
2084.556986	-3.015600	3.286000	-9.909100	27.274962	8.143348E-5	20.831008
2085.557390	-2.998400	3.285700	-9.851200	27.259133	8.212653E-5	20.813190
2086.555841	-3.014900	3.285000	-9.903400	27.238268	8.057541E-5	20.814488
2087.558500	-3.006900	3.284600	-9.876100	27.212142	7.968435E-5	20.808599
2088.558282	-2.969100	3.285100	-9.752200	27.253798	7.935432E-5	20.819204
2089.556786	-2.997800	3.283600	-9.842400	27.287490	8.100444E-5	20.811368
2090.559275	-2.986800	3.283400	-9.805500	27.308378	7.846326E-5	20.809621
2091.557366	-2.986900	3.283800	-9.807000	27.365809	8.041040E-5	20.817132
2092.560508	-3.020600	3.282000	-9.912300	27.404061	8.070742E-5	20.819104
2093.555699	-3.015900	3.281200	-9.894900	27.356084	7.598808E-5	20.832479
2094.557090	-2.998400	3.282100	-9.840400	27.303390	7.684614E-5	20.824517
2095.562623	-3.017900	3.281300	-9.902200	27.285081	7.648311E-5	20.835972
2096.562961	-2.990500	3.280800	-9.810600	27.230872	7.618609E-5	20.824592
2097.556575	-3.006400	3.281600	-9.864400	27.239506	7.767120E-5	20.818104
2098.563257	-3.021900	3.279700	-9.909500	27.262157	7.529503E-5	20.826663
2099.562264	-3.015500	3.279500	-9.887900	27.339164	7.645011E-5	20.824467
2100.562666	-2.993400	3.280000	-9.817000	27.404977	7.539403E-5	20.820973
2101.566029	-3.005300	3.278500	-9.852700	27.369702	7.397493E-5	20.812040
2102.558284	-2.981400	3.280600	-9.779100	27.295971	7.506401E-5	20.831278
2103.561522	-2.978600	3.280500	-9.770300	27.293415	7.466798E-5	20.811164
2104.559110	-2.995300	3.278900	-9.819900	27.340650	7.443696E-5	20.821695
2105.561802	-2.996200	3.276200	-9.815200	27.311873	7.427195E-5	20.810291
2106.556900	-3.020200	3.277900	-9.899200	27.286244	7.387592E-5	20.802528
2107.562151	-2.981300	3.277900	-9.771300	27.265083	7.268784E-5	20.815381
2108.562996	-2.972700	3.278400	-9.745200	27.266942	7.225880E-5	20.824838
2109.567122	-2.987600	3.277900	-9.792700	27.269150	7.384292E-5	20.804774
2110.562499	-2.991600	3.277100	-9.802700	27.275228	7.338089E-5	20.808991
2111.560363	-3.015100	3.276300	-9.877400	27.320033	7.298486E-5	20.832724
2112.564507	-3.019100	3.275500	-9.888200	27.374013	7.328188E-5	20.816851
2113.562491	-3.009900	3.273700	-9.852700	27.298349	7.103771E-5	20.831300
2114.565034	-3.019600	3.273900	-9.884800	27.229950	7.146675E-5	20.796639
2115.560690	-2.998200	3.275400	-9.819300	27.244860	7.123573E-5	20.815428
2116.565551	-3.010500	3.274000	-9.855600	27.314400	6.869454E-5	20.801927
2117.565106	-3.023300	3.272300	-9.892500	27.296413	7.060868E-5	20.837887
2118.563398	-3.002900	3.273100	-9.828000	27.360169	7.021265E-5	20.821890
2119.569280	-3.004000	3.273400	-9.832100	27.409783	7.080670E-5	20.791670
2120.563922	-3.011300	3.272600	-9.853200	27.382397	6.852953E-5	20.814853
2121.565111	-3.011500	3.271400	-9.850900	27.409063	6.763847E-5	20.826033
2122.563968	-2.986800	3.271400	-9.770600	27.417399	6.899157E-5	20.826832
2123.565911	-2.993500	3.271700	-9.792800	27.402267	6.763847E-5	20.805445
2124.567579	-3.025900	3.270500	-9.895500	27.398794	6.823251E-5	20.802900
2125.569239	-3.004100	3.270500	-9.824200	27.339356	6.780348E-5	20.812333
2126.566354	-2.982700	3.271000	-9.755500	27.308321	6.826551E-5	20.813356
2127.567498	-3.002500	3.270600	-9.819100	27.302491	6.707742E-5	20.805121
2128.570849	-2.971900	3.270100	-9.718000	27.256345	6.727544E-5	20.799955
2129.569222	-2.987800	3.268000	-9.763200	27.247612	6.592234E-5	20.798757
2130.572601	-2.978100	3.267700	-9.730700	27.244686	6.476726E-5	20.813357
2131.575150	-2.998000	3.269400	-9.800900	27.209678	6.605435E-5	20.802326
2132.569742	-2.987300	3.268600	-9.763800	27.229426	6.635137E-5	20.824086
2133.568527	-2.980400	3.268600	-9.740800	27.250268	6.569132E-5	20.802376
2134.571618	-2.975600	3.267500	-9.722000	27.252550	6.539430E-5	20.783809
2135.573975	-3.000300	3.266700	-9.799900	27.290507	6.351316E-5	20.795437
2136.572809	-3.003800	3.266900	-9.812600	27.321419	6.433822E-5	20.811833
2137.575889	-2.990700	3.266300	-9.767600	27.319411	6.301813E-5	20.806968
2138.574526	-3.007300	3.265500	-9.819100	27.354538	6.394220E-5	20.796311
2139.571530	-2.968400	3.264100	-9.688500	27.297157	6.443723E-5	20.804971
2140.567256	-3.012600	3.264500	-9.833600	27.283808	6.077396E-5	20.783483
2141.571778	-3.002500	3.265200	-9.802100	27.279914	6.427222E-5	20.796161
2142.570701	-3.008600	3.263300	-9.817600	27.275151	6.361217E-5	20.798008
2143.569845	-3.006100	3.262900	-9.807900	27.306037	6.100498E-5	20.788300
2144.570747	-3.017800	3.263900	-9.849100	27.383636	6.225907E-5	20.778642
2145.572402	-3.024100	3.261700	-9.863000	27.419333	6.407421E-5	20.787052
2146.566990	-3.021600	3.261100	-9.852800	27.446569	6.176404E-5	20.788849
2147.567232	-2.969300	3.263800	-9.689100	27.483653	6.202806E-5	20.793915
2148.574517	-2.995300	3.261000	-9.766700	27.504587	6.285312E-5	20.793165
2149.568895	-3.011400	3.259000	-9.812400	27.463610	5.922285E-5	20.799829
2150.571471	-3.014000	3.259600	-9.824000	27.465073	5.965188E-5	20.809836
2151.576231	-3.030100	3.259300	-9.874400	27.451778	6.070796E-5	20.789347
2152.573544	-3.008600	3.259200	-9.804900	27.437787	5.948687E-5	20.796134
2153.573373	-2.984200	3.261500	-9.732400	27.479410	5.978389E-5	20.808138
2154.584237	-2.980500	3.259400	-9.713700	27.502800	5.753973E-5	20.807015
2155.577042	-3.017400	3.259300	-9.832800	27.515896	5.720970E-5	20.785578
2156.572406	-3.004200	3.258800	-9.788300	27.526116	5.668166E-5	20.800602
2157.576271	-2.996600	3.257700	-9.761000	27.501411	5.648365E-5	20.781436
2158.575980	-3.002800	3.258100	-9.782800	27.517285	5.608762E-5	20.812580
2159.577387	-2.979100	3.257400	-9.703400	27.583930	5.612062E-5	20.785278
2160.574557	-2.993500	3.257300	-9.749200	27.634576	5.747372E-5	20.783132
2161.581247	-2.989300	3.256300	-9.732600	27.676637	5.684668E-5	20.784679
2162.576528	-3.012600	3.255500	-9.807200	27.670461	5.407447E-5	20.769455
2163.578349	-3.006500	3.255800	-9.788200	27.602309	5.539457E-5	20.790968
2164.580491	-3.017600	3.255700	-9.822900	27.559351	5.486653E-5	20.788996
2165.573936	-3.017500	3.253900	-9.817800	27.518451	5.493254E-5	20.775345
2166.572257	-3.019300	3.254300	-9.825100	27.534697	5.387646E-5	20.783157
2167.576536	-3.004000	3.252800	-9.771000	27.561881	5.381045E-5	20.794387
2168.575796	-3.010200	3.253100	-9.791500	27.585121	5.503154E-5	20.782209
2169.574561	-2.965000	3.253500	-9.646000	27.562402	5.272137E-5	20.784480
2170.578660	-2.981600	3.253700	-9.700300	27.518278	5.321641E-5	20.764740
2171.575149	-2.990600	3.252000	-9.724100	27.522147	5.097225E-5	20.771478
2172.578667	-2.997900	3.251200	-9.745800	27.535565	5.044421E-5	20.794462
2173.578029	-2.986400	3.250700	-9.707100	27.528323	5.074123E-5	20.808986
2174.577346	-2.978400	3.251000	-9.682300	27.508531	5.384346E-5	20.787176
2175.582376	-3.023800	3.250000	-9.826600	27.549654	5.103825E-5	20.775446
2176.577984	-2.988600	3.250800	-9.714200	27.593009	4.955314E-5	20.797732
2177.582692	-2.994200	3.249700	-9.729200	27.579071	5.159929E-5	20.787026
2178.583400	-2.993100	3.250300	-9.727800	27.556550	5.014718E-5	20.770531
2179.584644	-3.011400	3.248000	-9.779700	27.552954	4.945413E-5	20.775922
2180.582316	-3.038000	3.246900	-9.861700	27.600724	4.912411E-5	20.777993
2181.581242	-3.006900	3.247200	-9.762300	27.580361	4.869508E-5	20.801127
2182.581287	-3.000600	3.248300	-9.746300	27.604469	4.793602E-5	20.770856
2183.579661	-2.993600	3.249100	-9.725000	27.651938	4.945413E-5	20.767886
2184.581725	-3.001700	3.246200	-9.743300	27.713021	4.981716E-5	20.792368
2185.578699	-3.006000	3.250300	-9.770100	27.758799	4.839806E-5	20.763519
2186.581670	-2.997000	3.247000	-9.730500	27.753815	4.928912E-5	20.774151
2187.580824	-2.987800	3.245500	-9.696000	27.710319	4.671493E-5	20.763570
2188.581054	-2.977900	3.246000	-9.665600	27.685198	4.730898E-5	20.763421
2189.580894	-2.986700	3.245100	-9.691200	27.648939	4.496580E-5	20.762497
2190.584396	-2.993800	3.245900	-9.716400	27.630364	4.681394E-5	20.762298
2191.580799	-2.966600	3.244400	-9.624400	27.551023	4.592287E-5	20.774452
2192.586702	-2.993000	3.243700	-9.707900	27.549012	4.506481E-5	20.788551
2193.582318	-2.992300	3.243300	-9.703600	27.505185	4.437176E-5	20.761525
2194.584022	-2.990300	3.242200	-9.694100	27.606480	4.691295E-5	20.787104
2195.586535	-3.003300	3.243100	-9.738800	27.628158	4.430576E-5	20.775251
2196.584656	-2.999300	3.241200	-9.720300	27.612458	4.387672E-5	20.751867
2197.591280	-2.986700	3.244000	-9.688200	27.643584	4.509781E-5	20.757582
2198.589387	-2.996600	3.240700	-9.709900	27.668534	4.516382E-5	20.761826
2199.587557	-3.009200	3.241600	-9.754000	27.695789	4.489980E-5	20.765070
2200.592227	-3.005300	3.239600	-9.734800	27.702112	4.486680E-5	20.785658
2201.591517	-3.010300	3.239300	-9.750500	27.594726	4.450377E-5	20.780967
2202.588915	-2.990300	3.240000	-9.687800	27.621784	4.575786E-5	20.772157
2203.591474	-2.995000	3.238700	-9.699300	27.635400	4.321668E-5	20.779694
2204.592319	-2.996200	3.237500	-9.699300	27.674636	4.295266E-5	20.769863
2205.589435	-2.998800	3.238500	-9.710100	27.637236	4.351370E-5	20.777274
2206.589834	-2.998700	3.238600	-9.710700	27.673693	4.077450E-5	20.761802
2207.588905	-2.996000	3.237300	-9.698100	27.666501	4.417375E-5	20.782066
2208.593035	-3.013600	3.236400	-9.751500	27.681430	4.621990E-5	20.762001
2209.589622	-3.006900	3.235500	-9.728100	27.708215	4.169856E-5	20.792747
2210.590971	-2.986000	3.236100	-9.662000	27.687359	4.278764E-5	20.773657
2211.591139	-3.012200	3.235400	-9.744800	27.638355	4.183057E-5	20.775080
2212.587003	-3.000500	3.235300	-9.706700	27.645571	4.011445E-5	20.757685
2213.592066	-3.000500	3.234900	-9.705700	27.645274	4.311767E-5	20.761180
2214.596613	-3.019600	3.235000	-9.767700	27.691949	4.166556E-5	20.770215
2215.594149	-2.979600	3.234700	-9.637000	27.711292	4.011445E-5	20.773085
2216.590517	-2.991000	3.233300	-9.670100	27.628732	4.348070E-5	20.748802
2217.593427	-2.979500	3.231900	-9.629100	27.641654	3.945440E-5	20.765124
2218.594991	-3.004000	3.232500	-9.709900	27.625981	4.153355E-5	20.761681
2219.589914	-2.993800	3.233500	-9.680100	27.666258	3.952041E-5	20.781347
2220.594526	-2.993100	3.233500	-9.677500	27.739317	3.754026E-5	20.758138
2221.598650	-2.986200	3.229900	-9.644100	27.733837	3.938840E-5	20.759261
2222.594575	-3.003000	3.230400	-9.700000	27.741276	3.727624E-5	20.741142
2223.591792	-3.009900	3.229000	-9.718700	27.730464	3.899237E-5	20.754444
2224.595015	-2.995800	3.229100	-9.672600	27.701500	3.816731E-5	20.757066
2225.591975	-3.001900	3.231000	-9.698500	27.641037	3.846433E-5	20.758813
2226.594707	-3.034100	3.227600	-9.792300	27.638954	3.846433E-5	20.739647
2227.592968	-2.992400	3.229500	-9.663300	27.699046	3.631917E-5	20.762183
2228.594206	-3.029900	3.227900	-9.779000	27.734781	4.031246E-5	20.747409
2229.595180	-3.000800	3.228800	-9.688300	27.831839	3.793629E-5	20.763531
2230.599536	-2.984600	3.228400	-9.634100	27.853387	3.843133E-5	20.765777
2231.597093	-2.995800	3.226100	-9.664200	27.892664	3.674820E-5	20.730864
2232.594018	-2.984200	3.226100	-9.627000	27.892539	3.760626E-5	20.743541
2233.595762	-3.002200	3.226200	-9.685100	27.950881	3.707823E-5	20.733036
2234.600841	-2.975600	3.225800	-9.598200	27.994692	3.608815E-5	20.765280
2235.597458	-3.011900	3.225000	-9.712600	27.998931	3.668220E-5	20.765280
2236.593201	-3.012400	3.224600	-9.712600	27.941808	3.777128E-5	20.731963
2237.596668	-3.010000	3.224000	-9.703100	27.926512	3.721024E-5	20.734112
2238.597747	-2.989200	3.223800	-9.636500	27.838017	3.651718E-5	20.749834
2239.598217	-3.002300	3.222500	-9.672900	27.776225	3.463605E-5	20.768254
2240.598831	-2.990200	3.223300	-9.637300	27.821727	3.622016E-5	20.738181
2241.598536	-3.010100	3.223300	-9.701700	27.864055	3.688021E-5	20.748064
2242.602591	-2.948900	3.222600	-9.502300	27.863063	3.371198E-5	20.757024
2243.599600	-2.985300	3.223300	-9.621300	27.810421	3.506508E-5	20.749088
2244.604330	-3.011700	3.221100	-9.700400	27.797999	3.473505E-5	20.748914
2245.600734	-2.975400	3.221300	-9.584000	27.819598	3.209486E-5	20.753107
2246.600656	-2.974100	3.220500	-9.576800	27.810349	3.377798E-5	20.754705
2247.601090	-2.988500	3.219500	-9.620600	27.797181	3.499907E-5	20.747142
2248.602032	-2.982900	3.220000	-9.603900	27.849899	3.509808E-5	20.740455
2249.606640	-2.981600	3.219900	-9.599600	27.843973	3.275491E-5	20.748242
2250.605871	-3.004000	3.217200	-9.662700	27.755374	3.209486E-5	20.745373
2251.609298	-2.966800	3.220000	-9.552500	27.757184	3.225987E-5	20.741979
2252.601007	-2.978000	3.219000	-9.585300	27.818286	3.324994E-5	20.755106
2253.604166	-2.980200	3.219500	-9.594400	27.880425	3.057675E-5	20.759324
2254.606239	-2.986700	3.217000	-9.607100	27.907253	3.420702E-5	20.751712
2255.602294	-2.993100	3.215900	-9.624600	27.902244	3.268890E-5	20.731498
2256.608410	-3.006900	3.216300	-9.670500	27.841074	3.235888E-5	20.763342
2257.605721	-2.994000	3.214800	-9.623600	27.832149	3.169883E-5	20.744402
2258.609586	-2.977000	3.216400	-9.574400	27.809409	3.123680E-5	20.740008
2259.608346	-2.999600	3.214600	-9.641400	27.843803	3.206186E-5	20.773675
2260.611848	-3.000000	3.213200	-9.638700	27.848192	3.120379E-5	20.765290
2261.606427	-3.007400	3.212700	-9.661200	27.838199	2.909164E-5	20.738162
2262.613482	-3.005400	3.212700	-9.654800	27.855433	3.186384E-5	20.750292
2263.614130	-3.029100	3.212900	-9.731600	27.829868	3.054375E-5	20.766289
2264.610562	-3.018600	3.212400	-9.695800	27.861905	2.876162E-5	20.735468
2265.614118	-3.019500	3.210400	-9.693200	27.849954	2.935566E-5	20.740985
2266.610881	-2.999300	3.210200	-9.627600	27.910528	2.895963E-5	20.742680
2267.606541	-3.011000	3.212400	-9.671300	27.915289	3.136881E-5	20.761698
2268.612890	-3.011700	3.210300	-9.668000	28.008537	2.757353E-5	20.753138
2269.611403	-2.995300	3.209900	-9.613800	28.034272	2.796956E-5	20.739213
2270.608107	-3.004600	3.208900	-9.640300	28.035660	2.803556E-5	20.757681
2271.612377	-3.007200	3.208400	-9.646700	28.012579	2.829958E-5	20.775699
2272.610182	-3.000900	3.208100	-9.626500	28.057031	2.793655E-5	20.752640
2273.612183	-2.985900	3.207100	-9.575500	28.062907	2.760653E-5	20.746701
2274.616053	-2.977900	3.208200	-9.552400	28.073790	2.655045E-5	20.764295
2275.610058	-2.976600	3.208900	-9.551100	27.981391	2.532936E-5	20.752366
2276.608502	-3.013600	3.205500	-9.658600	27.910977	2.727651E-5	20.770160
2277.612039	-3.001300	3.206400	-9.621400	27.874877	2.800256E-5	20.765595
2278.619294	-3.012500	3.205600	-9.656000	27.906440	2.631944E-5	20.745679
2279.611694	-3.013300	3.207300	-9.663200	27.916905	2.787055E-5	20.760005
2280.609848	-2.991100	3.205900	-9.588300	27.914501	2.503234E-5	20.735773
2281.609091	-2.986100	3.203400	-9.564700	27.929649	2.800256E-5	20.754340
2282.611829	-2.997300	3.204500	-9.604200	27.935824	2.519735E-5	20.754865
2283.613710	-3.002400	3.204000	-9.619100	28.019898	2.453730E-5	20.765522
2284.618336	-3.002300	3.202100	-9.613400	28.017667	2.546137E-5	20.741464
2285.608165	-2.980900	3.200600	-9.540300	27.991561	2.450430E-5	20.758336
2286.617002	-2.989100	3.201000	-9.567000	27.975271	2.559338E-5	20.769915
2287.610235	-2.990200	3.200500	-9.569200	27.959058	2.503234E-5	20.763078
2288.613243	-3.000100	3.199400	-9.597700	28.017644	2.631944E-5	20.768469
2289.610491	-2.986300	3.199600	-9.554200	28.078308	2.410827E-5	20.767421
2290.611898	-3.011200	3.199000	-9.631900	28.074021	2.354723E-5	20.766424
2291.616315	-2.997000	3.199300	-9.587700	28.059493	2.245815E-5	20.743739
2292.617040	-2.992700	3.198700	-9.571400	28.059097	2.414128E-5	20.751875
2293.613603	-2.979600	3.197400	-9.525800	28.088921	2.377825E-5	20.760086
2294.616907	-3.000100	3.198300	-9.593800	28.106895	2.341522E-5	20.754946
2295.615650	-3.007000	3.196500	-9.610800	28.098045	2.391026E-5	20.754572
2296.617395	-2.982100	3.196100	-9.530000	28.117852	2.090704E-5	20.757442
2297.614885	-3.017400	3.194100	-9.636900	28.092640	2.202912E-5	20.743441
2298.618662	-3.003600	3.195400	-9.596600	28.072189	2.146808E-5	20.759364
2299.614919	-2.988700	3.195300	-9.548900	28.064703	2.094004E-5	20.768898
2300.614957	-2.977200	3.194600	-9.510300	28.068248	2.163309E-5	20.755871
2301.615913	-2.989200	3.194500	-9.548000	28.054984	2.242515E-5	20.773814
2302.616857	-3.013700	3.192600	-9.620800	28.038796	2.041200E-5	20.765579
2303.617741	-3.010400	3.192500	-9.609500	28.030119	2.127006E-5	20.773440
2304.619614	-2.981000	3.192000	-9.513900	28.020425	1.968595E-5	20.787865
2305.617334	-3.012200	3.190400	-9.607800	27.990452	1.968595E-5	20.775237
2306.617388	-2.983700	3.192100	-9.523500	28.067206	1.922391E-5	20.754822
2307.618896	-3.000500	3.189300	-9.568800	28.124696	1.991697E-5	20.784246
2308.618711	-2.978100	3.190000	-9.499200	28.152211	2.097304E-5	20.772591
2309.619462	-3.005000	3.189500	-9.583500	28.145518	1.853086E-5	20.784345
2310.618071	-2.996900	3.189900	-9.558300	28.128612	2.107205E-5	20.780602
2311.618189	-2.982500	3.188300	-9.507600	28.140511	1.833285E-5	20.760812
2312.617287	-3.003500	3.186400	-9.569700	28.173505	1.981796E-5	20.784546
2313.625108	-3.027200	3.186600	-9.646000	28.148369	1.955394E-5	20.770146
2314.627437	-3.029200	3.186200	-9.650800	28.174770	1.697975E-5	20.785819
2315.623378	-2.988000	3.186900	-9.521300	28.183991	1.697975E-5	20.769023
2316.621559	-3.007100	3.185600	-9.578800	28.156624	1.737578E-5	20.762335
2317.627666	-3.004600	3.185100	-9.569300	28.144403	1.780481E-5	20.768998
2318.629051	-3.020900	3.185100	-9.620900	28.198565	1.849786E-5	20.796498
2319.625047	-3.017000	3.182500	-9.600600	28.226823	1.922391E-5	20.790808
2320.620833	-2.972400	3.183500	-9.461300	28.226550	1.856387E-5	20.773939
2321.621194	-2.999800	3.182300	-9.545000	28.180222	1.796982E-5	20.776609
2322.620810	-2.998500	3.180900	-9.536900	28.136173	1.674873E-5	20.792481
2323.623305	-2.975500	3.180500	-9.462100	28.058678	1.658372E-5	20.791757
2324.627536	-2.981900	3.180900	-9.484200	27.955914	1.853086E-5	20.771293
2325.624870	-2.978500	3.180300	-9.471500	27.979963	1.691374E-5	20.790284
2326.627435	-3.000100	3.179600	-9.538100	28.056943	1.645171E-5	20.782424
2327.626343	-2.979300	3.178300	-9.467000	28.134213	1.671573E-5	20.780551
2328.626913	-3.003900	3.178300	-9.546600	28.131536	1.556064E-5	20.790658
2329.624981	-3.014900	3.177000	-9.578200	28.167728	1.915791E-5	20.797221
2330.625654	-2.988400	3.176500	-9.491600	28.156275	1.714476E-5	20.801339
2331.624386	-2.984900	3.175600	-9.478300	28.171149	1.450457E-5	20.795924
2332.632047	-3.003200	3.175600	-9.536100	28.188426	1.872888E-5	20.787713
2333.629234	-2.976000	3.176300	-9.451500	28.245908	1.622069E-5	20.786316
2334.626587	-2.999900	3.173600	-9.519100	28.234978	1.410854E-5	20.793329
2335.626693	-2.994100	3.173200	-9.500300	28.223377	1.559365E-5	20.771692
2336.635644	-3.010500	3.172800	-9.550800	28.163711	1.806883E-5	20.782272
2337.631696	-3.001900	3.173300	-9.525400	28.171620	1.414154E-5	20.773164
2338.630487	-3.006300	3.170100	-9.529000	28.184336	1.387752E-5	20.783596
2339.631172	-3.007200	3.170000	-9.531800	28.240801	1.691374E-5	20.775484
2340.631198	-2.985700	3.170600	-9.465300	28.206496	1.473558E-5	20.802112
2341.625225	-2.987200	3.169700	-9.467400	28.211502	1.321747E-5	20.777281
2342.626579	-2.988100	3.168600	-9.467500	28.261051	1.559365E-5	20.784492
2343.632983	-3.004400	3.169000	-9.520100	28.314985	1.315147E-5	20.805605
2344.628038	-2.980600	3.168900	-9.443600	28.307598	1.414154E-5	20.802909
2345.631975	-3.012500	3.166500	-9.538000	28.211774	1.523062E-5	20.787512
2346.642924	-2.981800	3.165600	-9.438300	28.159297	1.272244E-5	20.791105
2347.626413	-3.019600	3.164800	-9.555300	28.194943	1.259043E-5	20.794748
2348.629503	-2.986800	3.165300	-9.453700	28.192042	1.391052E-5	20.784242
2349.632260	-3.000300	3.164900	-9.494900	28.197991	1.212839E-5	20.797817
2350.626534	-3.006400	3.163400	-9.509500	28.202601	1.374551E-5	20.798665
2351.626512	-3.018600	3.161700	-9.543000	28.215937	1.361350E-5	20.786488
2352.627155	-3.006600	3.161500	-9.503800	28.235766	1.163336E-5	20.805977
2353.631967	-3.008800	3.160500	-9.508600	28.207039	1.074229E-5	20.807874
2354.630451	-2.985900	3.161800	-9.439200	28.253937	1.127033E-5	20.785390
2355.629148	-2.998700	3.160700	-9.476500	28.248085	1.120432E-5	20.800362
2356.631955	-3.021100	3.158700	-9.541900	28.229446	1.414154E-5	20.788234
2357.632911	-3.008500	3.158100	-9.500600	28.263825	1.090730E-5	20.820002
2358.627718	-3.022400	3.158200	-9.544300	28.312704	1.087430E-5	20.794773
2359.633728	-2.999600	3.157800	-9.471100	28.367675	1.153435E-5	20.792277
2360.628088	-2.994500	3.157000	-9.452300	28.401158	1.229340E-5	20.814138
2361.631530	-3.016300	3.155200	-9.515700	28.320436	1.331648E-5	20.782644
2362.633349	-2.995700	3.156200	-9.454300	28.298823	1.103931E-5	20.818256
2363.630252	-2.999500	3.154400	-9.460500	28.307325	9.719215E-6	20.802160
2364.636716	-2.981300	3.153900	-9.401600	28.301400	1.051127E-5	20.806626
2365.632799	-3.007700	3.153800	-9.484600	28.318007	1.110532E-5	20.813389
2366.628497	-3.014100	3.152700	-9.501200	28.344552	1.051127E-5	20.806926
2367.629303	-2.991900	3.152700	-9.432000	28.372161	9.026164E-6	20.806751
2368.629827	-2.995700	3.150500	-9.437000	28.338752	9.356189E-6	20.797293
2369.629218	-3.000600	3.149100	-9.447700	28.295552	1.011524E-5	20.815910
2370.630095	-3.023700	3.149500	-9.522300	28.253415	8.234106E-6	20.802883
2371.630267	-2.970600	3.148600	-9.352300	28.201907	7.112024E-6	20.819303
2372.632112	-2.976000	3.149000	-9.370600	28.238393	8.795147E-6	20.838967
2373.629614	-2.963600	3.149000	-9.331300	28.280506	9.389191E-6	20.820675
2374.638524	-2.994900	3.147500	-9.424600	28.290123	8.102096E-6	20.809022
2375.635234	-2.996600	3.145800	-9.425300	28.263527	8.498126E-6	20.807848
2376.630697	-2.983400	3.146100	-9.385600	28.213160	6.914009E-6	20.826839
2377.633851	-2.983700	3.145000	-9.383000	28.213779	9.191176E-6	20.818928
2378.636084	-3.007200	3.142800	-9.449900	28.293989	7.838077E-6	20.841362
2379.637347	-3.004000	3.142000	-9.437200	28.363684	9.026164E-6	20.832354
2380.636044	-2.996000	3.142100	-9.412300	28.347351	8.993162E-6	20.818280
2381.635798	-3.012700	3.141400	-9.463500	28.303927	7.079021E-6	20.795893
2382.636725	-2.994500	3.139900	-9.401500	28.323657	7.211031E-6	20.815285
2383.636143	-2.984100	3.140500	-9.370400	28.330099	7.640062E-6	20.816556
2384.633926	-2.997700	3.139500	-9.410200	28.289452	7.244033E-6	20.838691
2385.639871	-3.006900	3.139200	-9.438300	28.356223	6.418973E-6	20.820574
2386.635610	-2.999500	3.137900	-9.411400	28.333719	8.729143E-6	20.805976
2387.632582	-3.001200	3.136000	-9.410900	28.338726	6.319965E-6	20.818604
2388.640094	-3.032100	3.136000	-9.507400	28.277530	4.768851E-6	20.828584
2389.638725	-2.972900	3.136400	-9.323400	28.278944	5.989941E-6	20.816732
2390.634758	-2.997800	3.133200	-9.392100	28.345740	4.174807E-6	20.810967
2391.638493	-2.971300	3.133100	-9.308900	28.395631	6.616987E-6	20.820426
2392.633739	-2.977700	3.131800	-9.323800	28.426707	5.824929E-6	20.827063
2393.633527	-2.974200	3.132500	-9.315900	28.463955	7.706067E-6	20.836596
2394.636265	-2.990500	3.131400	-9.363400	28.482318	4.438827E-6	20.828536
2395.637969	-3.000500	3.131300	-9.395100	28.433128	6.022943E-6	20.836847
2396.640463	-2.987200	3.128500	-9.344800	28.485838	6.088948E-6	20.831133
2397.639652	-3.003200	3.128000	-9.393800	28.521522	5.131878E-6	20.840041
2398.638031	-3.009000	3.126800	-9.407100	28.513866	3.151732E-6	20.838969
2399.635124	-2.998400	3.126500	-9.373100	28.491886	4.603839E-6	20.856662
2400.636181	-2.988300	3.126100	-9.340400	28.518946	6.682992E-6	20.829860
2401.641117	-3.026900	3.124200	-9.455700	28.530172	5.890934E-6	20.836898
2402.639727	-2.995600	3.123700	-9.356600	28.467229	4.108802E-6	20.831833
2403.639708	-3.004600	3.122500	-9.381100	28.471244	8.415620E-7	20.833031
2404.642533	-3.001100	3.122100	-9.369100	28.490252	6.220958E-6	20.838422
2405.637579	-2.975200	3.121000	-9.284000	28.545264	4.768851E-6	20.837873
2406.639104	-2.977900	3.121600	-9.295000	28.579584	2.953717E-6	20.837349
2407.642194	-2.979800	3.119800	-9.295300	28.566724	4.207810E-6	20.837200
2408.641921	-2.975500	3.118900	-9.278300	28.531512	4.075800E-6	20.841567
2409.644517	-2.959300	3.119600	-9.230500	28.546603	3.547761E-6	20.842066
2410.653827	-2.981400	3.118900	-9.297500	28.561943	1.567615E-6	20.864151
2411.641896	-2.988100	3.116800	-9.312600	28.585557	3.415751E-6	20.849528
2412.642502	-2.991300	3.115600	-9.318000	28.590290	1.600618E-6	20.845760
2413.644598	-2.992200	3.114500	-9.318500	28.561868	2.887713E-6	20.839422
2414.643394	-3.002800	3.112500	-9.345800	28.613830	2.920715E-6	20.839597
2415.644180	-2.998100	3.112000	-9.329700	28.665986	6.435474E-7	20.848979
2416.645958	-3.011600	3.111700	-9.370400	28.702383	2.095654E-6	20.853397
2417.646508	-3.012900	3.111100	-9.372900	28.696512	2.161659E-6	20.856491
2418.645380	-3.014200	3.109300	-9.370700	28.697057	1.534613E-6	20.860360
2419.644953	-3.005400	3.109300	-9.343500	28.704317	1.600618E-6	20.846336
2420.646393	-2.998700	3.106600	-9.314400	28.690715	2.392676E-6	20.857291
2421.641625	-3.011900	3.105800	-9.353500	28.631845	9.075668E-7	20.862481
2422.643629	-3.012500	3.105100	-9.353100	28.614402	2.590691E-6	20.853449
2423.648435	-2.997000	3.104000	-9.301000	28.527203	-1.831635E-6	20.865201
2424.644225	-3.018300	3.104500	-9.369500	28.472115	2.161659E-6	20.849080
2425.646259	-3.018200	3.102800	-9.363800	28.538033	5.445401E-7	20.849556
2426.642529	-3.017700	3.101700	-9.358800	28.571757	2.145158E-7	20.865501
2427.647315	-3.007500	3.100200	-9.322800	28.615493	-4.950365E-8	20.861185
2428.645755	-3.009600	3.100800	-9.330300	28.667202	2.029649E-6	20.864902
2429.649074	-3.012700	3.098900	-9.335400	28.630656	1.468608E-6	20.873137
2430.642120	-3.002700	3.098300	-9.302000	28.591184	2.491683E-6	20.870367
2431.646580	-2.993500	3.096600	-9.268800	28.567869	-4.950365E-8	20.867749
2432.649498	-2.990600	3.096400	-9.259200	28.584941	-1.402603E-6	20.863132
2433.642343	-2.981200	3.095600	-9.227500	28.606970	-1.105581E-6	20.858766
2434.645451	-3.010900	3.094100	-9.314300	28.632366	-1.336598E-6	20.857791
2435.644270	-3.009900	3.091500	-9.304200	28.643046	-6.765498E-7	20.869969
2436.642043	-2.995100	3.091900	-9.260000	28.716807	-1.270594E-6	20.855123
2437.644226	-2.966600	3.091800	-9.171500	28.667278	-1.435606E-6	20.860711
2438.647774	-2.980300	3.090700	-9.210300	28.649216	-2.128657E-6	20.873338
2439.647239	-3.003100	3.088700	-9.275300	28.630782	-1.765630E-6	20.877532
2440.644929	-3.011100	3.086500	-9.292800	28.587716	-1.138584E-6	20.858340
2441.646679	-3.002000	3.086300	-9.264300	28.545716	-2.326671E-6	20.871517
2442.647992	-2.996400	3.085100	-9.243600	28.547252	-4.042798E-6	20.883968
2443.648578	-2.998000	3.084800	-9.247200	28.553001	-1.930642E-6	20.875534
2444.648866	-3.010400	3.083900	-9.283300	28.578845	-2.458681E-6	20.876906
2445.648112	-2.980500	3.083400	-9.189000	28.604517	-2.293669E-6	20.865777
2446.648736	-3.000900	3.082200	-9.248000	28.679270	-1.006574E-6	20.885116
2447.651616	-3.002700	3.078600	-9.243000	28.749584	-2.095654E-6	20.865378
2448.652107	-3.000200	3.079300	-9.237100	28.774309	-4.125304E-7	20.867050
2449.650910	-2.987700	3.078700	-9.198100	28.748543	-3.646769E-6	20.882821
2450.651057	-3.007400	3.076400	-9.251100	28.746909	-2.524686E-6	20.877382
2451.651942	-2.990700	3.075100	-9.196000	28.783228	-1.369601E-6	20.869396
2452.651353	-3.009300	3.073900	-9.249500	28.835772	-1.204589E-6	20.880599
2453.657014	-2.984200	3.073500	-9.170200	28.865797	-1.567615E-6	20.885241
2454.649526	-2.975800	3.072200	-9.141400	28.907909	-2.260666E-6	20.896371
2455.650503	-2.989000	3.070900	-9.178300	28.841544	-3.580764E-6	20.878354
2456.658268	-3.010000	3.070200	-9.239500	28.780454	-2.854710E-6	20.878455
2457.649312	-2.990700	3.070200	-9.180700	28.761624	-4.306817E-6	20.901211
2458.651487	-2.981500	3.067800	-9.145500	28.730433	-2.722700E-6	20.890657
2459.649613	-2.989500	3.066000	-9.164800	28.719954	-3.283742E-6	20.876309
2460.652475	-2.989800	3.065400	-9.164300	28.740070	-4.339820E-6	20.896096
2461.650019	-3.029400	3.062200	-9.275600	28.713215	-2.953718E-6	20.897969
2462.649629	-3.013500	3.063400	-9.230400	28.703453	-3.448754E-6	20.886715
2463.652334	-3.012700	3.060300	-9.218300	28.778374	-1.633620E-6	20.883945
2464.649835	-2.985100	3.062800	-9.142500	28.773691	-2.788705E-6	20.884919
2465.650029	-2.962900	3.061300	-9.069300	28.790141	-2.194662E-6	20.901488
2466.650947	-2.984000	3.057700	-9.123300	28.823957	-1.501611E-6	20.897146
2467.654923	-3.008300	3.057400	-9.196800	28.843602	-3.844783E-6	20.910770
2468.651471	-3.005300	3.055000	-9.180900	28.845361	-3.151732E-6	20.907801
2469.652649	-2.968700	3.056200	-9.071400	28.795294	-3.151732E-6	20.884394
2470.657700	-3.005200	3.053900	-9.176500	28.792669	-1.897640E-6	20.923472
2471.651268	-2.982100	3.053400	-9.104700	28.796286	-2.722700E-6	20.898195
2472.652294	-2.984500	3.051000	-9.104400	28.803148	-1.864637E-6	20.888513
2473.657086	-3.007200	3.049300	-9.169300	28.808997	-4.801854E-6	20.884447
2474.652594	-2.990900	3.049300	-9.118300	28.870877	-4.570837E-6	20.901264
2475.652678	-3.022600	3.045900	-9.205800	28.866296	-4.108803E-6	20.906605
2476.653026	-2.991900	3.046100	-9.112700	28.917003	-3.745776E-6	20.901739
2477.656247	-3.005500	3.045200	-9.151100	28.986187	-4.141805E-6	20.892258
2478.654494	-2.994200	3.043700	-9.112400	28.955993	-4.834856E-6	20.912570
2479.653544	-3.013700	3.042000	-9.167000	28.876452	-2.953718E-6	20.906879
2480.656114	-2.984700	3.040800	-9.075100	28.848782	-4.900861E-6	20.900816
2481.654890	-3.000900	3.040300	-9.122700	28.784793	-4.108803E-6	20.910798
2482.659420	-2.990200	3.039300	-9.086800	28.848236	-4.042798E-6	20.920179
2483.654775	-2.978000	3.037700	-9.045100	28.878361	-3.646769E-6	20.916862
2484.657280	-3.010900	3.034400	-9.134300	28.892406	-3.712773E-6	20.903037
2485.657843	-3.014300	3.035000	-9.147500	28.945936	-2.458681E-6	20.916187
2486.658788	-3.018000	3.033300	-9.153700	28.975908	-3.811781E-6	20.901815
2487.658468	-3.004900	3.033700	-9.115600	28.952279	-4.339820E-6	20.920207
2488.659677	-2.987700	3.030400	-9.052600	28.902936	-4.075800E-6	20.919807
2489.661350	-2.999800	3.029800	-9.087900	28.808800	-2.491683E-6	20.924074
2490.660068	-3.024100	3.029100	-9.159400	28.844945	-4.669844E-6	20.923976
2491.658657	-2.999700	3.027300	-9.080000	28.819057	-4.141805E-6	20.915442
2492.656159	-3.003300	3.026400	-9.088200	28.908213	-5.065873E-6	20.917538
2493.662900	-2.996900	3.025300	-9.066000	28.956343	-2.656696E-6	20.922404
2494.658131	-3.003600	3.023600	-9.081000	28.997040	-5.428900E-6	20.928319
2495.665621	-3.015500	3.022000	-9.112000	28.922461	-5.791927E-6	20.920986
2496.665475	-3.006700	3.021500	-9.084100	28.853693	-7.244034E-6	20.928046
2497.663768	-2.979700	3.021400	-9.001600	28.841704	-6.748997E-6	20.912651
2498.669706	-3.037800	3.018100	-9.167400	28.897864	-2.854710E-6	20.928447
2499.661963	-2.992300	3.017900	-9.029700	28.872002	-6.319965E-6	20.918990
2500.665238	-2.986700	3.016700	-9.008700	28.896848	-6.649990E-6	20.905615
2501.673067	-2.998200	3.013900	-9.035200	28.868635	-5.527907E-6	20.914651
2502.667971	-2.985400	3.012900	-8.993800	28.840072	-5.230885E-6	20.897258
2503.659966	-2.999400	3.011700	-9.032100	28.828974	-6.055946E-6	20.898406
2504.671381	-3.008900	3.009900	-9.055600	28.864994	-4.933863E-6	20.924258
2505.669754	-2.991200	3.008600	-8.997700	28.920881	-4.735849E-6	20.913231
2506.664983	-2.997200	3.009100	-9.018100	28.872478	-3.778778E-6	20.881541
2507.664503	-2.969100	3.007100	-8.927500	28.903071	-4.174807E-6	20.887230
2508.663749	-3.021200	3.004800	-9.077300	28.920559	-7.277036E-6	20.900580
2509.664452	-2.973100	3.003900	-8.928800	28.994352	-5.956939E-6	20.908543
2510.666611	-2.992700	3.001600	-8.981800	28.962151	-6.253961E-6	20.872784
2511.666571	-3.003400	3.000000	-9.008400	28.966585	-6.088948E-6	20.894319
2512.664376	-2.997600	2.999100	-8.989500	28.879492	-6.154953E-6	20.910889
2513.665119	-2.989200	2.998500	-8.962200	28.888583	-6.055946E-6	20.911514
2514.667178	-2.985800	2.996400	-8.946200	28.890592	-6.088948E-6	20.901210
2515.667213	-3.002300	2.996000	-8.994100	28.893019	-6.980014E-6	20.894647
2516.668026	-3.017400	2.994300	-9.034600	28.917964	-5.494905E-6	20.901759
2517.668398	-3.004700	2.992200	-8.989400	28.916454	-4.372822E-6	20.899289
2518.668492	-3.006400	2.991200	-8.991900	28.965598	-5.857931E-6	20.895221
2519.666552	-3.002300	2.988100	-8.969700	28.969810	-5.593912E-6	20.894723
2520.671226	-2.987100	2.989600	-8.929000	28.912740	-7.277036E-6	20.885117
2521.668023	-2.987000	2.986900	-8.921200	28.936817	-4.537834E-6	20.886615
2522.672375	-2.995400	2.986200	-8.943600	29.037035	-5.758924E-6	20.887539
2523.665001	-3.004500	2.983100	-8.962100	29.042954	-7.541055E-6	20.897770
2524.669727	-3.001500	2.982600	-8.950700	28.989678	-5.989941E-6	20.908101
2525.669531	-2.982000	2.982300	-8.892200	28.914105	-6.451975E-6	20.878432
2526.666620	-2.996800	2.979600	-8.928600	28.869465	-7.508053E-6	20.891307
2527.673440	-2.972200	2.979500	-8.854800	28.893767	-6.055946E-6	20.902512
2528.670682	-2.995200	2.976000	-8.912800	28.952523	-7.112024E-6	20.875886
2529.672850	-3.016900	2.975900	-8.976900	29.001420	-7.277036E-6	20.882949
2530.675714	-3.015700	2.972700	-8.963800	29.014324	-6.121951E-6	20.879355
2531.673630	-2.999400	2.971900	-8.912300	28.990422	-5.857931E-6	20.869499
2532.670720	-3.001200	2.970500	-8.913900	29.061557	-7.442048E-6	20.881427
2533.674120	-3.019300	2.968400	-8.961000	29.124340	-6.550982E-6	20.893479
2534.672582	-3.013800	2.967600	-8.942900	29.128550	-6.088948E-6	20.869748
2535.675311	-2.999700	2.966000	-8.896300	29.115177	-4.999868E-6	20.872868
2536.675354	-3.015900	2.964200	-8.938300	29.146060	-6.517980E-6	20.887865
2537.678128	-2.998800	2.963600	-8.886400	29.179394	-5.263888E-6	20.874040
2538.679565	-3.003500	2.962200	-8.896700	29.165105	-4.669844E-6	20.870547
2539.672710	-2.984400	2.959500	-8.831300	29.095957	-6.583985E-6	20.892380
2540.676866	-2.983500	2.960700	-8.832100	29.122557	-6.187956E-6	20.886467
2541.675232	-2.999500	2.957100	-8.868300	29.093631	-6.782000E-6	20.856374
2542.676250	-2.996600	2.956600	-8.859300	29.121641	-8.795148E-6	20.865157
2543.673750	-3.024700	2.953400	-8.932600	29.136155	-7.079021E-6	20.876462
2544.679615	-3.012200	2.951600	-8.889800	29.155373	-4.471829E-6	20.873542
2545.679986	-3.015100	2.950700	-8.894800	29.226051	-6.715995E-6	20.864634
2546.678897	-3.010100	2.949700	-8.878500	29.283552	-4.999868E-6	20.873742
2547.680550	-3.024000	2.946800	-8.910300	29.280976	-7.178029E-6	20.876362
2548.680820	-3.013600	2.946100	-8.877000	29.180931	-7.112024E-6	20.878433
2549.681088	-3.016700	2.943300	-8.877700	29.189772	-4.900861E-6	20.874066
2550.677920	-3.006500	2.942700	-8.846000	29.244699	-7.211031E-6	20.858296
2551.679327	-2.987800	2.941800	-8.788200	29.230137	-6.881007E-6	20.849312
2552.679104	-3.006900	2.938200	-8.833900	29.233233	-6.649990E-6	20.873293
2553.679951	-3.035900	2.937100	-8.915800	29.229197	-6.815002E-6	20.864485
2554.676379	-2.994900	2.934900	-8.788600	29.158519	-7.343041E-6	20.856799
2555.683197	-2.981300	2.933600	-8.744900	29.176078	-7.607060E-6	20.867854
2556.678383	-3.010600	2.932100	-8.826400	29.142025	-6.881007E-6	20.864834
2557.677814	-3.003900	2.931800	-8.805900	29.199631	-6.748997E-6	20.864087
2558.686179	-2.996400	2.929800	-8.778000	29.186579	-5.824929E-6	20.864685
2559.676955	-3.003400	2.929300	-8.796900	29.190838	-8.564131E-6	20.873719
2560.681798	-2.985300	2.926900	-8.737100	29.194651	-5.725922E-6	20.852906
2561.685665	-2.973100	2.924900	-8.694900	29.173255	-6.649990E-6	20.875440
2562.682751	-2.991500	2.924200	-8.746500	29.195640	-6.220958E-6	20.871445
2563.682997	-2.998800	2.921300	-8.759700	29.258789	-5.758924E-6	20.870599
2564.683658	-3.003600	2.920300	-8.770900	29.195691	-8.498126E-6	20.848739
2565.678537	-3.007300	2.917800	-8.773900	29.206984	-8.696141E-6	20.865807
2566.681091	-2.989200	2.915700	-8.714800	29.206117	-4.702846E-6	20.856400
2567.682672	-3.032000	2.914700	-8.836500	29.138310	-5.164880E-6	20.847815
2568.682781	-3.037000	2.911300	-8.840900	29.144450	-5.164880E-6	20.866803
2569.680665	-3.008700	2.909700	-8.753300	29.201858	-6.550982E-6	20.874392
2570.679718	-2.992700	2.909600	-8.706800	29.286449	-8.102097E-6	20.842051
2571.680035	-3.004300	2.906900	-8.731700	29.264013	-5.527907E-6	20.867803
2572.680642	-2.997200	2.906700	-8.711200	29.261440	-6.418973E-6	20.853356
2573.681872	-3.008700	2.905600	-8.740400	29.229544	-3.844783E-6	20.861515
2574.683565	-3.007200	2.901500	-8.724400	29.279985	-4.801854E-6	20.870622
2575.682065	-2.986100	2.901800	-8.664100	29.297295	-3.679771E-6	20.845869
2576.683393	-2.989300	2.898100	-8.662000	29.334041	-8.135099E-6	20.862513
2577.683273	-2.983400	2.897600	-8.644200	29.265923	-7.508053E-6	20.845072
2578.683951	-2.984000	2.895200	-8.638500	29.259409	-7.904082E-6	20.848939
2579.681281	-3.037000	2.891900	-8.781600	29.273400	-4.966866E-6	20.860193
2580.684081	-3.017300	2.891100	-8.722600	29.269687	-6.418973E-6	20.827529
2581.681406	-3.002400	2.889200	-8.673400	29.233705	-8.861153E-6	20.878510
2582.686291	-3.017200	2.887800	-8.711800	29.108073	-7.574058E-6	20.859546
2583.690989	-3.013800	2.886300	-8.697800	29.138239	-7.706068E-6	20.836838
2584.682407	-2.990000	2.883500	-8.621300	29.133136	-6.649990E-6	20.844024
2585.682083	-3.004300	2.882900	-8.660100	29.224271	-7.640063E-6	20.854780
2586.681900	-2.985200	2.880900	-8.598900	29.266741	-7.706068E-6	20.848741
2587.683800	-2.981600	2.879200	-8.584100	29.284891	-7.739070E-6	20.866558
2588.683502	-2.989200	2.877200	-8.599500	29.311188	-6.881007E-6	20.847543
2589.686206	-2.980800	2.875600	-8.570800	29.350931	-9.191177E-6	20.850139
2590.683669	-3.015900	2.871300	-8.658900	29.313690	-1.011525E-5	20.852434
2591.688455	-2.995500	2.871000	-8.599400	29.365142	-8.036092E-6	20.856401
2592.684587	-3.008000	2.867600	-8.625100	29.383813	-8.498126E-6	20.849140
2593.683081	-2.995500	2.867300	-8.587600	29.345930	-7.904082E-6	20.846047
2594.685758	-2.984800	2.865000	-8.550800	29.385051	-8.234107E-6	20.852760
2595.682887	-2.983800	2.863400	-8.543200	29.392901	-7.871080E-6	20.863042
2596.680224	-3.025800	2.859000	-8.649600	29.317504	-8.993162E-6	20.858175
2597.687339	-2.983700	2.859400	-8.530100	29.269170	-7.904082E-6	20.833647
2598.687470	-2.971700	2.858000	-8.492800	29.283904	-6.484978E-6	20.848495
2599.682298	-2.989300	2.853800	-8.529900	29.313866	-4.702846E-6	20.861146
2600.688263	-3.007000	2.853600	-8.580100	29.381389	-7.442048E-6	20.842904
2601.682510	-2.988100	2.852600	-8.522800	29.414097	-8.531128E-6	20.831775
2602.684895	-3.000000	2.850800	-8.551600	29.441083	-7.937085E-6	20.864190
2603.687029	-3.003400	2.845900	-8.545800	29.464680	-7.343041E-6	20.843405
2604.686352	-3.001800	2.844800	-8.538900	29.537539	-8.201104E-6	20.828181
2605.688991	-2.985700	2.842600	-8.486800	29.601385	-6.848004E-6	20.835643
2606.687160	-3.007900	2.839900	-8.541800	29.572818	-7.541055E-6	20.851889
2607.684918	-2.995800	2.839000	-8.504000	29.524890	-8.729143E-6	20.830129
2608.686239	-2.986200	2.835300	-8.466200	29.440243	-6.088948E-6	20.824464
2609.689536	-3.009900	2.834200	-8.530200	29.386688	-8.333114E-6	20.824064
2610.685342	-3.003000	2.831500	-8.502400	29.323474	-8.597133E-6	20.832424
2611.688651	-2.993600	2.828200	-8.465900	29.294530	-8.861153E-6	20.834073
2612.686820	-2.989800	2.827300	-8.451600	29.285639	-7.178029E-6	20.833174
2613.688332	-3.012400	2.825200	-8.509400	29.266844	-6.352968E-6	20.856431
2614.684850	-3.024900	2.822700	-8.538000	29.242355	-1.074229E-5	20.857830
2615.691154	-3.008900	2.819100	-8.481300	29.234900	-8.564131E-6	20.834671
2616.689120	-2.988500	2.818700	-8.423100	29.304187	-8.696141E-6	20.836220
2617.687919	-2.961400	2.817500	-8.342900	29.339769	-5.923936E-6	20.835097
2618.685933	-2.996800	2.813100	-8.428900	29.345910	-5.626914E-6	20.821372
2619.690124	-3.023900	2.809000	-8.493500	29.461809	-7.409046E-6	20.830080
2620.692253	-2.983400	2.807300	-8.374800	29.511821	-7.475051E-6	20.841611
2621.687967	-2.983600	2.804100	-8.365700	29.511820	-7.541055E-6	20.835446
2622.691660	-2.990800	2.802700	-8.381000	29.449209	-4.867859E-6	20.825914
2623.690894	-3.006500	2.799700	-8.416400	29.458097	-6.815002E-6	20.854787
2624.691584	-2.978100	2.797500	-8.330300	29.528359	-8.465124E-6	20.845005
2625.697155	-2.978800	2.794500	-8.323200	29.533434	-9.191177E-6	20.838267
2626.695366	-2.990100	2.791600	-8.346300	29.538285	-5.923936E-6	20.842683
2627.689922	-3.006800	2.788400	-8.382900	29.536800	-6.154953E-6	20.833125
2628.695975	-2.968000	2.786600	-8.269700	29.553883	-8.729143E-6	20.819527
2629.695933	-2.970100	2.784400	-8.268700	29.606662	-6.748997E-6	20.829584
2630.691387	-2.996000	2.780900	-8.330800	29.675749	-8.630136E-6	20.833325
2631.699118	-3.001700	2.776700	-8.333600	29.701097	-7.937085E-6	20.833277
2632.695297	-2.978900	2.776100	-8.268400	29.667013	-8.696141E-6	20.831630
2633.692231	-3.008700	2.770900	-8.335300	29.583145	-8.432121E-6	20.832903
2634.693410	-2.997600	2.769200	-8.300200	29.644289	-7.607060E-6	20.828635
2635.695063	-2.974900	2.767500	-8.231700	29.679710	-7.244034E-6	20.841112
2636.694359	-2.976900	2.764300	-8.228100	29.687856	-6.748997E-6	20.829884
2637.693162	-3.008200	2.759000	-8.299000	29.731915	-7.904082E-6	20.832579
2638.693787	-2.994300	2.756300	-8.252500	29.690553	-7.706068E-6	20.827388
2639.698269	-2.994900	2.753600	-8.245200	29.580843	-9.719216E-6	20.826789
2640.694231	-3.045500	2.747900	-8.367900	29.540194	-1.037926E-5	20.831331
2641.702071	-2.987400	2.747200	-8.205400	29.527393	-8.960160E-6	20.823170
2642.699240	-3.004000	2.744800	-8.244600	29.592254	-7.277036E-6	20.822645
2643.699680	-3.009300	2.739400	-8.242700	29.614658	-6.121951E-6	20.845704
2644.699149	-2.969900	2.737400	-8.128700	29.607156	-7.673065E-6	20.827711
2645.694264	-2.999800	2.733500	-8.199200	29.676022	-8.861153E-6	20.825540
2646.694839	-3.004000	2.730300	-8.200300	29.681071	-5.362895E-6	20.818777
2647.699104	-2.972200	2.726900	-8.103500	29.717778	-8.597133E-6	20.833025
2648.700069	-3.007600	2.724700	-8.194300	29.641043	-6.550982E-6	20.814458
2649.696794	-3.000300	2.719500	-8.158000	29.673469	-8.630136E-6	20.808742
2650.699097	-2.991800	2.715600	-8.123000	29.698546	-8.102097E-6	20.803678
2651.702367	-2.978400	2.712400	-8.078100	29.731712	-8.201104E-6	20.821469
2652.699730	-3.021800	2.708700	-8.184200	29.716563	-9.587206E-6	20.829904
2653.704460	-3.004000	2.704000	-8.122100	29.768814	-8.531128E-6	20.802927
2654.702299	-3.017100	2.699800	-8.144800	29.789258	-7.970087E-6	20.784659
2655.700271	-3.007300	2.697300	-8.111100	29.734854	-8.300111E-6	20.821318
2656.703800	-2.998600	2.692900	-8.074500	29.657328	-1.087430E-5	20.824238
2657.705498	-2.984700	2.688900	-8.025100	29.668589	-7.607060E-6	20.806192
2658.705016	-3.010200	2.685200	-8.080700	29.733813	-8.861153E-6	20.833070
2659.706951	-2.976500	2.679900	-7.974800	29.733786	-9.554204E-6	20.800327
2660.703525	-2.997500	2.675000	-8.017700	29.707152	-7.838077E-6	20.795760
2661.707078	-2.989700	2.671900	-7.987100	29.661237	-7.508053E-6	20.832446
2662.707175	-2.974400	2.667300	-7.932800	29.703586	-7.277036E-6	20.811130
2663.708685	-3.010200	2.662100	-8.013100	29.764005	-7.343041E-6	20.806613
2664.708150	-2.996200	2.658100	-7.963200	29.887629	-7.838077E-6	20.810356
2665.708275	-2.981800	2.654000	-7.913100	29.900820	-7.508053E-6	20.799949
2666.710101	-2.995900	2.649100	-7.934500	29.856321	-7.574058E-6	20.809606
2667.709725	-2.982400	2.643800	-7.883200	29.877975	-6.715995E-6	20.814372
2668.706390	-2.957400	2.639400	-7.805500	29.922472	-8.234107E-6	20.814196
2669.707397	-3.035900	2.632600	-7.991300	29.965211	-5.428900E-6	20.828846
2670.710831	-2.986300	2.629800	-7.852600	29.960086	-7.574058E-6	20.820359
2671.720383	-3.010600	2.624100	-7.899800	29.938953	-6.451975E-6	20.791936
2672.705979	-2.995600	2.617600	-7.840500	29.849092	-7.013017E-6	20.798997
2673.710588	-3.002300	2.614500	-7.848500	29.832236	-7.178029E-6	20.787217
2674.712468	-2.979200	2.609200	-7.772400	29.776202	-9.257182E-6	20.793780
2675.713335	-3.003100	2.602200	-7.813000	29.800854	-1.004924E-5	20.780230
2676.712114	-2.974300	2.598300	-7.727200	29.908707	-7.871080E-6	20.805057
2677.715204	-3.001600	2.592100	-7.779000	29.975376	-7.574058E-6	20.792156
2678.712102	-2.997500	2.586600	-7.752300	29.972209	-9.686214E-6	20.799394
2679.711884	-2.999100	2.581300	-7.740900	29.998588	-6.715995E-6	20.798970
2680.715118	-3.025100	2.574700	-7.788000	30.081133	-7.574058E-6	20.797345
2681.711450	-3.013200	2.568100	-7.737100	30.075690	-8.597133E-6	20.780001
2682.712369	-3.002200	2.562100	-7.691500	30.069777	-8.036092E-6	20.791581
2683.715509	-2.989500	2.556300	-7.640500	30.082444	-8.531128E-6	20.778278
2684.710369	-2.971700	2.551800	-7.581200	30.022167	-9.587206E-6	20.776281
2685.712568	-3.001400	2.543900	-7.634400	30.074896	-1.031326E-5	20.781571
2686.710696	-3.000200	2.537300	-7.610900	30.144424	-7.277036E-6	20.801910
2687.712778	-2.986500	2.532800	-7.563000	30.126312	-8.597133E-6	20.794547
2688.711167	-2.983500	2.525700	-7.534500	30.053664	-8.432121E-6	20.791926
2689.710275	-2.943600	2.519600	-7.414200	30.033201	-7.244034E-6	20.778376
2690.713619	-3.006800	2.511900	-7.552000	29.963244	-6.980014E-6	20.804104
2691.710822	-2.986800	2.507200	-7.487600	29.969703	-8.399119E-6	20.788806
2692.718923	-3.002400	2.501000	-7.508400	30.044310	-6.649990E-6	20.775854
2693.714906	-3.016900	2.492300	-7.517800	30.097558	-6.187956E-6	20.766494
