LabVIEW Measurement	
Writer_Version	2
Reader_Version	2
Separator	Tab
Decimal_Separator	.
Multi_Headings	No
X_Columns	One
Time_Pref	Absolute
Operator	admin
Description	Clolumns are: time, Current, Voltage, Power, Battery Temp, and Chamber Temp
Date	2024/08/16
Time	13:07:17.8513970375061035156
***End_of_Header***	
	
Channels	6						
Samples	1	1	1	1	1	1	
Date	2024/09/14	2024/09/14	2024/09/14	2024/09/14	2024/09/14	2024/09/14	
Time	08:07:34.362285614013671875	08:07:34.3692350387573242187	08:07:34.3786802291870117187	08:07:34.3438429832458496094	08:07:34.3438429832458496094	08:07:34.3438429832458496094	
X_Dimension	Time	Time	Time	Time	Time	Time	
X0	0.0000000000000000E+0	0.0000000000000000E+0	0.0000000000000000E+0	0.0000000000000000E+0	0.0000000000000000E+0	0.0000000000000000E+0	
Delta_X	1.000000	1.000000	1.000000	1.000000	1.000000	1.000000	
***End_of_Header***							
X_Value	Untitled	Untitled 1	Untitled 2	Untitled 3	Untitled 4	Untitled 5	Comment
0.000000	0.001375	4.089700	0.005818	20.715543	0.000466	20.654371
0.999817	-3.000000	3.918000	-11.753000	20.724756	0.000464	20.682079
1.997642	-2.996400	3.911400	-11.718000	20.720783	0.000463	20.686642
2.999949	-3.009800	3.907000	-11.758000	20.734584	0.000462	20.680526
4.000401	-2.998500	3.904900	-11.708000	20.742652	0.000460	20.692863
4.998979	-2.993700	3.901600	-11.680000	20.774766	0.000461	20.669971
6.001018	-3.007100	3.899900	-11.727000	20.772648	0.000461	20.686347
7.004802	-2.972700	3.896200	-11.581000	20.753281	0.000462	20.679308
8.000431	-3.006900	3.892900	-11.704000	20.748522	0.000459	20.693991
9.004329	-3.005900	3.892400	-11.700000	20.769515	0.000460	20.684163
10.006865	-3.002000	3.891100	-11.681000	20.791744	0.000458	20.704496
11.003556	-3.007500	3.889500	-11.696000	20.764766	0.000460	20.693165
12.005653	-3.005300	3.887500	-11.683000	20.795071	0.000456	20.686010
13.005939	-2.991400	3.884900	-11.621000	20.779947	0.000457	20.706924
14.003503	-2.988700	3.886100	-11.613000	20.803466	0.000455	20.692035
15.006926	-2.986500	3.884400	-11.600000	20.808379	0.000453	20.684620
16.007336	-2.988500	3.884200	-11.607000	20.826952	0.000454	20.687546
17.007553	-3.000200	3.882200	-11.646000	20.832592	0.000454	20.678487
18.007998	-3.005500	3.880500	-11.662000	20.823412	0.000452	20.668357
19.009335	-2.995800	3.881700	-11.628000	20.854361	0.000453	20.691249
20.009337	-3.016500	3.878700	-11.699000	20.854189	0.000453	20.701983
21.006227	-3.015300	3.877900	-11.692000	20.848900	0.000455	20.690054
22.009564	-2.962000	3.879300	-11.490000	20.867430	0.000452	20.693887
23.007636	-3.026700	3.877100	-11.734000	20.879005	0.000452	20.686497
24.008082	-3.022300	3.875100	-11.711000	20.895150	0.000451	20.687470
25.009610	-2.984500	3.876400	-11.569000	20.882798	0.000450	20.692661
26.008268	-2.992900	3.875500	-11.598000	20.907305	0.000448	20.694885
27.009373	-2.996700	3.875200	-11.613000	20.890989	0.000451	20.675246
28.008140	-3.014100	3.874900	-11.678000	20.933469	0.000450	20.717260
29.008871	-3.004600	3.873700	-11.638000	20.921894	0.000450	20.696199
30.009262	-3.004700	3.872900	-11.636000	20.930909	0.000451	20.675342
31.008996	-2.989700	3.874900	-11.583000	20.943359	0.000449	20.689691
32.011052	-2.999300	3.872500	-11.614000	20.977075	0.000449	20.701602
33.009794	-3.006600	3.872100	-11.641000	20.965852	0.000446	20.684212
34.010690	-3.012100	3.870700	-11.658000	20.980107	0.000448	20.680450
35.012107	-3.021600	3.870000	-11.693000	20.980058	0.000449	20.705534
36.009646	-3.021800	3.870600	-11.695000	20.970478	0.000448	20.706858
37.011191	-3.030800	3.869600	-11.727000	20.993985	0.000447	20.696703
38.011837	-3.005300	3.870200	-11.630000	21.003744	0.000449	20.684178
39.012096	-2.985300	3.870300	-11.552000	21.027030	0.000445	20.680441
40.011095	-2.977800	3.870300	-11.523000	21.026440	0.000448	20.688861
41.016100	-2.986400	3.869300	-11.554000	21.019902	0.000446	20.671414
42.012214	-2.997200	3.867600	-11.591000	21.047928	0.000446	20.696603
43.014185	-2.992800	3.869300	-11.579000	21.042664	0.000447	20.711728
44.015521	-2.996400	3.868000	-11.588000	21.062810	0.000447	20.685883
45.013644	-3.024300	3.867100	-11.694000	21.069896	0.000446	20.705300
46.015826	-3.010200	3.866600	-11.638000	21.089960	0.000445	20.711146
47.015824	-3.007800	3.866000	-11.627000	21.081158	0.000447	20.696650
48.015825	-3.011100	3.867500	-11.645000	21.102113	0.000446	20.685367
49.014823	-2.991900	3.867900	-11.572000	21.110653	0.000446	20.694384
50.021243	-2.978600	3.868000	-11.520000	21.095558	0.000443	20.685448
51.016226	-3.016700	3.866700	-11.663000	21.115008	0.000446	20.702534
52.017226	-2.974000	3.865700	-11.496000	21.118449	0.000446	20.716409
53.019226	-3.014400	3.864200	-11.647000	21.132898	0.000446	20.698618
54.019227	-2.991900	3.866300	-11.567000	21.151996	0.000446	20.680262
55.017226	-3.019300	3.864300	-11.666000	21.175100	0.000446	20.691520
56.018227	-3.007000	3.863300	-11.616000	21.181343	0.000447	20.704878
57.018229	-3.006900	3.864900	-11.620000	21.169043	0.000444	20.711067
58.018227	-2.999000	3.863700	-11.586000	21.181350	0.000445	20.707257
59.017228	-3.003100	3.864300	-11.603000	21.179454	0.000444	20.712947
60.017228	-2.965300	3.864200	-11.458000	21.201666	0.000443	20.706716
61.017226	-3.004300	3.863300	-11.606000	21.196656	0.000444	20.739639
62.018226	-2.994900	3.863600	-11.571000	21.231681	0.000444	20.695965
63.020231	-3.010700	3.863300	-11.629000	21.240343	0.000445	20.696569
64.020226	-3.033500	3.862300	-11.716000	21.216505	0.000446	20.691213
65.019226	-3.008000	3.863400	-11.619000	21.238806	0.000444	20.701196
66.020226	-3.011500	3.863000	-11.633000	21.231606	0.000444	20.695889
67.020230	-3.020300	3.860800	-11.660000	21.260248	0.000445	20.713638
68.019227	-2.984400	3.863900	-11.531000	21.266613	0.000442	20.716213
69.020232	-2.976200	3.862000	-11.493000	21.279909	0.000445	20.709599
70.019229	-2.987900	3.863500	-11.542000	21.296954	0.000445	20.709582
71.020229	-2.983400	3.861500	-11.519000	21.307381	0.000444	20.696305
72.022230	-3.001700	3.861700	-11.590000	21.317790	0.000445	20.698659
73.022227	-3.011100	3.861700	-11.627000	21.307494	0.000445	20.705428
74.023231	-3.007600	3.860800	-11.611000	21.320649	0.000443	20.700570
75.024226	-2.982200	3.860900	-11.513000	21.337188	0.000445	20.713324
76.025232	-2.997100	3.860400	-11.569000	21.353751	0.000445	20.699074
77.025227	-3.023500	3.860000	-11.669000	21.350841	0.000445	20.711811
78.026227	-3.006900	3.860100	-11.606000	21.360270	0.000445	20.701330
79.026227	-3.021900	3.858300	-11.658000	21.372175	0.000446	20.711819
80.025231	-2.996300	3.860600	-11.565000	21.360499	0.000447	20.696342
81.026225	-3.006600	3.859500	-11.602000	21.405324	0.000444	20.714165
82.025226	-2.998400	3.860600	-11.575000	21.411092	0.000444	20.720411
83.026227	-3.001700	3.859400	-11.584000	21.404107	0.000444	20.693979
84.026228	-3.029000	3.858600	-11.686000	21.416615	0.000447	20.713608
85.025228	-3.021400	3.858800	-11.658000	21.425440	0.000447	20.713428
86.032226	-3.013900	3.859800	-11.632000	21.449208	0.000446	20.714925
87.026229	-3.006300	3.859100	-11.600000	21.445555	0.000444	20.722649
88.027230	-2.965700	3.859700	-11.445000	21.444852	0.000445	20.702505
89.026729	-2.991800	3.858000	-11.542000	21.460923	0.000443	20.725224
90.027694	-2.968300	3.858400	-11.451000	21.475613	0.000445	20.715741
91.027694	-2.997300	3.858300	-11.564000	21.477558	0.000446	20.717212
92.027697	-2.968800	3.858200	-11.453000	21.493571	0.000447	20.727546
93.027697	-2.992800	3.858600	-11.547000	21.498612	0.000445	20.726900
94.026661	-2.986800	3.858200	-11.523000	21.507068	0.000444	20.709281
95.026588	-2.990500	3.857200	-11.534000	21.518791	0.000445	20.732868
96.028106	-2.991100	3.857700	-11.538000	21.528276	0.000448	20.719598
97.027282	-2.992600	3.856900	-11.542000	21.538325	0.000447	20.714481
98.029279	-3.001900	3.857100	-11.578000	21.553594	0.000446	20.715535
99.028362	-3.019500	3.856600	-11.644000	21.556756	0.000448	20.707793
100.029357	-2.994000	3.857100	-11.547000	21.585014	0.000447	20.740339
101.033386	-2.991500	3.856900	-11.537000	21.565015	0.000448	20.730284
102.031593	-3.018500	3.855700	-11.637000	21.569680	0.000447	20.730684
103.032808	-2.998200	3.855700	-11.560000	21.585005	0.000447	20.716621
104.033874	-2.999700	3.855900	-11.566000	21.602586	0.000449	20.727102
105.034165	-2.994100	3.856100	-11.545000	21.603133	0.000445	20.735711
106.034163	-2.983000	3.855200	-11.499000	21.602920	0.000450	20.729333
107.035666	-2.982700	3.855300	-11.498000	21.611898	0.000448	20.719825
108.038420	-2.981300	3.856100	-11.495000	21.638382	0.000448	20.725940
109.035047	-2.988000	3.854900	-11.517000	21.648365	0.000448	20.724550
110.034280	-2.966100	3.855300	-11.435000	21.617844	0.000450	20.722931
111.035208	-2.983800	3.854700	-11.500000	21.652415	0.000448	20.726233
112.034351	-2.986900	3.855300	-11.515000	21.668704	0.000450	20.742535
113.034758	-3.012500	3.853800	-11.607000	21.655568	0.000450	20.735078
114.036685	-3.000900	3.852600	-11.561000	21.671432	0.000449	20.726298
115.037282	-2.997300	3.854500	-11.551000	21.684428	0.000449	20.751633
116.036060	-2.968100	3.854900	-11.441000	21.694753	0.000450	20.729248
117.038532	-2.986000	3.853700	-11.507000	21.681870	0.000449	20.715407
118.036143	-2.998200	3.852600	-11.550000	21.726128	0.000452	20.738364
119.038599	-2.994100	3.853400	-11.537000	21.704472	0.000452	20.739924
120.036255	-2.994100	3.852900	-11.535000	21.707536	0.000452	20.733981
121.039282	-2.997600	3.852300	-11.547000	21.729011	0.000449	20.733188
122.038168	-2.970100	3.854200	-11.446000	21.734777	0.000452	20.744649
123.037889	-3.016900	3.852700	-11.622000	21.760638	0.000450	20.733072
124.037159	-3.018300	3.852000	-11.626000	21.778223	0.000451	20.741190
125.041535	-2.980800	3.852500	-11.483000	21.789569	0.000451	20.726466
126.039185	-2.991200	3.852700	-11.523000	21.787649	0.000451	20.763901
127.039594	-2.977100	3.851600	-11.466000	21.792272	0.000453	20.746716
128.043442	-2.999800	3.851800	-11.553000	21.808403	0.000451	20.736309
129.041815	-2.995700	3.850700	-11.534000	21.793080	0.000454	20.729032
130.039860	-2.975500	3.851400	-11.459000	21.822557	0.000455	20.729138
131.042190	-2.967300	3.852600	-11.431000	21.814634	0.000452	20.742071
132.042949	-2.982300	3.851800	-11.486000	21.821715	0.000452	20.742520
133.044036	-3.009300	3.849900	-11.584000	21.830046	0.000453	20.735211
134.042606	-2.987800	3.849900	-11.501000	21.857628	0.000455	20.740533
135.047199	-2.999300	3.850600	-11.548000	21.861074	0.000453	20.735922
136.044811	-2.990100	3.849800	-11.511000	21.871226	0.000453	20.749403
137.046381	-2.990600	3.850200	-11.513000	21.896986	0.000453	20.730615
138.046167	-2.994800	3.849800	-11.528000	21.886923	0.000453	20.754683
139.044294	-3.013900	3.848800	-11.598000	21.895972	0.000453	20.745723
140.052438	-3.002100	3.850300	-11.557000	21.892991	0.000455	20.737048
141.049618	-3.009900	3.849000	-11.584000	21.907104	0.000454	20.735053
142.046058	-3.009300	3.849700	-11.583000	21.901729	0.000455	20.735363
143.044478	-3.012800	3.849800	-11.598000	21.922302	0.000454	20.734145
144.043882	-3.005800	3.849900	-11.572000	21.921232	0.000456	20.738764
145.047431	-3.014600	3.848400	-11.600000	21.951555	0.000455	20.756316
146.045194	-3.002900	3.847300	-11.552000	21.934920	0.000454	20.741560
147.047682	-2.988000	3.847400	-11.495000	21.961755	0.000456	20.739973
148.047090	-3.016000	3.848600	-11.607000	21.966615	0.000456	20.761908
149.046927	-3.011200	3.847100	-11.584000	21.971261	0.000459	20.750911
150.048404	-2.988500	3.848700	-11.500000	21.981436	0.000458	20.753511
151.046602	-2.985600	3.849100	-11.490000	21.973890	0.000459	20.760656
152.046727	-2.984100	3.848000	-11.482000	21.984735	0.000460	20.762029
153.049799	-2.996800	3.847700	-11.530000	21.993514	0.000459	20.758015
154.047948	-2.995500	3.847400	-11.523000	22.010794	0.000459	20.759192
155.049533	-2.999600	3.846800	-11.538000	22.003167	0.000459	20.767203
156.050835	-3.012900	3.846900	-11.589000	22.011660	0.000460	20.762430
157.050357	-2.991400	3.846800	-11.506000	22.023232	0.000459	20.755047
158.049411	-2.996200	3.847100	-11.525000	22.034722	0.000463	20.748531
159.050418	-2.995800	3.847300	-11.525000	22.049290	0.000460	20.748890
160.047353	-2.982700	3.846100	-11.471000	22.054451	0.000461	20.779662
161.050426	-2.978700	3.847300	-11.459000	22.058942	0.000461	20.763769
162.053845	-2.978600	3.845400	-11.453000	22.040143	0.000460	20.781935
163.050504	-3.013400	3.843900	-11.583000	22.059840	0.000463	20.772729
164.050437	-3.000000	3.846100	-11.538000	22.071232	0.000460	20.760900
165.053783	-3.019600	3.844900	-11.609000	22.094741	0.000462	20.764995
166.051467	-2.996000	3.845800	-11.521000	22.111897	0.000464	20.750876
167.053260	-2.999400	3.844200	-11.529000	22.118381	0.000463	20.771118
168.053861	-3.009100	3.843500	-11.564000	22.121900	0.000462	20.760416
169.053745	-3.023600	3.845300	-11.625000	22.145033	0.000463	20.752282
170.053660	-3.003500	3.845000	-11.547000	22.146152	0.000465	20.773317
171.060015	-3.001600	3.844000	-11.536000	22.152063	0.000463	20.753631
172.053569	-2.983600	3.844500	-11.469000	22.151793	0.000466	20.769008
173.056261	-3.013000	3.843300	-11.579000	22.164262	0.000462	20.757783
174.059589	-3.014000	3.843900	-11.584000	22.164980	0.000464	20.766564
175.053284	-3.001500	3.843900	-11.537000	22.175905	0.000466	20.747629
176.056334	-2.990600	3.843000	-11.492000	22.177562	0.000465	20.763987
177.059683	-3.003500	3.843000	-11.541000	22.167928	0.000466	20.783265
178.053561	-3.009700	3.843000	-11.565000	22.180771	0.000465	20.768149
179.059636	-3.027200	3.841900	-11.629000	22.195877	0.000467	20.766203
180.055034	-3.022700	3.842300	-11.613000	22.215791	0.000466	20.779978
181.056405	-2.984000	3.843600	-11.468000	22.237077	0.000468	20.762884
182.056265	-3.010400	3.840700	-11.562000	22.247618	0.000468	20.772016
183.057224	-2.976200	3.843200	-11.437000	22.279697	0.000470	20.773316
184.056847	-3.002200	3.843500	-11.538000	22.289788	0.000469	20.781998
185.054631	-3.011800	3.842900	-11.573000	22.285853	0.000469	20.794653
186.057796	-3.008100	3.842200	-11.556000	22.303766	0.000467	20.786511
187.054172	-3.014900	3.841100	-11.580000	22.315653	0.000471	20.789405
188.056472	-2.995000	3.840700	-11.502000	22.321490	0.000469	20.799043
189.057710	-2.993200	3.841600	-11.497000	22.327434	0.000469	20.787451
190.055166	-2.976700	3.840000	-11.430000	22.319711	0.000472	20.794416
191.058745	-3.000800	3.841700	-11.527000	22.321654	0.000472	20.787353
192.057740	-2.996300	3.840600	-11.507000	22.339469	0.000471	20.797605
193.056667	-2.982000	3.841100	-11.453000	22.359283	0.000471	20.790419
194.056752	-2.995800	3.840700	-11.505000	22.383644	0.000473	20.793951
195.058452	-2.971200	3.840000	-11.409000	22.352164	0.000471	20.786610
196.057477	-2.987100	3.838600	-11.465000	22.343445	0.000472	20.798742
197.057850	-3.007600	3.840000	-11.548000	22.369986	0.000473	20.792603
198.060575	-2.995700	3.839300	-11.501000	22.366402	0.000473	20.784746
199.056925	-2.991800	3.839700	-11.486000	22.366770	0.000473	20.803606
200.058061	-2.988700	3.838600	-11.471000	22.384036	0.000473	20.811888
201.058661	-2.979000	3.838700	-11.434000	22.431719	0.000473	20.792308
202.058259	-3.004900	3.838400	-11.533000	22.432430	0.000474	20.794442
203.061754	-3.018600	3.837200	-11.582000	22.440504	0.000474	20.799683
204.060615	-2.999000	3.839300	-11.513000	22.449475	0.000475	20.799184
205.062326	-3.010000	3.839100	-11.554000	22.470438	0.000475	20.798840
206.060089	-3.014900	3.836800	-11.567000	22.452880	0.000476	20.791688
207.063359	-2.995000	3.837700	-11.493000	22.464349	0.000477	20.801277
208.060168	-2.999200	3.837900	-11.510000	22.479647	0.000475	20.777242
209.061046	-3.008200	3.837300	-11.543000	22.484977	0.000474	20.800599
210.064689	-2.990300	3.838400	-11.476000	22.481940	0.000476	20.810359
211.061568	-3.002300	3.837300	-11.520000	22.465965	0.000479	20.803844
212.059993	-2.993100	3.837400	-11.484000	22.465892	0.000476	20.803296
213.064662	-2.993600	3.836900	-11.485000	22.485336	0.000478	20.817079
214.061700	-2.992100	3.837200	-11.480000	22.489116	0.000478	20.814700
215.060924	-3.010800	3.834800	-11.544000	22.521065	0.000477	20.810188
216.063043	-2.993500	3.834400	-11.477000	22.508608	0.000480	20.805773
217.061586	-2.999000	3.836600	-11.505000	22.504519	0.000479	20.821592
218.062233	-2.995200	3.834800	-11.485000	22.499343	0.000478	20.823520
219.063298	-2.971400	3.835500	-11.396000	22.494233	0.000477	20.811765
220.062762	-2.983500	3.836500	-11.445000	22.496657	0.000479	20.804235
221.062898	-2.990300	3.835100	-11.467000	22.504780	0.000479	20.820904
222.066147	-2.968300	3.836100	-11.386000	22.533944	0.000481	20.809336
223.063728	-3.001300	3.835300	-11.510000	22.544507	0.000482	20.820863
224.065500	-3.006000	3.833900	-11.524000	22.547127	0.000481	20.815426
225.068424	-3.001700	3.834400	-11.508000	22.548800	0.000481	20.821369
226.064918	-2.981300	3.835300	-11.434000	22.567965	0.000481	20.842934
227.067818	-2.987800	3.834600	-11.457000	22.576789	0.000482	20.824271
228.070929	-2.993200	3.832600	-11.471000	22.579637	0.000479	20.837080
229.065965	-2.996800	3.833300	-11.487000	22.620203	0.000482	20.817493
230.068597	-2.993400	3.833400	-11.474000	22.625133	0.000482	20.817216
231.068119	-2.961200	3.833300	-11.351000	22.619656	0.000482	20.834015
232.072314	-3.008300	3.832000	-11.526000	22.640037	0.000485	20.805591
233.069119	-2.994100	3.833000	-11.476000	22.634690	0.000483	20.840538
234.068281	-2.999600	3.831000	-11.490000	22.666105	0.000482	20.814158
235.066274	-3.020800	3.832600	-11.577000	22.682852	0.000484	20.834725
236.069448	-3.008600	3.831500	-11.526000	22.700097	0.000485	20.813593
237.069050	-2.996000	3.832000	-11.479000	22.697437	0.000486	20.803341
238.068171	-2.997900	3.832700	-11.488000	22.709091	0.000487	20.825447
239.080026	-3.018800	3.831000	-11.564000	22.700497	0.000487	20.823951
240.073982	-2.991900	3.831900	-11.464000	22.673376	0.000488	20.811957
241.067449	-3.006500	3.831000	-11.516000	22.706463	0.000488	20.784407
242.069308	-2.998800	3.830800	-11.487000	22.698791	0.000488	20.799008
243.073952	-3.002800	3.831600	-11.505000	22.719643	0.000488	20.808990
244.069154	-3.010700	3.830100	-11.530000	22.741123	0.000489	20.809169
245.069004	-2.991600	3.830800	-11.460000	22.719864	0.000487	20.799253
246.073332	-3.019600	3.829700	-11.562000	22.746877	0.000486	20.797389
247.070202	-2.988000	3.829700	-11.442000	22.713392	0.000489	20.819323
248.073181	-2.992500	3.829000	-11.457000	22.756834	0.000490	20.800251
249.077050	-3.013300	3.828700	-11.536000	22.773556	0.000489	20.793294
250.070681	-2.995100	3.829300	-11.468000	22.803775	0.000489	20.786582
251.071562	-3.003800	3.828900	-11.500000	22.790971	0.000491	20.795566
252.078577	-3.008200	3.828400	-11.516000	22.801009	0.000490	20.785233
253.073954	-3.006700	3.828500	-11.509000	22.811674	0.000489	20.796392
254.077902	-2.987400	3.829400	-11.439000	22.796406	0.000490	20.801959
255.078341	-2.982700	3.829600	-11.422000	22.825099	0.000490	20.795141
256.077380	-2.987600	3.827900	-11.435000	22.813013	0.000490	20.778292
257.078136	-3.000000	3.827100	-11.481000	22.802877	0.000491	20.806545
258.083442	-3.011900	3.827000	-11.526000	22.799017	0.000491	20.797937
259.079034	-3.010500	3.826500	-11.519000	22.800086	0.000491	20.787154
260.082794	-3.017600	3.825900	-11.543000	22.799417	0.000491	20.782690
261.085234	-2.999300	3.826300	-11.475000	22.821957	0.000493	20.809063
262.080999	-2.991900	3.829000	-11.455000	22.852330	0.000492	20.800136
263.079227	-3.015100	3.826500	-11.536000	22.851040	0.000494	20.790309
264.080554	-2.940100	3.826300	-11.249000	22.853978	0.000493	20.803210
265.079566	-2.999100	3.826300	-11.475000	22.832826	0.000493	20.797667
266.079041	-3.012600	3.825400	-11.524000	22.847523	0.000494	20.767345
267.079949	-2.986200	3.826700	-11.426000	22.826257	0.000493	20.777809
268.080235	-2.971800	3.825900	-11.369000	22.829146	0.000495	20.772168
269.078664	-2.998800	3.823700	-11.466000	22.863052	0.000497	20.795704
270.080575	-3.031000	3.824100	-11.590000	22.861281	0.000495	20.796776
271.080619	-3.017000	3.823500	-11.535000	22.868658	0.000496	20.773345
272.080158	-3.004000	3.824700	-11.488000	22.863803	0.000497	20.775593
273.080757	-3.021200	3.825300	-11.556000	22.843557	0.000497	20.774751
274.081585	-2.993400	3.824800	-11.448000	22.846715	0.000495	20.778389
275.079426	-3.009400	3.824200	-11.508000	22.892722	0.000498	20.789393
276.081851	-3.002300	3.823300	-11.478000	22.901992	0.000499	20.763118
277.079900	-3.034600	3.821100	-11.595000	22.941453	0.000498	20.788902
278.082386	-2.985100	3.823600	-11.413000	22.943966	0.000498	20.751591
279.080550	-2.999400	3.823100	-11.466000	22.933105	0.000497	20.777220
280.083699	-2.971900	3.822400	-11.359000	22.949930	0.000498	20.792180
281.080982	-2.997000	3.821300	-11.451000	22.948258	0.000500	20.775805
282.080983	-2.992000	3.822700	-11.436000	22.947515	0.000497	20.778855
283.083267	-3.004400	3.822100	-11.482000	22.961313	0.000499	20.774187
284.080863	-2.998100	3.821900	-11.457000	22.986501	0.000498	20.773818
285.083949	-3.020400	3.821400	-11.541000	23.006450	0.000499	20.756348
286.083714	-3.010500	3.820700	-11.501000	23.033008	0.000499	20.749292
287.084117	-3.027900	3.820400	-11.567000	23.042725	0.000500	20.771831
288.083397	-3.007900	3.821100	-11.493000	23.051194	0.000500	20.765618
289.086284	-3.000900	3.820800	-11.465000	23.051594	0.000504	20.765544
290.084780	-2.985000	3.821000	-11.405000	23.061221	0.000501	20.774716
291.085387	-2.994500	3.820400	-11.438000	23.054556	0.000501	20.773254
292.091412	-3.030800	3.819500	-11.575000	23.054792	0.000501	20.758791
293.087848	-2.998200	3.819900	-11.452000	23.028389	0.000500	20.757941
294.088281	-3.015200	3.818700	-11.513000	23.021960	0.000502	20.768569
295.091596	-2.993700	3.820400	-11.436000	23.021617	0.000502	20.762061
296.089454	-2.995200	3.820200	-11.441000	23.050859	0.000503	20.759118
297.088388	-3.015000	3.818100	-11.510000	23.053902	0.000503	20.769280
298.092767	-2.999800	3.819000	-11.456000	23.055101	0.000504	20.764791
299.090162	-3.005900	3.818000	-11.476000	23.059328	0.000504	20.736783
300.090719	-2.989200	3.819100	-11.415000	23.074128	0.000506	20.767734
301.094053	-3.003200	3.817700	-11.465000	23.048044	0.000505	20.778109
302.089745	-3.007200	3.816900	-11.478000	23.020980	0.000504	20.742456
303.092546	-3.008600	3.817500	-11.484000	23.034598	0.000507	20.776490
304.093048	-3.019800	3.815100	-11.520000	23.053355	0.000505	20.772999
305.091801	-2.994700	3.817800	-11.433000	23.069624	0.000507	20.760376
306.093125	-3.003400	3.815800	-11.460000	23.082221	0.000506	20.765413
307.095057	-3.018000	3.816400	-11.517000	23.101598	0.000506	20.754482
308.089951	-3.035400	3.815100	-11.579000	23.131507	0.000506	20.777815
309.091941	-2.990000	3.816300	-11.410000	23.128847	0.000507	20.762347
310.094161	-3.001100	3.816000	-11.451000	23.160035	0.000509	20.763254
311.091475	-2.984300	3.815800	-11.387000	23.168789	0.000507	20.754956
312.091636	-2.992700	3.815900	-11.419000	23.160476	0.000509	20.743780
313.094158	-3.000500	3.814100	-11.443000	23.161243	0.000506	20.759249
314.092421	-3.002600	3.815100	-11.454000	23.175764	0.000510	20.752463
315.092641	-3.018600	3.814800	-11.515000	23.177086	0.000509	20.746675
316.096082	-2.984000	3.813500	-11.378000	23.173406	0.000507	20.732081
317.092507	-2.987400	3.814100	-11.393000	23.162793	0.000509	20.740886
318.096440	-2.993900	3.814800	-11.420000	23.194323	0.000510	20.750672
319.097641	-2.992300	3.813900	-11.411000	23.205728	0.000509	20.770162
320.094848	-2.983700	3.814500	-11.380000	23.197733	0.000509	20.749822
321.095427	-2.994000	3.812900	-11.415000	23.190244	0.000509	20.738523
322.101208	-2.989800	3.814000	-11.402000	23.184664	0.000508	20.769443
323.093746	-3.009700	3.812700	-11.474000	23.175650	0.000510	20.739545
324.094434	-2.999300	3.813200	-11.436000	23.190815	0.000510	20.753795
325.097401	-3.014500	3.812700	-11.492000	23.196689	0.000513	20.729808
326.094067	-2.995900	3.812200	-11.420000	23.189803	0.000511	20.753729
327.094636	-3.023500	3.812000	-11.524000	23.197871	0.000509	20.756599
328.098124	-2.994500	3.812500	-11.415000	23.215566	0.000510	20.752994
329.099768	-3.014700	3.810800	-11.487000	23.233977	0.000510	20.734934
330.099160	-2.995000	3.810900	-11.413000	23.223193	0.000512	20.767276
331.099205	-3.006900	3.809100	-11.453000	23.250121	0.000513	20.741155
332.096626	-2.987200	3.811700	-11.386000	23.269095	0.000513	20.726505
333.096627	-2.995200	3.811200	-11.414000	23.268541	0.000512	20.751081
334.102475	-3.011500	3.809600	-11.472000	23.277741	0.000511	20.743232
335.098490	-2.995300	3.810400	-11.412000	23.262251	0.000515	20.743828
336.098266	-3.013000	3.809900	-11.478000	23.265171	0.000514	20.743436
337.101912	-3.013000	3.809300	-11.477000	23.266166	0.000513	20.739691
338.098987	-3.003100	3.809600	-11.440000	23.269111	0.000516	20.742168
339.099337	-3.018400	3.809400	-11.497000	23.256312	0.000514	20.736454
340.099686	-3.003700	3.809000	-11.440000	23.244329	0.000514	20.745308
341.099154	-3.001600	3.810200	-11.435000	23.272732	0.000515	20.754333
342.098711	-2.983200	3.808100	-11.359000	23.284111	0.000515	20.740606
343.101830	-3.013200	3.808200	-11.475000	23.307261	0.000515	20.745790
344.100774	-2.994400	3.808500	-11.403000	23.306421	0.000514	20.734990
345.100863	-2.994300	3.806800	-11.396000	23.348812	0.000517	20.728163
346.103117	-2.995400	3.807200	-11.403000	23.372458	0.000517	20.718671
347.102189	-3.008400	3.806100	-11.449000	23.391960	0.000517	20.729684
348.102261	-3.012200	3.806400	-11.463000	23.408795	0.000515	20.754144
349.103796	-2.992700	3.808900	-11.398000	23.408942	0.000514	20.738644
350.103827	-3.005000	3.806700	-11.438000	23.378771	0.000518	20.744914
351.103609	-3.011300	3.806300	-11.461000	23.375092	0.000515	20.736485
352.103686	-3.016000	3.805300	-11.476000	23.374685	0.000516	20.732283
353.102908	-2.995100	3.806200	-11.399000	23.387196	0.000518	20.748143
354.103612	-2.988900	3.806000	-11.375000	23.382074	0.000518	20.734948
355.104783	-2.984300	3.806800	-11.359000	23.427512	0.000518	20.749197
356.105396	-2.989700	3.805700	-11.378000	23.413296	0.000516	20.749173
357.106515	-2.977000	3.805100	-11.327000	23.409895	0.000516	20.753350
358.103975	-3.012400	3.802500	-11.454000	23.416346	0.000517	20.734685
359.104169	-2.986000	3.806200	-11.365000	23.437805	0.000518	20.723003
360.105391	-2.991900	3.804900	-11.383000	23.435774	0.000518	20.738037
361.107742	-3.010400	3.803600	-11.449000	23.460821	0.000519	20.730426
362.104831	-3.019300	3.803500	-11.483000	23.453831	0.000520	20.741912
363.105832	-3.001200	3.803100	-11.413000	23.476936	0.000518	20.731881
364.108073	-3.014900	3.802200	-11.462000	23.456628	0.000518	20.734758
365.108059	-2.993800	3.804400	-11.389000	23.472295	0.000519	20.740979
366.108470	-3.003900	3.801100	-11.417000	23.486413	0.000520	20.728577
367.107954	-3.008900	3.800600	-11.435000	23.487008	0.000520	20.721587
368.107138	-3.011000	3.800000	-11.441000	23.511670	0.000519	20.737300
369.108754	-2.968800	3.803000	-11.289000	23.521604	0.000519	20.739671
370.108486	-2.982200	3.802300	-11.338000	23.515682	0.000520	20.731838
371.108283	-2.993400	3.801900	-11.379000	23.497088	0.000521	20.721733
372.107794	-2.994500	3.801000	-11.381000	23.516857	0.000520	20.727800
373.110826	-3.011300	3.801600	-11.446000	23.535557	0.000521	20.701498
374.111588	-3.028500	3.800500	-11.509000	23.546640	0.000520	20.718773
375.112634	-3.010900	3.800800	-11.443000	23.559541	0.000521	20.709895
376.111492	-3.017200	3.800000	-11.464000	23.542260	0.000519	20.734773
377.112056	-3.008600	3.798900	-11.429000	23.540303	0.000520	20.737552
378.110808	-3.017000	3.799700	-11.463000	23.595121	0.000523	20.726123
379.115045	-2.978200	3.799400	-11.315000	23.571350	0.000523	20.723155
380.112329	-2.995300	3.800000	-11.381000	23.584300	0.000522	20.707212
381.112030	-2.979500	3.799600	-11.320000	23.601629	0.000523	20.701825
382.113430	-2.987200	3.799200	-11.348000	23.563936	0.000522	20.722362
383.115212	-3.000200	3.799400	-11.397000	23.573225	0.000522	20.726932
384.110281	-2.983600	3.798500	-11.332000	23.584251	0.000523	20.722811
385.114370	-2.994800	3.798300	-11.375000	23.625930	0.000525	20.737568
386.113106	-3.018500	3.798800	-11.466000	23.606489	0.000524	20.720448
387.118346	-3.005200	3.796100	-11.407000	23.607582	0.000526	20.707793
388.116618	-3.002200	3.798500	-11.403000	23.590260	0.000524	20.713188
389.115792	-3.012600	3.796600	-11.437000	23.598024	0.000523	20.710540
390.115182	-3.008200	3.796800	-11.420000	23.615981	0.000524	20.724749
391.113530	-3.006600	3.797500	-11.417000	23.591851	0.000526	20.713834
392.118805	-3.005800	3.796900	-11.412000	23.582024	0.000524	20.698766
393.118299	-2.975900	3.795900	-11.296000	23.591386	0.000524	20.710997
394.119739	-2.996700	3.796600	-11.376000	23.598326	0.000526	20.719852
395.119643	-2.999100	3.795100	-11.381000	23.586533	0.000526	20.707081
396.119501	-3.003100	3.794300	-11.393000	23.640029	0.000526	20.727994
397.120626	-3.006600	3.795400	-11.410000	23.649586	0.000525	20.707702
398.120273	-3.003200	3.794800	-11.395000	23.683639	0.000526	20.715289
399.120114	-3.028400	3.793000	-11.486000	23.680426	0.000525	20.711594
400.120779	-3.038700	3.792700	-11.525000	23.659494	0.000528	20.703884
401.122309	-2.988600	3.793200	-11.336000	23.648657	0.000524	20.702503
402.121022	-3.012700	3.793100	-11.426000	23.640273	0.000527	20.685563
403.124942	-2.955900	3.794200	-11.213000	23.657756	0.000526	20.719214
404.122538	-3.005300	3.793100	-11.399000	23.639254	0.000527	20.680747
405.123380	-3.008700	3.792700	-11.410000	23.659852	0.000526	20.683379
406.127849	-2.996600	3.791600	-11.361000	23.675329	0.000527	20.699845
407.125706	-2.987700	3.793500	-11.333000	23.664223	0.000527	20.697246
408.124352	-2.993600	3.792000	-11.349000	23.658173	0.000527	20.699241
409.126655	-3.028000	3.791500	-11.479000	23.672589	0.000528	20.688563
410.123174	-3.026500	3.790600	-11.472000	23.684030	0.000529	20.715208
411.124786	-3.023600	3.790300	-11.460000	23.693693	0.000528	20.702135
412.131351	-3.021600	3.791500	-11.456000	23.691181	0.000528	20.697720
413.122633	-3.012900	3.790400	-11.419000	23.713434	0.000529	20.712444
414.126838	-3.000700	3.791200	-11.375000	23.734333	0.000530	20.680289
415.130844	-2.999700	3.791800	-11.373000	23.754244	0.000529	20.701677
416.125197	-3.030200	3.790100	-11.484000	23.787454	0.000530	20.687083
417.129243	-3.006300	3.790200	-11.394000	23.790039	0.000528	20.687304
418.134160	-2.982100	3.789800	-11.301000	23.762480	0.000531	20.680535
419.125425	-2.992900	3.791100	-11.345000	23.791775	0.000528	20.691891
420.127453	-2.991900	3.789800	-11.337000	23.784111	0.000529	20.705070
421.132694	-2.994300	3.788500	-11.343000	23.758713	0.000529	20.713271
422.125864	-3.004200	3.789100	-11.382000	23.761257	0.000530	20.687844
423.130709	-3.012800	3.787700	-11.411000	23.772974	0.000532	20.705283
424.131535	-3.013800	3.788500	-11.417000	23.801470	0.000532	20.699241
425.128695	-3.000800	3.787900	-11.366000	23.760254	0.000530	20.690632
426.130841	-3.002200	3.788000	-11.372000	23.768433	0.000529	20.699781
427.130106	-2.994300	3.787800	-11.341000	23.778886	0.000531	20.690821
428.128114	-2.988100	3.788100	-11.317000	23.794418	0.000532	20.702128
429.131792	-2.998500	3.787800	-11.357000	23.831491	0.000531	20.688565
430.130462	-3.026800	3.785400	-11.457000	23.854613	0.000527	20.709854
431.127942	-3.004800	3.785900	-11.375000	23.878779	0.000531	20.683348
432.129694	-3.000400	3.787500	-11.362000	23.857875	0.000531	20.691312
433.135736	-2.985000	3.785300	-11.298000	23.843958	0.000530	20.687788
434.129045	-3.011800	3.785300	-11.400000	23.906620	0.000528	20.687559
435.136715	-3.011400	3.786900	-11.402000	23.893226	0.000530	20.697836
436.135605	-2.986500	3.786400	-11.307000	23.880801	0.000531	20.699603
437.130598	-2.991700	3.785100	-11.323000	23.824937	0.000532	20.686259
438.132577	-3.001400	3.785000	-11.359000	23.861088	0.000531	20.690740
439.136055	-2.980700	3.784400	-11.279000	23.871336	0.000532	20.695327
440.131229	-2.990900	3.784600	-11.317000	23.851704	0.000533	20.679433
441.133372	-3.027000	3.782800	-11.449000	23.878274	0.000532	20.716985
442.135513	-3.020200	3.783400	-11.426000	23.876456	0.000533	20.666319
443.131745	-3.009400	3.784200	-11.387000	23.877329	0.000532	20.680472
444.133533	-3.022600	3.782900	-11.432000	23.894287	0.000535	20.680407
445.134159	-3.012800	3.782300	-11.393000	23.895103	0.000532	20.684070
446.135426	-2.993400	3.782700	-11.323000	23.881610	0.000534	20.694249
447.134321	-3.009500	3.781300	-11.379000	23.878650	0.000533	20.660932
448.135718	-2.980900	3.782400	-11.274000	23.885532	0.000533	20.681111
449.133362	-3.023500	3.781700	-11.432000	23.891508	0.000534	20.696113
450.133575	-3.005500	3.783000	-11.369000	23.852602	0.000534	20.703570
451.134049	-3.019700	3.781300	-11.417000	23.868199	0.000534	20.676533
452.134105	-2.989500	3.781300	-11.303000	23.857674	0.000533	20.693955
453.135326	-3.001800	3.780800	-11.348000	23.860577	0.000534	20.683115
454.135089	-2.997800	3.780200	-11.331000	23.899498	0.000533	20.695591
455.132748	-3.002500	3.778800	-11.345000	23.904276	0.000534	20.685208
456.134157	-2.997500	3.779900	-11.329000	23.925554	0.000534	20.679992
457.136857	-3.010400	3.779100	-11.376000	23.974777	0.000534	20.664392
458.133309	-3.003400	3.778400	-11.347000	23.985498	0.000534	20.668979
459.134682	-2.987300	3.778400	-11.286000	24.011992	0.000536	20.684644
460.134868	-3.009500	3.778600	-11.371000	23.995892	0.000532	20.690310
461.136820	-2.994200	3.779000	-11.314000	23.948430	0.000536	20.662153
462.134751	-2.994100	3.778200	-11.312000	23.943873	0.000535	20.669912
463.141120	-3.020800	3.777400	-11.410000	23.996031	0.000536	20.673853
464.136819	-3.003100	3.777300	-11.342000	23.995313	0.000535	20.661278
465.138446	-2.996600	3.777600	-11.319000	23.983933	0.000534	20.694440
466.142742	-2.997700	3.777700	-11.324000	23.959371	0.000537	20.679290
467.137523	-3.016000	3.776900	-11.390000	23.951374	0.000537	20.673166
468.140109	-3.005000	3.777400	-11.350000	23.969570	0.000536	20.685724
469.142102	-3.017100	3.775900	-11.391000	23.946940	0.000536	20.660183
470.140631	-3.014100	3.777000	-11.383000	23.963709	0.000536	20.677476
471.140154	-2.987200	3.775200	-11.276000	23.982793	0.000534	20.674328
472.142280	-3.008600	3.775100	-11.357000	24.005447	0.000535	20.697433
473.139193	-2.979100	3.775900	-11.248000	24.037264	0.000535	20.690075
474.137678	-2.991100	3.775100	-11.290000	24.014366	0.000534	20.688448
475.144161	-3.001000	3.775400	-11.330000	23.977315	0.000535	20.696337
476.139071	-3.031000	3.774000	-11.438000	23.983878	0.000534	20.690590
477.139412	-2.984900	3.776300	-11.271000	23.963946	0.000536	20.710907
478.146542	-2.994000	3.773700	-11.298000	23.968527	0.000535	20.697008
479.139981	-2.999500	3.773500	-11.318000	24.017798	0.000534	20.667706
480.139196	-2.993400	3.774100	-11.297000	24.050984	0.000536	20.682497
481.146390	-2.981100	3.774200	-11.250000	24.090999	0.000537	20.697499
482.143275	-2.969700	3.773000	-11.203000	24.141307	0.000537	20.687737
483.143067	-2.990800	3.773000	-11.284000	24.120016	0.000537	20.663062
484.148898	-3.001300	3.773300	-11.324000	24.061442	0.000537	20.680182
485.141211	-2.994700	3.772200	-11.296000	24.091822	0.000535	20.676512
486.141910	-3.010300	3.771200	-11.352000	24.091300	0.000538	20.703492
487.140880	-3.006400	3.770200	-11.334000	24.054945	0.000537	20.681728
488.141840	-3.016000	3.770700	-11.372000	24.060504	0.000537	20.692045
489.140504	-3.014300	3.770100	-11.364000	24.081323	0.000538	20.687320
490.142946	-2.999900	3.771200	-11.312000	24.069797	0.000537	20.666750
491.143101	-3.008700	3.771300	-11.347000	24.096753	0.000538	20.705168
492.142243	-3.005700	3.770000	-11.330000	24.081999	0.000537	20.700802
493.141157	-3.008400	3.769800	-11.340000	24.085137	0.000538	20.677394
494.142660	-3.008500	3.770000	-11.341000	24.087175	0.000537	20.692242
495.144934	-3.018300	3.768800	-11.375000	24.114498	0.000537	20.679340
496.142610	-2.996900	3.769600	-11.297000	24.066324	0.000537	20.672750
497.143477	-3.008000	3.768200	-11.335000	24.082122	0.000537	20.707563
498.143165	-3.024500	3.768800	-11.398000	24.103894	0.000537	20.693836
499.143419	-3.000700	3.768600	-11.307000	24.112925	0.000540	20.709059
500.145421	-3.014800	3.767600	-11.358000	24.140565	0.000539	20.702167
501.144629	-3.003200	3.768900	-11.318000	24.148161	0.000538	20.691767
502.144520	-2.988500	3.769000	-11.263000	24.152229	0.000538	20.690632
503.143507	-3.007200	3.768800	-11.332000	24.167169	0.000537	20.712730
504.146646	-3.021500	3.766800	-11.380000	24.205134	0.000539	20.699600
505.144617	-2.999300	3.766300	-11.296000	24.194979	0.000538	20.697949
506.144475	-2.988500	3.767700	-11.258000	24.192216	0.000541	20.683322
507.144702	-3.025800	3.766700	-11.397000	24.127002	0.000538	20.704686
508.144849	-3.026300	3.765200	-11.394000	24.106894	0.000540	20.688784
509.143774	-3.020400	3.766100	-11.374000	24.096696	0.000538	20.697049
510.144691	-2.982600	3.767100	-11.235000	24.097610	0.000537	20.707449
511.146966	-2.978900	3.767400	-11.222000	24.123024	0.000539	20.694531
512.146664	-3.013700	3.765300	-11.347000	24.159997	0.000539	20.700320
513.147590	-2.975000	3.766300	-11.204000	24.171212	0.000537	20.686912
514.149095	-2.991600	3.764600	-11.261000	24.184677	0.000538	20.690934
515.147288	-2.999600	3.765600	-11.295000	24.182289	0.000540	20.683322
516.147327	-2.995200	3.765300	-11.277000	24.209829	0.000540	20.705732
517.149314	-2.994700	3.763800	-11.270000	24.228388	0.000537	20.696371
518.150617	-2.977300	3.765000	-11.208000	24.193773	0.000539	20.690575
519.148019	-2.975800	3.763400	-11.198000	24.153101	0.000538	20.699568
520.149074	-3.006400	3.763100	-11.313000	24.157275	0.000538	20.709918
521.149174	-3.000100	3.763100	-11.288000	24.178491	0.000541	20.699903
522.149981	-2.997500	3.764000	-11.281000	24.171335	0.000537	20.713115
523.152102	-3.026700	3.761400	-11.384000	24.187326	0.000539	20.716353
524.151413	-3.007600	3.762300	-11.315000	24.163942	0.000540	20.700958
525.150382	-2.990700	3.762900	-11.253000	24.201631	0.000538	20.694663
526.153721	-2.992800	3.762200	-11.259000	24.284028	0.000539	20.715674
527.152853	-3.033500	3.761400	-11.409000	24.264599	0.000539	20.697606
528.151071	-3.001900	3.760700	-11.289000	24.270964	0.000538	20.715846
529.153667	-2.998700	3.761000	-11.277000	24.220735	0.000538	20.719517
530.155921	-2.987100	3.761100	-11.234000	24.226978	0.000540	20.719615
531.153661	-3.008700	3.759600	-11.311000	24.249661	0.000539	20.690208
532.153853	-2.997900	3.759200	-11.269000	24.257648	0.000539	20.710549
533.156351	-3.004200	3.760300	-11.295000	24.254983	0.000540	20.703134
534.152737	-2.991300	3.760400	-11.248000	24.262570	0.000539	20.708374
535.153392	-3.001100	3.759700	-11.282000	24.276825	0.000540	20.724096
536.155849	-2.995300	3.759200	-11.258000	24.284632	0.000540	20.721022
537.155241	-3.028800	3.756800	-11.378000	24.293124	0.000540	20.706780
538.154298	-3.018300	3.757600	-11.341000	24.312203	0.000541	20.707426
539.153568	-3.033200	3.758000	-11.398000	24.286645	0.000540	20.721619
540.154074	-3.016900	3.756800	-11.333000	24.278031	0.000538	20.721513
541.154834	-3.004300	3.756600	-11.285000	24.321176	0.000539	20.723540
542.155077	-3.004600	3.758000	-11.290000	24.317394	0.000540	20.709315
543.154078	-2.978300	3.757400	-11.189000	24.343065	0.000539	20.721317
544.154447	-2.986500	3.757700	-11.221000	24.356398	0.000539	20.710509
545.154816	-2.993100	3.756600	-11.243000	24.359804	0.000540	20.728626
546.158959	-2.974300	3.755900	-11.169000	24.323784	0.000539	20.729950
547.154990	-2.996000	3.754900	-11.248000	24.321746	0.000540	20.716526
548.156817	-2.997100	3.756600	-11.257000	24.311298	0.000539	20.719796
549.154685	-2.995100	3.754600	-11.245000	24.340800	0.000540	20.732795
550.155770	-2.980900	3.756100	-11.195000	24.357237	0.000541	20.725577
551.156211	-3.004700	3.755300	-11.283000	24.385498	0.000539	20.720737
552.156376	-3.009700	3.755400	-11.302000	24.386272	0.000539	20.735739
553.157892	-3.003800	3.754200	-11.276000	24.415478	0.000540	20.711457
554.160965	-3.002300	3.754100	-11.271000	24.404909	0.000539	20.733098
555.157411	-3.000000	3.754000	-11.261000	24.386542	0.000538	20.740750
556.156672	-3.004200	3.754200	-11.278000	24.445148	0.000538	20.708980
557.159765	-3.015800	3.754700	-11.322000	24.411420	0.000539	20.734414
558.158326	-3.013400	3.753400	-11.309000	24.454999	0.000538	20.721235
559.160481	-3.006500	3.752100	-11.280000	24.413808	0.000538	20.726378
560.160299	-2.989600	3.753600	-11.221000	24.417694	0.000538	20.722216
561.158609	-2.993600	3.753200	-11.235000	24.417915	0.000540	20.738085
562.160427	-2.966600	3.752600	-11.131000	24.425680	0.000539	20.742557
563.160493	-3.000700	3.752900	-11.260000	24.415870	0.000539	20.732240
564.164101	-3.006800	3.750900	-11.277000	24.388244	0.000540	20.727759
565.160727	-3.010400	3.751200	-11.291000	24.384928	0.000538	20.713051
566.162714	-2.999700	3.751600	-11.253000	24.396027	0.000540	20.726083
567.161079	-3.009500	3.750500	-11.286000	24.385303	0.000542	20.739982
568.163791	-2.994900	3.751900	-11.236000	24.368540	0.000541	20.731700
569.166821	-2.985700	3.751200	-11.199000	24.386248	0.000539	20.737137
570.163321	-2.990800	3.751200	-11.218000	24.380968	0.000540	20.748910
571.162158	-3.015500	3.750700	-11.309000	24.400354	0.000539	20.746072
572.167490	-2.992500	3.749700	-11.220000	24.414557	0.000539	20.729026
573.163774	-2.994400	3.748100	-11.223000	24.432860	0.000539	20.744544
574.164675	-3.003200	3.748600	-11.256000	24.410671	0.000540	20.742672
575.167565	-2.987900	3.750000	-11.204000	24.403508	0.000538	20.749711
576.169833	-2.987300	3.749100	-11.198000	24.427775	0.000539	20.726166
577.165348	-3.001400	3.748000	-11.249000	24.460614	0.000540	20.741568
578.170413	-2.958500	3.749400	-11.092000	24.447300	0.000540	20.744332
579.165263	-2.995100	3.747800	-11.224000	24.448465	0.000539	20.757830
580.166729	-3.000700	3.747700	-11.245000	24.470279	0.000537	20.750791
581.169312	-3.005400	3.747600	-11.262000	24.481842	0.000538	20.745322
582.168624	-3.006600	3.745800	-11.260000	24.490422	0.000541	20.726428
583.166066	-2.995700	3.748700	-11.229000	24.475690	0.000540	20.737253
584.168839	-3.009500	3.746000	-11.273000	24.489990	0.000538	20.762507
585.165831	-3.011600	3.747100	-11.284000	24.524482	0.000537	20.756809
586.168204	-2.992100	3.746800	-11.210000	24.517939	0.000537	20.747873
587.168727	-2.997200	3.745800	-11.226000	24.510745	0.000539	20.727852
588.167206	-2.978800	3.745800	-11.158000	24.555917	0.000539	20.733820
589.170082	-2.993800	3.744700	-11.209000	24.557131	0.000538	20.725081
590.169514	-2.997100	3.745200	-11.223000	24.585411	0.000538	20.742077
591.169889	-2.987100	3.745500	-11.186000	24.531563	0.000539	20.759172
592.170494	-2.999300	3.745900	-11.234000	24.535311	0.000537	20.743018
593.173544	-2.995100	3.743900	-11.212000	24.564008	0.000540	20.767070
594.168733	-3.009100	3.744100	-11.266000	24.568636	0.000539	20.755118
595.170431	-3.028500	3.744500	-11.339000	24.530333	0.000537	20.747506
596.170834	-3.001400	3.742800	-11.233000	24.527791	0.000538	20.774354
597.168658	-2.982000	3.742800	-11.160000	24.585763	0.000540	20.750965
598.171324	-3.000700	3.742500	-11.229000	24.549498	0.000538	20.776693
599.172898	-2.978600	3.744600	-11.153000	24.514681	0.000537	20.761201
600.171119	-3.000800	3.742800	-11.230000	24.553604	0.000536	20.732448
601.171699	-3.022300	3.741400	-11.307000	24.540242	0.000538	20.765984
602.180768	-3.015000	3.740300	-11.276000	24.519586	0.000538	20.766596
603.172401	-3.006600	3.742300	-11.251000	24.548773	0.000538	20.755576
604.175874	-2.993800	3.742400	-11.203000	24.511292	0.000537	20.754481
605.179938	-2.996000	3.740900	-11.207000	24.526016	0.000539	20.747916
606.176042	-3.010700	3.740800	-11.260000	24.524647	0.000537	20.766932
607.177375	-3.004600	3.742500	-11.244000	24.569843	0.000539	20.755854
608.177846	-3.006000	3.741000	-11.244000	24.593642	0.000538	20.767406
609.177203	-2.987300	3.740400	-11.173000	24.582700	0.000537	20.755004
610.180111	-2.993400	3.740100	-11.195000	24.603411	0.000537	20.762035
611.187238	-2.993600	3.739800	-11.194000	24.614475	0.000539	20.775982
612.178153	-2.986200	3.740300	-11.168000	24.613954	0.000538	20.768821
613.179882	-2.987400	3.740600	-11.174000	24.604258	0.000536	20.760515
614.181148	-2.989700	3.740400	-11.182000	24.588737	0.000537	20.760114
615.179461	-3.000300	3.739600	-11.219000	24.590253	0.000537	20.763531
616.181387	-3.009500	3.738600	-11.250000	24.602050	0.000537	20.780110
617.184287	-2.959200	3.739800	-11.066000	24.587743	0.000536	20.770497
618.183488	-2.993300	3.739500	-11.193000	24.596428	0.000538	20.780634
619.181625	-2.972100	3.739600	-11.114000	24.573966	0.000538	20.781803
620.185107	-3.010800	3.736300	-11.248000	24.609904	0.000537	20.772818
621.182554	-2.989500	3.738300	-11.175000	24.595500	0.000537	20.768796
622.181729	-3.002900	3.736800	-11.220000	24.590978	0.000537	20.787019
623.184110	-2.991300	3.738900	-11.184000	24.594033	0.000536	20.767799
624.183610	-3.001000	3.737900	-11.216000	24.637508	0.000537	20.769221
625.184589	-3.021500	3.736400	-11.288000	24.613293	0.000535	20.775271
626.185202	-2.999000	3.735700	-11.202000	24.602792	0.000535	20.783699
627.182851	-3.005100	3.736200	-11.227000	24.614679	0.000537	20.763384
628.186351	-3.007100	3.736100	-11.233000	24.636171	0.000536	20.780209
629.186937	-3.001300	3.735400	-11.209000	24.643854	0.000538	20.766581
630.182219	-2.995200	3.734600	-11.185000	24.676449	0.000536	20.775106
631.185190	-3.021000	3.734800	-11.281000	24.685639	0.000535	20.776742
632.185625	-3.008400	3.735000	-11.236000	24.692360	0.000538	20.771158
633.183852	-2.995300	3.733900	-11.183000	24.709819	0.000538	20.784410
634.188354	-2.990100	3.735000	-11.167000	24.669410	0.000536	20.791751
635.186480	-2.997100	3.733600	-11.188000	24.659487	0.000536	20.768043
636.183699	-2.995500	3.734900	-11.187000	24.679977	0.000534	20.768689
637.187258	-3.007300	3.733600	-11.227000	24.673044	0.000535	20.773112
638.189086	-2.997500	3.733800	-11.192000	24.681142	0.000535	20.785031
639.186721	-3.007800	3.732800	-11.227000	24.689582	0.000534	20.784966
640.186721	-3.003600	3.732800	-11.211000	24.673190	0.000534	20.784639
641.190179	-3.018900	3.732500	-11.267000	24.593307	0.000535	20.779873
642.188380	-3.024300	3.730500	-11.280000	24.586691	0.000533	20.787459
643.189869	-3.015600	3.732300	-11.254000	24.625107	0.000534	20.784754
644.190450	-3.010900	3.732300	-11.237000	24.631958	0.000533	20.784042
645.187336	-3.022500	3.731500	-11.277000	24.685672	0.000534	20.794792
646.189028	-3.008600	3.730400	-11.223000	24.686893	0.000535	20.781320
647.192082	-3.017900	3.731200	-11.259000	24.707806	0.000535	20.815581
648.186997	-3.003500	3.730100	-11.202000	24.696075	0.000535	20.777256
649.190188	-2.976800	3.731300	-11.107000	24.696368	0.000534	20.778973
650.191897	-2.991000	3.730100	-11.156000	24.682274	0.000534	20.793754
651.189221	-2.988500	3.731100	-11.149000	24.717509	0.000535	20.788334
652.189184	-2.984300	3.730200	-11.131000	24.724026	0.000532	20.804357
653.193549	-3.003700	3.729000	-11.201000	24.698657	0.000535	20.789805
654.188436	-3.014400	3.728900	-11.239000	24.702291	0.000534	20.802460
655.189538	-3.003500	3.728500	-11.197000	24.730641	0.000535	20.808624
656.197981	-2.974500	3.729700	-11.093000	24.732514	0.000532	20.808607
657.191282	-2.985000	3.728700	-11.129000	24.741068	0.000531	20.793009
658.191634	-2.985100	3.730000	-11.134000	24.745247	0.000532	20.811428
659.196584	-2.999900	3.728200	-11.184000	24.775689	0.000534	20.805942
660.192500	-2.998000	3.728000	-11.174000	24.764724	0.000533	20.796835
661.194170	-2.987000	3.727400	-11.131000	24.784438	0.000534	20.803343
662.195318	-2.975200	3.728500	-11.092000	24.772528	0.000534	20.805615
663.190491	-2.988600	3.727200	-11.138000	24.772154	0.000534	20.790066
664.191837	-3.014400	3.726700	-11.233000	24.788079	0.000534	20.810789
665.195962	-2.987600	3.727400	-11.136000	24.823856	0.000531	20.786951
666.189867	-2.988700	3.727000	-11.138000	24.765425	0.000532	20.805598
667.194564	-3.002600	3.725400	-11.186000	24.750256	0.000532	20.799859
668.196495	-3.005000	3.726000	-11.196000	24.763763	0.000530	20.820051
669.193269	-3.004700	3.724700	-11.190000	24.724668	0.000531	20.799312
670.194841	-3.006800	3.725700	-11.202000	24.754264	0.000531	20.817157
671.202088	-3.004400	3.726800	-11.195000	24.815490	0.000531	20.820754
672.197321	-2.993200	3.726700	-11.153000	24.802709	0.000531	20.803186
673.195834	-2.994800	3.725900	-11.157000	24.813078	0.000531	20.807903
674.201003	-3.016600	3.724600	-11.235000	24.788412	0.000528	20.808279
675.196711	-2.997300	3.724500	-11.163000	24.800021	0.000531	20.815187
676.197516	-3.000500	3.724200	-11.174000	24.792917	0.000530	20.797627
677.200313	-2.993600	3.723200	-11.144000	24.756438	0.000531	20.824081
678.196428	-2.985000	3.725300	-11.118000	24.752431	0.000531	20.821007
679.196726	-3.027700	3.722400	-11.269000	24.734028	0.000529	20.824825
680.201696	-2.986400	3.724000	-11.121000	24.705906	0.000530	20.813200
681.197157	-2.997100	3.723200	-11.157000	24.713368	0.000530	20.822111
682.199345	-2.986700	3.723700	-11.121000	24.722028	0.000528	20.804722
683.198889	-2.996800	3.722900	-11.156000	24.739216	0.000530	20.812963
684.197828	-3.009700	3.722000	-11.200000	24.765521	0.000528	20.810911
685.199230	-2.997700	3.722300	-11.157000	24.781088	0.000530	20.816102
686.200294	-2.992100	3.722900	-11.138000	24.793870	0.000530	20.829877
687.198131	-2.992200	3.721500	-11.134000	24.836261	0.000529	20.832117
688.200967	-2.977400	3.722900	-11.084000	24.815187	0.000529	20.819028
689.201158	-3.001000	3.722200	-11.169000	24.807400	0.000529	20.827334
690.199090	-2.990300	3.722800	-11.131000	24.846442	0.000528	20.832378
691.201894	-3.003700	3.720800	-11.176000	24.808956	0.000529	20.808034
692.203001	-3.012500	3.719900	-11.206000	24.805135	0.000530	20.818424
693.200971	-2.970600	3.722200	-11.056000	24.788697	0.000527	20.815677
694.201174	-3.011400	3.721000	-11.204000	24.808817	0.000528	20.808842
695.203098	-3.011200	3.718300	-11.196000	24.835495	0.000529	20.838460
696.200974	-3.001400	3.718000	-11.158000	24.804149	0.000527	20.830710
697.201408	-2.993900	3.719300	-11.134000	24.796460	0.000528	20.832950
698.202569	-2.988900	3.719200	-11.115000	24.837018	0.000529	20.839514
699.199518	-3.014100	3.718300	-11.206000	24.809118	0.000527	20.820998
700.202346	-2.995900	3.717200	-11.135000	24.815481	0.000526	20.824064
701.202206	-2.991300	3.720300	-11.128000	24.839356	0.000527	20.827162
702.201398	-2.990600	3.717600	-11.117000	24.864419	0.000526	20.819126
703.201268	-2.992100	3.717500	-11.122000	24.874096	0.000527	20.824097
704.205256	-2.964900	3.719800	-11.028000	24.861959	0.000526	20.824244
705.211667	-2.987800	3.717800	-11.106000	24.876181	0.000526	20.823345
706.203463	-2.989300	3.717100	-11.110000	24.878641	0.000527	20.830081
707.204254	-2.987700	3.716300	-11.102000	24.919319	0.000528	20.835345
708.200816	-2.994100	3.717100	-11.128000	24.936228	0.000527	20.836670
709.202351	-2.982000	3.716900	-11.083000	24.925737	0.000525	20.822821
710.205186	-2.990400	3.715900	-11.111000	24.905675	0.000525	20.835402
711.203957	-3.010700	3.714600	-11.182000	24.854303	0.000526	20.825568
712.202922	-2.989900	3.717200	-11.113000	24.856290	0.000526	20.816657
713.203981	-2.975600	3.715700	-11.056000	24.879293	0.000525	20.813665
714.210375	-2.992700	3.716000	-11.120000	24.859418	0.000524	20.823116
715.205327	-3.011000	3.714300	-11.183000	24.840455	0.000526	20.819257
716.205127	-2.991100	3.715700	-11.113000	24.859198	0.000523	20.808671
717.204084	-3.016000	3.714200	-11.200000	24.879138	0.000526	20.835795
718.201970	-2.971000	3.714900	-11.036000	24.864297	0.000524	20.786761
719.206810	-2.997300	3.713800	-11.131000	24.889409	0.000523	20.809120
720.212874	-3.002100	3.713300	-11.146000	24.888163	0.000524	20.813085
721.206460	-3.010000	3.714000	-11.178000	24.891177	0.000523	20.783867
722.206882	-3.018400	3.711200	-11.201000	24.930657	0.000523	20.814483
723.205369	-2.994500	3.713900	-11.120000	24.964498	0.000521	20.801509
724.206567	-3.000300	3.712700	-11.138000	24.958080	0.000521	20.795068
725.207037	-3.007300	3.712800	-11.164000	24.920809	0.000523	20.818824
726.208244	-3.000600	3.713000	-11.140000	24.894280	0.000522	20.804526
727.207789	-2.985700	3.712700	-11.084000	24.861764	0.000522	20.818832
728.209604	-3.009800	3.712300	-11.172000	24.850572	0.000522	20.818031
729.208727	-2.998600	3.712400	-11.131000	24.881452	0.000521	20.795918
730.210371	-2.989900	3.710900	-11.094000	24.896080	0.000523	20.812970
731.210202	-3.028600	3.710600	-11.237000	24.927227	0.000519	20.779273
732.211060	-2.984900	3.712800	-11.081000	24.903704	0.000521	20.781742
733.209553	-3.017400	3.710000	-11.194000	24.890753	0.000522	20.806202
734.209734	-3.023400	3.710000	-11.215000	24.934615	0.000520	20.808025
735.208388	-3.026800	3.708200	-11.223000	24.947891	0.000521	20.785789
736.208005	-3.011600	3.710400	-11.173000	24.925370	0.000523	20.793056
737.209425	-2.998100	3.710800	-11.125000	24.961982	0.000521	20.792345
738.210419	-2.993400	3.710300	-11.104000	24.956940	0.000522	20.794871
739.211359	-2.995900	3.709000	-11.111000	24.946547	0.000519	20.789655
740.213098	-3.020200	3.708000	-11.198000	24.896643	0.000519	20.790776
741.210981	-2.995200	3.709700	-11.109000	24.837270	0.000520	20.777654
742.212831	-2.992100	3.707800	-11.093000	24.823960	0.000519	20.789427
743.212603	-2.996000	3.708200	-11.109000	24.877265	0.000520	20.784130
744.212800	-2.990400	3.707100	-11.084000	24.906059	0.000519	20.782683
745.213384	-3.013400	3.707700	-11.172000	24.900618	0.000518	20.792869
746.212806	-2.999900	3.708100	-11.123000	24.897898	0.000518	20.800570
747.214489	-3.003400	3.708000	-11.136000	24.874130	0.000519	20.788095
748.215239	-2.983000	3.707900	-11.060000	24.839079	0.000518	20.775676
749.216335	-2.993900	3.707600	-11.100000	24.883953	0.000518	20.789893
750.216599	-3.017200	3.706000	-11.181000	24.861724	0.000517	20.809783
751.215042	-2.990200	3.707100	-11.084000	24.883945	0.000518	20.781825
752.215518	-3.001900	3.706000	-11.123000	24.898769	0.000517	20.782004
753.216482	-2.998000	3.707200	-11.113000	24.920199	0.000518	20.778383
754.214913	-3.013500	3.706400	-11.168000	24.902744	0.000517	20.770347
755.215169	-3.015900	3.705600	-11.175000	24.900651	0.000518	20.775832
756.220983	-3.003500	3.704900	-11.127000	24.932156	0.000517	20.789910
757.216674	-2.999900	3.704800	-11.113000	24.943078	0.000515	20.771000
758.218174	-3.013300	3.704400	-11.162000	24.878007	0.000517	20.764959
759.217977	-3.004500	3.704100	-11.129000	24.857839	0.000513	20.786444
760.219733	-3.004700	3.704400	-11.129000	24.909733	0.000516	20.771197
761.217799	-2.991900	3.704500	-11.082000	24.911443	0.000515	20.780975
762.217299	-3.000100	3.703600	-11.110000	24.893711	0.000515	20.768393
763.219168	-3.000300	3.704200	-11.113000	24.926617	0.000516	20.778186
764.218575	-3.025500	3.703400	-11.203000	24.854279	0.000513	20.779552
765.216979	-3.002700	3.703800	-11.121000	24.845930	0.000516	20.765956
766.217371	-3.028200	3.702600	-11.210000	24.878871	0.000517	20.755394
767.218817	-2.995100	3.702900	-11.090000	24.893019	0.000517	20.780500
768.222465	-3.004500	3.702000	-11.121000	24.887627	0.000515	20.779356
769.219185	-3.008000	3.701700	-11.134000	24.918375	0.000517	20.765172
770.220433	-3.021500	3.701900	-11.184000	24.873299	0.000513	20.775882
771.221313	-3.000900	3.701100	-11.105000	24.891944	0.000514	20.769464
772.220726	-3.004900	3.701200	-11.121000	24.910515	0.000514	20.763447
773.222845	-3.012300	3.700900	-11.146000	24.948707	0.000515	20.754364
774.221646	-3.006000	3.702000	-11.128000	24.992941	0.000514	20.766521
775.221326	-2.994900	3.699600	-11.079000	25.031871	0.000513	20.758182
776.224732	-3.006500	3.699600	-11.121000	25.031146	0.000514	20.748446
777.232245	-2.994900	3.700300	-11.081000	25.051832	0.000513	20.765892
778.224277	-2.987700	3.699500	-11.053000	25.023532	0.000515	20.743647
779.227717	-2.993000	3.700100	-11.074000	25.014141	0.000514	20.774051
780.229464	-2.993500	3.699200	-11.073000	25.029102	0.000514	20.739756
781.227145	-2.996100	3.699300	-11.082000	25.019273	0.000512	20.779202
782.229390	-2.984400	3.699800	-11.040000	25.026520	0.000514	20.760872
783.231999	-3.021700	3.698000	-11.173000	25.016047	0.000512	20.763636
784.227890	-2.992000	3.700400	-11.070000	24.965894	0.000511	20.770667
785.230463	-3.000900	3.699400	-11.101000	24.962734	0.000511	20.767021
786.230150	-3.012800	3.697900	-11.139000	24.992225	0.000512	20.753948
787.227454	-2.994800	3.699600	-11.078000	25.018108	0.000513	20.769972
788.230683	-2.984700	3.697700	-11.035000	25.063398	0.000514	20.764225
789.231731	-3.020100	3.696800	-11.163000	25.071298	0.000511	20.761724
790.232344	-2.993100	3.698000	-11.067000	25.096234	0.000512	20.745504
791.232407	-2.984200	3.697600	-11.033000	25.100803	0.000511	20.761471
792.231620	-3.002700	3.697000	-11.100000	25.104631	0.000509	20.747769
793.231996	-2.978600	3.697000	-11.011000	25.137637	0.000511	20.760515
794.235636	-2.984900	3.698500	-11.039000	25.152726	0.000510	20.759542
795.232901	-2.978600	3.696500	-11.010000	25.112082	0.000509	20.758569
796.232821	-2.990400	3.696500	-11.053000	25.081804	0.000508	20.750459
797.237958	-2.984900	3.694700	-11.028000	25.085387	0.000508	20.753582
798.235338	-3.019900	3.695300	-11.159000	25.044611	0.000507	20.750107
799.243338	-3.006300	3.695500	-11.109000	25.046174	0.000508	20.739823
800.236039	-3.018500	3.695300	-11.153000	25.062902	0.000507	20.742864
801.237773	-3.007100	3.695100	-11.111000	25.034235	0.000508	20.749650
802.234549	-2.989500	3.694300	-11.044000	25.045100	0.000509	20.733528
803.236748	-3.009600	3.694800	-11.119000	25.054946	0.000507	20.738670
804.235066	-3.007400	3.695000	-11.111000	25.060418	0.000508	20.756967
805.237233	-3.023200	3.693700	-11.166000	25.086544	0.000507	20.754743
806.234160	-2.989600	3.693300	-11.040000	25.097929	0.000508	20.750525
807.234866	-2.995400	3.694200	-11.065000	25.101586	0.000507	20.733806
808.236197	-3.009100	3.694100	-11.115000	25.111049	0.000504	20.750419
809.237045	-2.997000	3.692800	-11.067000	25.109094	0.000507	20.755095
810.236634	-2.977100	3.693500	-10.995000	25.104363	0.000506	20.750345
811.235895	-2.986500	3.693900	-11.031000	25.145357	0.000506	20.742660
812.241417	-2.981900	3.692800	-11.010000	25.117637	0.000505	20.757507
813.237445	-2.973500	3.693900	-10.983000	25.108687	0.000505	20.745203
814.238310	-2.988700	3.691600	-11.032000	25.116668	0.000504	20.736619
815.240596	-3.004500	3.691900	-11.091000	25.099811	0.000504	20.727757
816.241405	-2.971000	3.691300	-10.966000	25.067398	0.000504	20.754490
817.240987	-2.993800	3.690300	-11.047000	25.052349	0.000504	20.744124
818.240068	-2.990400	3.691000	-11.037000	24.998026	0.000504	20.740805
819.244661	-3.004300	3.692400	-11.092000	25.020651	0.000504	20.727005
820.241801	-2.976100	3.690600	-10.983000	25.014559	0.000504	20.744598
821.243156	-3.006600	3.689300	-11.091000	24.998344	0.000503	20.725950
822.246010	-2.982400	3.689600	-11.002000	24.979995	0.000501	20.730292
823.244871	-2.978800	3.689100	-10.989000	24.977755	0.000502	20.746536
824.245079	-2.989300	3.690800	-11.031000	24.970351	0.000501	20.740053
825.245542	-3.005700	3.689100	-11.087000	24.979531	0.000502	20.738362
826.246106	-3.020300	3.689500	-11.142000	25.023894	0.000501	20.737372
827.254390	-2.996500	3.688900	-11.053000	25.044824	0.000503	20.735623
828.248901	-2.984600	3.688500	-11.008000	25.051063	0.000499	20.730031
829.249214	-3.006700	3.688900	-11.091000	25.043774	0.000501	20.739784
830.248260	-2.993800	3.688100	-11.040000	25.021989	0.000503	20.726450
831.251187	-3.005200	3.687100	-11.079000	25.042031	0.000501	20.729500
832.250524	-3.000800	3.687400	-11.063000	25.056520	0.000502	20.739777
833.249312	-2.996600	3.687800	-11.050000	25.096621	0.000499	20.723605
834.252307	-2.989700	3.687600	-11.024000	25.121727	0.000500	20.718937
835.253076	-2.984600	3.685800	-10.999000	25.091393	0.000500	20.732108
836.251431	-2.977400	3.686900	-10.977000	25.102721	0.000500	20.733523
837.251873	-2.997100	3.685500	-11.045000	25.096556	0.000500	20.734921
838.249644	-2.994800	3.686700	-11.040000	25.070431	0.000498	20.741412
839.250773	-3.016100	3.686100	-11.117000	25.107917	0.000499	20.734946
840.251967	-3.002200	3.685400	-11.064000	25.137893	0.000500	20.726157
841.251965	-3.008400	3.685700	-11.087000	25.101402	0.000498	20.722715
842.251540	-2.998600	3.685700	-11.051000	25.125336	0.000498	20.730621
843.253161	-3.000400	3.685000	-11.055000	25.155964	0.000498	20.745247
844.250726	-3.013400	3.683900	-11.100000	25.156835	0.000499	20.710084
845.250182	-3.032600	3.683600	-11.170000	25.164979	0.000496	20.719683
846.254152	-2.981900	3.683700	-10.983000	25.160207	0.000497	20.740972
847.250499	-2.987700	3.684000	-11.006000	25.182527	0.000500	20.710747
848.251808	-2.978100	3.684400	-10.972000	25.161518	0.000498	20.749401
849.253345	-3.007200	3.684200	-11.079000	25.113472	0.000496	20.738626
850.255410	-2.990800	3.683200	-11.014000	25.129548	0.000495	20.734375
851.255053	-3.017400	3.682400	-11.110000	25.170142	0.000494	20.717754
852.258534	-3.007900	3.682900	-11.077000	25.191192	0.000496	20.727508
853.255388	-2.996400	3.682000	-11.032000	25.195761	0.000497	20.728301
854.255182	-2.994800	3.682400	-11.028000	25.180623	0.000495	20.737286
855.260815	-2.991100	3.681500	-11.011000	25.104996	0.000494	20.719685
856.254622	-2.990500	3.681900	-11.010000	25.084759	0.000495	20.727819
857.257300	-2.990000	3.682700	-11.010000	25.074220	0.000495	20.718662
858.258881	-2.981400	3.680500	-10.972000	25.019810	0.000494	20.723315
859.257049	-3.012700	3.681400	-11.088000	25.024583	0.000494	20.723364
860.258164	-2.998700	3.680600	-11.036000	25.052127	0.000495	20.710709
861.261187	-3.006300	3.680500	-11.064000	25.070541	0.000494	20.712124
862.256032	-3.003600	3.679300	-11.050000	25.120210	0.000493	20.734010
863.259938	-3.006800	3.680300	-11.064000	25.097506	0.000494	20.722123
864.264078	-2.998400	3.679500	-11.031000	25.108988	0.000492	20.730806
865.258595	-3.001900	3.679200	-11.044000	25.156335	0.000490	20.726179
866.259974	-2.988900	3.679800	-10.998000	25.144454	0.000493	20.718993
867.263339	-2.992100	3.679200	-11.008000	25.117549	0.000491	20.729442
868.259211	-2.987900	3.678600	-10.991000	25.128111	0.000491	20.717759
869.260951	-2.993100	3.677800	-11.007000	25.109952	0.000493	20.725608
870.263764	-2.983900	3.677500	-10.972000	25.103217	0.000493	20.714579
871.257902	-2.986600	3.678200	-10.985000	25.096034	0.000491	20.730603
872.260667	-2.995300	3.676100	-11.010000	25.138935	0.000491	20.706339
873.263326	-2.994300	3.676400	-11.008000	25.138039	0.000493	20.705913
874.258747	-3.024600	3.675600	-11.116000	25.134578	0.000491	20.712871
875.262142	-2.986300	3.677300	-10.981000	25.153813	0.000490	20.709422
876.263088	-3.004700	3.677500	-11.050000	25.157438	0.000490	20.682238
877.260960	-3.009700	3.677200	-11.066000	25.158570	0.000492	20.715620
878.262386	-3.017100	3.676000	-11.090000	25.188903	0.000489	20.714777
879.263702	-3.005300	3.674500	-11.042000	25.234113	0.000487	20.730295
880.261580	-2.969700	3.677400	-10.920000	25.231890	0.000491	20.720951
881.266418	-2.961000	3.676000	-10.884000	25.246360	0.000488	20.713666
882.268900	-2.999700	3.677000	-11.029000	25.179116	0.000487	20.713487
883.261219	-2.997000	3.675400	-11.014000	25.165160	0.000487	20.719865
884.263923	-2.998900	3.674500	-11.018000	25.200834	0.000488	20.708263
885.266473	-3.001600	3.675000	-11.030000	25.231061	0.000488	20.713005
886.264836	-2.999400	3.675900	-11.024000	25.199557	0.000485	20.707455
887.264762	-2.988400	3.675900	-10.984000	25.213253	0.000488	20.712671
888.265191	-2.998100	3.672800	-11.011000	25.194533	0.000487	20.716162
889.264061	-3.005600	3.672900	-11.039000	25.203954	0.000487	20.717086
890.266227	-3.019300	3.674100	-11.092000	25.200102	0.000486	20.697096
891.264830	-2.988500	3.673100	-10.976000	25.184037	0.000486	20.716056
892.265588	-3.008100	3.672400	-11.046000	25.190299	0.000486	20.707644
893.266285	-2.999100	3.673600	-11.017000	25.181871	0.000485	20.718149
894.267075	-3.002100	3.672500	-11.024000	25.185299	0.000485	20.708788
895.267504	-2.989300	3.671200	-10.973000	25.230394	0.000485	20.706172
896.270252	-3.009700	3.671600	-11.049000	25.253560	0.000484	20.716154
897.267975	-2.986500	3.671300	-10.963000	25.235044	0.000483	20.706572
898.266963	-2.996400	3.670300	-10.997000	25.240028	0.000483	20.700670
899.269430	-3.002000	3.670900	-11.019000	25.184519	0.000483	20.707530
900.273003	-3.022300	3.668900	-11.087000	25.150870	0.000481	20.712157
901.271064	-3.017400	3.669800	-11.072000	25.127743	0.000483	20.704113
902.272911	-3.002500	3.669300	-11.016000	25.160659	0.000483	20.694481
903.270995	-3.021800	3.670400	-11.090000	25.153378	0.000483	20.696182
904.272332	-2.999600	3.669200	-11.005000	25.147490	0.000482	20.702599
905.271486	-2.976900	3.669300	-10.923000	25.153679	0.000482	20.715926
906.276247	-3.018500	3.668200	-11.071000	25.129420	0.000481	20.688725
907.269907	-2.997400	3.670000	-10.999000	25.113442	0.000481	20.709671
908.271647	-2.984800	3.668200	-10.948000	25.138940	0.000481	20.695912
909.275276	-3.000800	3.668800	-11.008000	25.102603	0.000481	20.712540
910.273076	-3.000700	3.668200	-11.007000	25.132888	0.000480	20.701691
911.272859	-2.993800	3.667000	-10.977000	25.159631	0.000480	20.723324
912.275626	-2.995100	3.667800	-10.985000	25.214393	0.000482	20.709548
913.273072	-3.010400	3.667000	-11.038000	25.216584	0.000479	20.711273
914.273337	-3.027500	3.666600	-11.100000	25.205794	0.000479	20.686688
915.277889	-3.024900	3.666200	-11.088000	25.217780	0.000479	20.693981
916.273047	-3.040000	3.665600	-11.142000	25.213310	0.000480	20.714150
917.272465	-2.989100	3.666200	-10.957000	25.200061	0.000477	20.707013
918.272622	-3.008600	3.665400	-11.027000	25.169565	0.000478	20.705320
919.274252	-2.981100	3.667800	-10.933000	25.152936	0.000479	20.688151
920.272988	-3.008200	3.666100	-11.027000	25.140103	0.000477	20.699924
921.274855	-3.005900	3.664500	-11.014000	25.121487	0.000478	20.705892
922.274961	-3.014400	3.664200	-11.044000	25.115843	0.000479	20.682207
923.273999	-2.985100	3.666200	-10.943000	25.130282	0.000476	20.714248
924.275612	-2.989400	3.665600	-10.957000	25.204018	0.000475	20.712408
925.273331	-2.985800	3.666000	-10.945000	25.166584	0.000477	20.710863
926.275718	-2.970400	3.665200	-10.887000	25.178815	0.000475	20.693743
927.275606	-3.014300	3.664400	-11.045000	25.213985	0.000475	20.701077
928.275411	-2.978500	3.664200	-10.912000	25.222388	0.000478	20.689124
929.276381	-2.985400	3.662700	-10.934000	25.239089	0.000475	20.691667
930.275142	-3.005400	3.663400	-11.008000	25.239341	0.000475	20.678642
931.275495	-2.987300	3.663000	-10.941000	25.158474	0.000475	20.710307
932.276222	-3.005400	3.662200	-11.005000	25.134362	0.000474	20.706015
933.277638	-2.967400	3.664200	-10.871000	25.149752	0.000474	20.705819
934.276722	-2.987700	3.663400	-10.943000	25.214824	0.000475	20.705713
935.275043	-2.963500	3.663800	-10.857000	25.230718	0.000476	20.717403
936.275941	-2.966000	3.663000	-10.863000	25.236752	0.000473	20.697381
937.274698	-2.956900	3.663100	-10.830000	25.261188	0.000474	20.692517
938.276716	-2.992100	3.662000	-10.956000	25.258232	0.000474	20.718474
939.275569	-2.974000	3.662000	-10.889000	25.255643	0.000473	20.705917
940.277822	-2.979400	3.661900	-10.909000	25.228675	0.000473	20.696858
941.276601	-2.977000	3.661000	-10.898000	25.236361	0.000471	20.684659
942.277624	-3.007500	3.660500	-11.008000	25.223960	0.000472	20.698763
943.276597	-3.010100	3.659500	-11.015000	25.216917	0.000473	20.695959
944.276322	-2.991400	3.661100	-10.951000	25.228455	0.000470	20.713708
945.275431	-3.012300	3.658200	-11.018000	25.213741	0.000471	20.692296
946.278531	-2.996300	3.660000	-10.965000	25.214546	0.000472	20.704959
947.277172	-2.998500	3.659900	-10.973000	25.209336	0.000468	20.718221
948.277289	-2.985000	3.658500	-10.919000	25.234342	0.000469	20.685477
949.278645	-3.008400	3.658700	-11.006000	25.231320	0.000468	20.705205
950.278025	-2.992800	3.659200	-10.951000	25.247069	0.000471	20.718172
951.280045	-2.988400	3.659200	-10.934000	25.186218	0.000466	20.706391
952.277202	-3.013800	3.656900	-11.020000	25.182618	0.000467	20.726486
953.277617	-2.990900	3.657600	-10.938000	25.207699	0.000470	20.716578
954.277942	-3.017500	3.656100	-11.031000	25.229994	0.000468	20.706244
955.278322	-2.992600	3.656900	-10.943000	25.263501	0.000469	20.710961
956.279054	-3.014900	3.655700	-11.021000	25.303463	0.000468	20.699401
957.277093	-3.009700	3.656800	-11.004000	25.329331	0.000468	20.690760
958.282601	-3.012500	3.655900	-11.012000	25.346283	0.000467	20.696401
959.278728	-3.000500	3.655200	-10.966000	25.341186	0.000467	20.704560
960.281157	-2.982600	3.656700	-10.906000	25.334575	0.000465	20.698396
961.278245	-2.979300	3.654800	-10.888000	25.353782	0.000465	20.699189
962.279231	-3.010000	3.654000	-10.997000	25.313789	0.000466	20.705027
963.277630	-2.998800	3.654600	-10.958000	25.302780	0.000465	20.697293
964.279251	-2.987000	3.655200	-10.917000	25.323234	0.000465	20.716882
965.278257	-2.985900	3.655300	-10.912000	25.314432	0.000463	20.713260
966.279156	-3.002800	3.653200	-10.968000	25.311021	0.000463	20.709835
967.279059	-2.994800	3.652600	-10.938000	25.307446	0.000464	20.699607
968.280337	-2.997900	3.652100	-10.948000	25.332426	0.000464	20.697187
969.281338	-2.995800	3.652900	-10.942000	25.292677	0.000462	20.699477
970.282760	-3.010500	3.652600	-10.995000	25.275864	0.000463	20.713417
971.282599	-2.989700	3.653000	-10.921000	25.253048	0.000464	20.721331
972.283813	-2.999500	3.651800	-10.952000	25.286075	0.000463	20.709444
973.287659	-2.993300	3.652100	-10.931000	25.281247	0.000460	20.704596
974.284100	-2.997400	3.652400	-10.947000	25.243889	0.000462	20.718773
975.290165	-3.000200	3.651900	-10.956000	25.218826	0.000461	20.720637
976.285322	-2.984100	3.651500	-10.896000	25.232620	0.000461	20.710778
977.285945	-2.990500	3.651300	-10.918000	25.285856	0.000462	20.729615
978.286045	-2.992200	3.650100	-10.922000	25.313467	0.000461	20.730784
979.284895	-2.989500	3.652000	-10.917000	25.329572	0.000461	20.707124
980.283495	-3.006500	3.651200	-10.977000	25.301864	0.000458	20.726246
981.284873	-3.002300	3.649700	-10.957000	25.300408	0.000461	20.721939
982.286924	-3.019000	3.648400	-11.013000	25.297151	0.000458	20.741904
983.283506	-3.007300	3.649500	-10.975000	25.337414	0.000460	20.736811
984.284597	-2.995500	3.649300	-10.931000	25.379140	0.000459	20.731767
985.284313	-3.001300	3.648600	-10.949000	25.377797	0.000460	20.724727
986.286634	-3.005300	3.648800	-10.964000	25.413995	0.000458	20.743058
987.282807	-3.008500	3.649000	-10.977000	25.428389	0.000458	20.724319
988.288682	-3.004200	3.648800	-10.961000	25.464967	0.000459	20.724540
989.287374	-2.978500	3.648400	-10.865000	25.439315	0.000457	20.730076
990.285204	-3.003000	3.648400	-10.955000	25.397461	0.000457	20.747792
991.285822	-3.000500	3.647100	-10.943000	25.371066	0.000457	20.728400
992.287272	-3.010100	3.646700	-10.976000	25.341463	0.000455	20.710528
993.288115	-2.979600	3.647700	-10.868000	25.335788	0.000456	20.736127
994.285785	-3.006100	3.646300	-10.960000	25.344117	0.000455	20.727420
995.283784	-2.994300	3.646300	-10.917000	25.270097	0.000455	20.742242
996.287886	-2.993700	3.646200	-10.914000	25.248194	0.000454	20.732105
997.291480	-3.007000	3.645400	-10.961000	25.265871	0.000454	20.728990
998.290183	-3.005600	3.644700	-10.953000	25.260693	0.000454	20.734223
999.291518	-3.009200	3.643700	-10.963000	25.247942	0.000453	20.743706
1000.291357	-2.978100	3.645800	-10.857000	25.278989	0.000454	20.740738
1001.297071	-2.985300	3.644800	-10.880000	25.298352	0.000454	20.737419
1002.290751	-3.000500	3.645300	-10.937000	25.341602	0.000453	20.739593
1003.292760	-3.005700	3.643600	-10.950000	25.365727	0.000454	20.735367
1004.291175	-2.994100	3.643900	-10.910000	25.368039	0.000453	20.729154
1005.288977	-2.998300	3.643500	-10.923000	25.370725	0.000452	20.741809
1006.293004	-2.985900	3.642300	-10.874000	25.355492	0.000454	20.745006
1007.289476	-3.005200	3.643300	-10.948000	25.361029	0.000452	20.747246
1008.290523	-2.983200	3.643000	-10.867000	25.379096	0.000451	20.748318
1009.291250	-3.002100	3.641400	-10.931000	25.409968	0.000451	20.742333
1010.290616	-3.010300	3.641300	-10.960000	25.419485	0.000450	20.752364
1011.298934	-3.003600	3.641000	-10.935000	25.402087	0.000448	20.759076
1012.292788	-2.996800	3.640600	-10.909000	25.387473	0.000449	20.754359
1013.294017	-3.009900	3.640700	-10.957000	25.327305	0.000449	20.736618
1014.293102	-2.987400	3.641000	-10.877000	25.354792	0.000450	20.738139
1015.297235	-3.003600	3.641200	-10.935000	25.331548	0.000450	20.744197
1016.294052	-2.998300	3.640100	-10.913000	25.253357	0.000448	20.741082
1017.297104	-3.011200	3.639400	-10.958000	25.285324	0.000449	20.747573
1018.297912	-3.009000	3.639500	-10.951000	25.291855	0.000447	20.744173
1019.296700	-2.992100	3.640200	-10.891000	25.318528	0.000448	20.728753
1020.297082	-3.016500	3.637400	-10.971000	25.292726	0.000449	20.751212
1021.297406	-2.999500	3.638500	-10.912000	25.311437	0.000449	20.747239
1022.294842	-3.011000	3.638600	-10.955000	25.346879	0.000445	20.762437
1023.299592	-3.000300	3.639000	-10.917000	25.325157	0.000448	20.759118
1024.300525	-3.004700	3.638200	-10.931000	25.337598	0.000447	20.756911
1025.296849	-3.002400	3.638100	-10.922000	25.336091	0.000444	20.750656
1026.298121	-3.010800	3.637100	-10.950000	25.344322	0.000444	20.764611
1027.297179	-3.009500	3.636700	-10.944000	25.336059	0.000444	20.753943
1028.297419	-3.013000	3.636400	-10.955000	25.315729	0.000444	20.755816
1029.297532	-3.007300	3.636900	-10.937000	25.292882	0.000445	20.741885
1030.297331	-3.000900	3.636500	-10.912000	25.289080	0.000443	20.764621
1031.298983	-2.999900	3.636300	-10.906000	25.290880	0.000445	20.766903
1032.294699	-2.986200	3.635200	-10.855000	25.309624	0.000442	20.764859
1033.297136	-3.006200	3.634300	-10.924000	25.350170	0.000443	20.771905
1034.298401	-3.015800	3.635300	-10.962000	25.367431	0.000444	20.759365
1035.297637	-3.000600	3.634700	-10.905000	25.363972	0.000442	20.786238
1036.296738	-3.012800	3.633500	-10.946000	25.368799	0.000441	20.752204
1037.307085	-2.993100	3.635400	-10.879000	25.411339	0.000440	20.757935
1038.305139	-2.999700	3.634500	-10.901000	25.385466	0.000441	20.750447
1039.298615	-2.995800	3.633100	-10.883000	25.367123	0.000442	20.788928
1040.298597	-3.013800	3.632700	-10.947000	25.337593	0.000439	20.765915
1041.297605	-3.013400	3.632800	-10.945000	25.334018	0.000440	20.765171
1042.298263	-2.999000	3.632700	-10.894000	25.333668	0.000439	20.774777
1043.297399	-2.987500	3.633100	-10.852000	25.367987	0.000440	20.766561
1044.299023	-2.985600	3.632800	-10.845000	25.404388	0.000439	20.768974
1045.297950	-2.965200	3.632500	-10.769000	25.396124	0.000438	20.773003
1046.299903	-2.993900	3.632000	-10.873000	25.381265	0.000437	20.774204
1047.298817	-3.001900	3.631000	-10.899000	25.375241	0.000438	20.788545
1048.298898	-2.991200	3.631100	-10.860000	25.386997	0.000437	20.766684
1049.299289	-2.994000	3.630400	-10.868000	25.392542	0.000437	20.763716
1050.297539	-2.983800	3.631600	-10.835000	25.348283	0.000435	20.761476
1051.299961	-2.986800	3.630500	-10.843000	25.385011	0.000436	20.762792
1052.298587	-3.001900	3.629300	-10.893000	25.404200	0.000436	20.785854
1053.301696	-3.000600	3.629000	-10.888000	25.449636	0.000437	20.790228
1054.300164	-2.978400	3.629800	-10.810000	25.489347	0.000435	20.754240
1055.301611	-2.984900	3.630200	-10.835000	25.453812	0.000436	20.769765
1056.303039	-2.986800	3.629900	-10.840000	25.397117	0.000434	20.785854
1057.302781	-2.996600	3.629400	-10.874000	25.401626	0.000435	20.788012
1058.301328	-3.008100	3.627900	-10.912000	25.398940	0.000436	20.771089
1059.303616	-3.003400	3.628600	-10.897000	25.434721	0.000435	20.788053
1060.305945	-3.004000	3.627300	-10.896000	25.441511	0.000435	20.783965
1061.308389	-3.010800	3.627800	-10.922000	25.476851	0.000432	20.770141
1062.305183	-3.001800	3.627900	-10.889000	25.504562	0.000435	20.772839
1063.307435	-2.988600	3.627800	-10.841000	25.531051	0.000434	20.790432
1064.311052	-3.015000	3.626400	-10.933000	25.517985	0.000435	20.801492
1065.311003	-2.978700	3.625400	-10.798000	25.533615	0.000433	20.774514
1066.310722	-3.011400	3.624900	-10.915000	25.513239	0.000433	20.779656
1067.311753	-3.001200	3.626300	-10.883000	25.512767	0.000431	20.801467
1068.309562	-3.015800	3.623400	-10.927000	25.510357	0.000433	20.782452
1069.309967	-2.999100	3.624400	-10.869000	25.507329	0.000432	20.785575
1070.314894	-2.983400	3.625100	-10.814000	25.486382	0.000430	20.772600
1071.312449	-3.007100	3.623100	-10.894000	25.460088	0.000431	20.800249
1072.312484	-2.996500	3.623800	-10.858000	25.436958	0.000433	20.789351
1073.312785	-3.008800	3.622800	-10.899000	25.442128	0.000428	20.786481
1074.310641	-2.991200	3.623200	-10.836000	25.429102	0.000429	20.780988
1075.313507	-3.008300	3.623300	-10.899000	25.455275	0.000429	20.796365
1076.314539	-3.008500	3.622400	-10.897000	25.461267	0.000428	20.794321
1077.313816	-3.007200	3.622200	-10.891000	25.426333	0.000426	20.788164
1078.313350	-2.988500	3.622800	-10.825000	25.408984	0.000429	20.805357
1079.317316	-2.978700	3.623500	-10.793000	25.434629	0.000428	20.797444
1080.316249	-2.964000	3.623000	-10.737000	25.454500	0.000427	20.787526
1081.314687	-2.992000	3.622600	-10.839000	25.445651	0.000425	20.781485
1082.318253	-2.980400	3.620800	-10.789000	25.433700	0.000425	20.798881
1083.311579	-3.003700	3.621400	-10.877000	25.462804	0.000425	20.773105
1084.313285	-3.011200	3.619300	-10.898000	25.419363	0.000424	20.798709
1085.313294	-2.981800	3.619300	-10.791000	25.414844	0.000424	20.803180
1086.313721	-2.990900	3.619700	-10.825000	25.431899	0.000427	20.801815
1087.315646	-2.990600	3.619000	-10.822000	25.462966	0.000426	20.796027
1088.316320	-3.016500	3.619000	-10.915000	25.472336	0.000424	20.809229
1089.317472	-2.991600	3.619800	-10.828000	25.433666	0.000422	20.793631
1090.317383	-2.992300	3.619700	-10.830000	25.427038	0.000423	20.795985
1091.319149	-3.001500	3.618400	-10.860000	25.449182	0.000423	20.794039
1092.319067	-3.002000	3.617900	-10.860000	25.438769	0.000423	20.783109
1093.318133	-2.984700	3.617700	-10.797000	25.424660	0.000422	20.798813
1094.319596	-2.992100	3.617800	-10.824000	25.475110	0.000422	20.812490
1095.318791	-2.976300	3.617000	-10.764000	25.495714	0.000421	20.805680
1096.319063	-2.986000	3.617000	-10.800000	25.537915	0.000421	20.798747
1097.319444	-2.989100	3.617100	-10.812000	25.551387	0.000423	20.795207
1098.322143	-2.988300	3.616500	-10.806000	25.515112	0.000421	20.800029
1099.317579	-2.994600	3.616100	-10.828000	25.489714	0.000421	20.817197
1100.318733	-2.982100	3.616100	-10.783000	25.441412	0.000421	20.808523
1101.319447	-3.011400	3.614900	-10.884000	25.448422	0.000421	20.786164
1102.318613	-2.992700	3.615700	-10.820000	25.439255	0.000421	20.797347
1103.317761	-3.018200	3.614600	-10.909000	25.497658	0.000421	20.802889
1104.318887	-2.994100	3.613900	-10.819000	25.495989	0.000420	20.815438
1105.318860	-3.011800	3.613600	-10.883000	25.520370	0.000418	20.809577
1106.333336	-3.009500	3.613900	-10.874000	25.521892	0.000418	20.824381
1107.321085	-3.008100	3.613300	-10.867000	25.471916	0.000418	20.808334
1108.322324	-3.018200	3.613300	-10.905000	25.460112	0.000416	20.823980
1109.319641	-2.990000	3.613300	-10.803000	25.519563	0.000418	20.818249
1110.319713	-3.000800	3.612500	-10.839000	25.466079	0.000416	20.809584
1111.323355	-3.013600	3.611500	-10.883000	25.468227	0.000416	20.823595
1112.319203	-3.000100	3.610400	-10.830000	25.478412	0.000414	20.810589
1113.319972	-3.018500	3.611100	-10.899000	25.511813	0.000415	20.824217
1114.320614	-3.008200	3.612200	-10.866000	25.519864	0.000414	20.816655
1115.323880	-3.005600	3.611100	-10.852000	25.490248	0.000414	20.827216
1116.321659	-2.988100	3.611400	-10.791000	25.521019	0.000414	20.809754
1117.330752	-2.997200	3.610800	-10.821000	25.540003	0.000415	20.816016
1118.322912	-3.028800	3.609700	-10.932000	25.545539	0.000414	20.812567
1119.322909	-3.011500	3.608900	-10.867000	25.502898	0.000413	20.832334
1120.324496	-2.992900	3.610300	-10.804000	25.495792	0.000412	20.815714
1121.324257	-3.021400	3.608000	-10.900000	25.458172	0.000415	20.829145
1122.323035	-3.016100	3.607700	-10.880000	25.465580	0.000412	20.834687
1123.322176	-3.015200	3.608600	-10.879000	25.504127	0.000411	20.806067
1124.324893	-2.995000	3.609600	-10.810000	25.508897	0.000412	20.821289
1125.325194	-2.990000	3.609100	-10.790000	25.538789	0.000413	20.825703
1126.323513	-3.024400	3.607500	-10.910000	25.536184	0.000413	20.819768
1127.327082	-3.003700	3.606600	-10.832000	25.570829	0.000410	20.818051
1128.322918	-3.004000	3.606000	-10.831000	25.605619	0.000412	20.833076
1129.323651	-3.034600	3.605900	-10.942000	25.559767	0.000409	20.826856
1130.328932	-3.003900	3.606700	-10.833000	25.561744	0.000411	20.826944
1131.325836	-3.011900	3.605900	-10.860000	25.501935	0.000412	20.816194
1132.325296	-2.984200	3.606200	-10.761000	25.535426	0.000410	20.825171
1133.330186	-3.012800	3.605300	-10.861000	25.564080	0.000409	20.820756
1134.325878	-3.019900	3.604600	-10.885000	25.580604	0.000408	20.825972
1135.327127	-3.001600	3.604800	-10.818000	25.600857	0.000410	20.835879
1136.329446	-3.006200	3.605300	-10.837000	25.569704	0.000409	20.827827
1137.326669	-3.011500	3.603000	-10.850000	25.570991	0.000407	20.819636
1138.326881	-2.995900	3.604500	-10.798000	25.590128	0.000407	20.848811
1139.329638	-2.991800	3.605400	-10.785000	25.565545	0.000408	20.843090
1140.328239	-3.016800	3.603900	-10.872000	25.578731	0.000407	20.832625
1141.328183	-2.990100	3.602900	-10.772000	25.551218	0.000407	20.839132
1142.331952	-3.004100	3.603200	-10.823000	25.509994	0.000406	20.838511
1143.328189	-3.018600	3.602100	-10.873000	25.534294	0.000405	20.833990
1144.332227	-3.001200	3.602000	-10.809000	25.562174	0.000405	20.824058
1145.334371	-2.997600	3.602700	-10.799000	25.606757	0.000404	20.830900
1146.331814	-2.981100	3.601600	-10.735000	25.612667	0.000403	20.854378
1147.332226	-2.980300	3.602300	-10.734000	25.644469	0.000405	20.860240
1148.331822	-3.002700	3.601800	-10.814000	25.657142	0.000405	20.841675
1149.333688	-2.998600	3.602300	-10.801000	25.594979	0.000404	20.832347
1150.331243	-2.997300	3.600400	-10.791000	25.621361	0.000400	20.856945
1151.335684	-2.989800	3.600900	-10.766000	25.628963	0.000403	20.867899
1152.334105	-2.997900	3.600100	-10.792000	25.650166	0.000402	20.833720
1153.335211	-3.016900	3.599100	-10.856000	25.674072	0.000402	20.850143
1154.338675	-3.022500	3.599100	-10.877000	25.699092	0.000402	20.844928
1155.334379	-2.999300	3.600000	-10.796000	25.648904	0.000402	20.841936
1156.338372	-3.002800	3.599400	-10.807000	25.645071	0.000401	20.832396
1157.338578	-3.011700	3.598000	-10.835000	25.663214	0.000401	20.830229
1158.335932	-3.019500	3.598000	-10.863000	25.708264	0.000398	20.839442
1159.335405	-3.010000	3.597000	-10.826000	25.725804	0.000399	20.848050
1160.339101	-3.007000	3.597200	-10.816000	25.691969	0.000401	20.827343
1161.335722	-2.990600	3.597600	-10.758000	25.704194	0.000398	20.855742
1162.337051	-2.997200	3.596500	-10.779000	25.701044	0.000399	20.824604
1163.338889	-2.977500	3.596300	-10.707000	25.670310	0.000397	20.825029
1164.333572	-3.010400	3.597600	-10.829000	25.571518	0.000400	20.816372
1165.338437	-3.015100	3.594900	-10.837000	25.534177	0.000396	20.829132
1166.338900	-3.026400	3.596300	-10.883000	25.501273	0.000397	20.823116
1167.335819	-3.018400	3.595000	-10.850000	25.460594	0.000396	20.802179
1168.335379	-2.989500	3.596400	-10.750000	25.456107	0.000396	20.809528
1169.339077	-3.022300	3.593400	-10.859000	25.463540	0.000394	20.792336
1170.336510	-2.983500	3.596100	-10.728000	25.498512	0.000395	20.817498
1171.338373	-2.994700	3.595300	-10.767000	25.475596	0.000394	20.827676
1172.339978	-2.997500	3.595400	-10.775000	25.477908	0.000392	20.822885
1173.336987	-2.991100	3.592500	-10.744000	25.493473	0.000393	20.833299
1174.337806	-2.987900	3.594000	-10.738000	25.531920	0.000394	20.806477
1175.339960	-2.995200	3.594200	-10.764000	25.547224	0.000395	20.823269
1176.337510	-3.001300	3.593800	-10.785000	25.566687	0.000394	20.800141
1177.337466	-3.021500	3.591800	-10.852000	25.509607	0.000396	20.820105
1178.342581	-3.001400	3.591400	-10.778000	25.501524	0.000392	20.809143
1179.341013	-3.037700	3.590800	-10.905000	25.497257	0.000391	20.793005
1180.341523	-3.000600	3.591300	-10.776000	25.520564	0.000392	20.798866
1181.341979	-2.989200	3.592400	-10.736000	25.526678	0.000390	20.806902
1182.341348	-2.967600	3.591800	-10.658000	25.529486	0.000392	20.816361
1183.341026	-3.020900	3.588500	-10.840000	25.555185	0.000392	20.803289
1184.341099	-2.997000	3.590800	-10.761000	25.574885	0.000391	20.807900
1185.348014	-2.965900	3.591900	-10.652000	25.532498	0.000390	20.808954
1186.343278	-3.012400	3.589700	-10.813000	25.525758	0.000390	20.785590
1187.347924	-3.011600	3.589200	-10.809000	25.571189	0.000390	20.811300
1188.341565	-3.007400	3.589600	-10.794000	25.563488	0.000389	20.805463
1189.341810	-3.023400	3.587500	-10.846000	25.610553	0.000388	20.786824
1190.341234	-2.998500	3.588400	-10.759000	25.642925	0.000387	20.793258
1191.343116	-3.002600	3.588000	-10.773000	25.629910	0.000386	20.792513
1192.343783	-3.016700	3.587400	-10.821000	25.675630	0.000387	20.818518
1193.344320	-2.991000	3.588000	-10.730000	25.613704	0.000389	20.805635
1194.343446	-2.981200	3.588900	-10.697000	25.647955	0.000387	20.794042
1195.342399	-3.000800	3.587500	-10.764000	25.596178	0.000387	20.780446
1196.343981	-3.004300	3.586100	-10.772000	25.540491	0.000384	20.782842
1197.343194	-3.012800	3.586500	-10.805000	25.540344	0.000384	20.783168
1198.345220	-2.994900	3.586700	-10.741000	25.518080	0.000385	20.789259
1199.344187	-2.995300	3.586300	-10.741000	25.517607	0.000385	20.789259
1200.347964	-3.004200	3.584300	-10.767000	25.590845	0.000382	20.783626
1201.346924	-2.990100	3.585100	-10.719000	25.538659	0.000381	20.805658
1202.347017	-2.990400	3.584400	-10.718000	25.505396	0.000383	20.803548
1203.349412	-2.995400	3.585000	-10.738000	25.460816	0.000383	20.783911
1204.347435	-2.986600	3.585100	-10.706000	25.521652	0.000383	20.796165
1205.346051	-2.991800	3.583200	-10.719000	25.551576	0.000381	20.783069
1206.347883	-2.989600	3.583800	-10.713000	25.578813	0.000381	20.781025
1207.349690	-2.992800	3.583500	-10.723000	25.604486	0.000383	20.787842
1208.353661	-2.976200	3.583900	-10.665000	25.630208	0.000383	20.790442
1209.352469	-2.972100	3.583500	-10.650000	25.594897	0.000379	20.804290
1210.349699	-2.981500	3.582800	-10.681000	25.628515	0.000380	20.789690
1211.353811	-2.980500	3.582700	-10.677000	25.635384	0.000381	20.783313
1212.354301	-3.025800	3.581200	-10.835000	25.642490	0.000380	20.783811
1213.352121	-2.997400	3.581000	-10.732000	25.625641	0.000380	20.807192
1214.356152	-3.023900	3.579900	-10.824000	25.653226	0.000378	20.777050
1215.355173	-3.003000	3.581200	-10.754000	25.619235	0.000379	20.783688
1216.351883	-3.001000	3.580500	-10.744000	25.614717	0.000378	20.754494
1217.353457	-2.995700	3.580100	-10.724000	25.653405	0.000377	20.786713
1218.353580	-3.005800	3.580300	-10.760000	25.643239	0.000377	20.776028
1219.351125	-3.029200	3.579100	-10.841000	25.598225	0.000379	20.778235
1220.353531	-2.988900	3.579600	-10.699000	25.625558	0.000378	20.788617
1221.355301	-2.974600	3.579500	-10.647000	25.655203	0.000376	20.770027
1222.352395	-3.019400	3.578700	-10.804000	25.668544	0.000376	20.781529
1223.354172	-3.019500	3.579000	-10.806000	25.667558	0.000374	20.763944
1224.355822	-2.988900	3.578800	-10.695000	25.618264	0.000376	20.777498
1225.353361	-2.988500	3.577600	-10.691000	25.598834	0.000374	20.783589
1226.355582	-2.997400	3.577800	-10.723000	25.576278	0.000374	20.778479
1227.356644	-3.007200	3.577100	-10.757000	25.601944	0.000373	20.775332
1228.352703	-2.994300	3.576200	-10.708000	25.644238	0.000373	20.753798
1229.358982	-2.993300	3.576500	-10.704000	25.623375	0.000373	20.786899
1230.356157	-3.004300	3.575100	-10.740000	25.599378	0.000373	20.772281
1231.355274	-2.988100	3.576600	-10.686000	25.569952	0.000372	20.771178
1232.357607	-2.972000	3.576700	-10.629000	25.597514	0.000372	20.778944
1233.360715	-2.993000	3.575600	-10.702000	25.611832	0.000372	20.754442
1234.357342	-2.997800	3.574700	-10.715000	25.606150	0.000371	20.777185
1235.355956	-2.978900	3.576000	-10.651000	25.645880	0.000372	20.764457
1236.356866	-3.004300	3.573200	-10.734000	25.631106	0.000372	20.775223
1237.357412	-2.994400	3.574300	-10.702000	25.681539	0.000371	20.770400
1238.358655	-2.993500	3.574100	-10.698000	25.737674	0.000369	20.758030
1239.358953	-2.993400	3.574000	-10.698000	25.744283	0.000370	20.746650
1240.358927	-2.989300	3.573800	-10.682000	25.765924	0.000368	20.738515
1241.359489	-2.979400	3.573100	-10.645000	25.700787	0.000370	20.748481
1242.360473	-3.003700	3.573100	-10.732000	25.657836	0.000369	20.754653
1243.363446	-2.996400	3.572100	-10.702000	25.641882	0.000368	20.774666
1244.362398	-2.991200	3.572600	-10.686000	25.676817	0.000370	20.767079
1245.362072	-3.006800	3.571600	-10.738000	25.689644	0.000367	20.757203
1246.360663	-2.996400	3.570800	-10.699000	25.710146	0.000370	20.764994
1247.361857	-2.971400	3.572300	-10.614000	25.685371	0.000369	20.782309
1248.360322	-2.978100	3.571200	-10.635000	25.656826	0.000366	20.730878
1249.361836	-2.985200	3.570500	-10.658000	25.643517	0.000366	20.759238
1250.363716	-2.992000	3.570500	-10.682000	25.662149	0.000366	20.752346
1251.362438	-2.970100	3.570300	-10.602000	25.640464	0.000367	20.772768
1252.363736	-3.012500	3.569400	-10.752000	25.598772	0.000366	20.758396
1253.362634	-2.992300	3.568600	-10.678000	25.554148	0.000364	20.754831
1254.361916	-2.992200	3.568000	-10.675000	25.554473	0.000363	20.773176
1255.362651	-3.022000	3.568100	-10.782000	25.555589	0.000362	20.751536
1256.363642	-2.987100	3.568900	-10.660000	25.603526	0.000363	20.749419
1257.375119	-2.990100	3.566900	-10.665000	25.645030	0.000363	20.756490
1258.364409	-3.007400	3.566600	-10.725000	25.642099	0.000364	20.748805
1259.364414	-2.985000	3.567200	-10.646000	25.638469	0.000362	20.756539
1260.367691	-3.008700	3.566300	-10.729000	25.650101	0.000361	20.762531
1261.366787	-3.013200	3.565200	-10.741000	25.711381	0.000363	20.758173
1262.367193	-3.000800	3.566400	-10.700000	25.717966	0.000362	20.744398
1263.366698	-2.987300	3.566100	-10.652000	25.736359	0.000362	20.744855
1264.366432	-2.997800	3.565800	-10.689000	25.746142	0.000363	20.752786
1265.366065	-3.012100	3.564200	-10.734000	25.710941	0.000362	20.765792
1266.363497	-2.988300	3.565600	-10.654000	25.677546	0.000360	20.742681
1267.365545	-3.008500	3.563400	-10.720000	25.660184	0.000362	20.736622
1268.364848	-3.001700	3.562800	-10.694000	25.661405	0.000359	20.736426
1269.365350	-2.984600	3.565000	-10.639000	25.654950	0.000358	20.752229
1270.364929	-3.011900	3.562500	-10.729000	25.605347	0.000360	20.754093
1271.367193	-3.007600	3.564000	-10.718000	25.557744	0.000359	20.743269
1272.368261	-3.010500	3.562400	-10.724000	25.566739	0.000359	20.736655
1273.367414	-2.995300	3.561700	-10.667000	25.566486	0.000358	20.737824
1274.368393	-2.996500	3.562800	-10.675000	25.553348	0.000356	20.754976
1275.368577	-3.017000	3.562200	-10.746000	25.554935	0.000359	20.745190
1276.368300	-3.004400	3.561900	-10.701000	25.534210	0.000355	20.733859
1277.367589	-3.017200	3.560800	-10.743000	25.564826	0.000358	20.742794
1278.367513	-3.011300	3.560400	-10.721000	25.556677	0.000354	20.740301
1279.370554	-3.003900	3.561400	-10.696000	25.578265	0.000357	20.724997
1280.367918	-3.006600	3.560800	-10.705000	25.598045	0.000357	20.734905
1281.368382	-2.997500	3.560600	-10.672000	25.637198	0.000355	20.747202
1282.369144	-2.990400	3.560400	-10.646000	25.660786	0.000354	20.741020
1283.368089	-2.993600	3.559800	-10.656000	25.612901	0.000354	20.722797
1284.368282	-2.984100	3.560000	-10.622000	25.605934	0.000354	20.744251
1285.368491	-2.994200	3.560000	-10.659000	25.589141	0.000355	20.714581
1286.368068	-2.990700	3.558700	-10.642000	25.621741	0.000355	20.745902
1287.367215	-2.985800	3.559700	-10.628000	25.617981	0.000355	20.735961
1288.367507	-2.983200	3.558500	-10.615000	25.628636	0.000355	20.726747
1289.372047	-3.000300	3.558300	-10.675000	25.638892	0.000354	20.735626
1290.370728	-3.008400	3.558000	-10.702000	25.636850	0.000354	20.739739
1291.371797	-3.022800	3.557300	-10.751000	25.675309	0.000353	20.736640
1292.369979	-2.994900	3.557400	-10.653000	25.675725	0.000351	20.751283
1293.371062	-3.014600	3.555500	-10.717000	25.677556	0.000351	20.747433
1294.375282	-2.997400	3.556700	-10.660000	25.623013	0.000349	20.744809
1295.372195	-2.997300	3.555300	-10.656000	25.666984	0.000351	20.727330
1296.371253	-3.013200	3.555200	-10.712000	25.644397	0.000353	20.751113
1297.370508	-3.026500	3.554300	-10.756000	25.620890	0.000350	20.722286
1298.372499	-3.002500	3.555100	-10.673000	25.636860	0.000352	20.737378
1299.369458	-2.988300	3.554400	-10.621000	25.631170	0.000349	20.731664
1300.370355	-3.001400	3.554900	-10.669000	25.607305	0.000347	20.739938
1301.370764	-3.025200	3.551600	-10.743000	25.619873	0.000348	20.744974
1302.371024	-3.005700	3.553600	-10.680000	25.617310	0.000347	20.733390
1303.373698	-2.983200	3.554000	-10.601000	25.649258	0.000348	20.745563
1304.373839	-3.004500	3.553500	-10.675000	25.707650	0.000347	20.733088
1305.375759	-2.985100	3.553700	-10.608000	25.705908	0.000347	20.737028
1306.375077	-2.994300	3.551300	-10.633000	25.696386	0.000349	20.763501
1307.373730	-2.988600	3.550900	-10.612000	25.734420	0.000347	20.740536
1308.373527	-3.003000	3.551100	-10.663000	25.736381	0.000348	20.751042
1309.373283	-2.968900	3.551600	-10.544000	25.731433	0.000345	20.755555
1310.373085	-2.988500	3.551600	-10.613000	25.701864	0.000345	20.730121
1311.374899	-2.985300	3.552700	-10.605000	25.733094	0.000345	20.737308
1312.373563	-2.977100	3.551100	-10.570000	25.762654	0.000344	20.718161
1313.376842	-3.007900	3.550200	-10.678000	25.738360	0.000344	20.739278
1314.376943	-2.988500	3.551300	-10.612000	25.760228	0.000342	20.726156
1315.375341	-2.989500	3.550200	-10.612000	25.724019	0.000344	20.719657
1316.378059	-2.983000	3.550200	-10.590000	25.688272	0.000343	20.740177
1317.375362	-2.986900	3.549300	-10.600000	25.684732	0.000342	20.728560
1318.375562	-2.990900	3.547700	-10.610000	25.667590	0.000344	20.722723
1319.376209	-3.007600	3.547600	-10.669000	25.653648	0.000344	20.732428
1320.375898	-2.996000	3.548400	-10.630000	25.626542	0.000340	20.736499
1321.376890	-2.981700	3.547700	-10.577000	25.606063	0.000340	20.732052
1322.377605	-2.993600	3.547500	-10.619000	25.579844	0.000339	20.722789
1323.378446	-2.997700	3.548200	-10.636000	25.588969	0.000338	20.738592
1324.376607	-2.972400	3.547200	-10.543000	25.598533	0.000340	20.715954
1325.377313	-2.987000	3.546300	-10.592000	25.637816	0.000338	20.724113
1326.379205	-2.999700	3.546100	-10.636000	25.636596	0.000340	20.716249
1327.374830	-2.967600	3.546900	-10.524000	25.647454	0.000338	20.723361
1328.378313	-2.988300	3.544700	-10.592000	25.667127	0.000337	20.712774
1329.379605	-2.983500	3.546400	-10.580000	25.701614	0.000338	20.728921
1330.382398	-2.991500	3.545500	-10.605000	25.720350	0.000338	20.733516
1331.379167	-3.022400	3.544100	-10.711000	25.712439	0.000338	20.734579
1332.377470	-2.979200	3.543300	-10.556000	25.754306	0.000338	20.742019
1333.379554	-2.996000	3.543500	-10.616000	25.744897	0.000338	20.731145
1334.377474	-3.011000	3.543000	-10.667000	25.716622	0.000337	20.707959
1335.385013	-2.998600	3.542800	-10.622000	25.676464	0.000336	20.709823
1336.378793	-2.970500	3.543600	-10.526000	25.643278	0.000337	20.739083
1337.379011	-2.988100	3.542600	-10.585000	25.680573	0.000337	20.723909
1338.379299	-2.990900	3.543200	-10.597000	25.735456	0.000335	20.724506
1339.379152	-2.980800	3.541700	-10.556000	25.749544	0.000334	20.726803
1340.379311	-2.988300	3.541700	-10.583000	25.712723	0.000335	20.710207
1341.384295	-2.977900	3.542500	-10.549000	25.709565	0.000330	20.698499
1342.381447	-3.009700	3.540400	-10.654000	25.718412	0.000333	20.720664
1343.379825	-3.002200	3.539500	-10.625000	25.740201	0.000334	20.723108
1344.383615	-2.998700	3.538600	-10.610000	25.735732	0.000331	20.712455
1345.381095	-2.996300	3.540700	-10.608000	25.678384	0.000333	20.719339
1346.382045	-2.999500	3.540000	-10.617000	25.710908	0.000334	20.720238
1347.380958	-3.006900	3.538800	-10.640000	25.748274	0.000334	20.719838
1348.381011	-3.001300	3.538500	-10.619000	25.736481	0.000331	20.708939
1349.382920	-3.003500	3.539100	-10.629000	25.766863	0.000332	20.695360
1350.382688	-2.971600	3.540000	-10.519000	25.761467	0.000331	20.723607
1351.386117	-2.998800	3.539300	-10.613000	25.758530	0.000330	20.715914
1352.384042	-3.003700	3.537500	-10.624000	25.788080	0.000330	20.704819
1353.384506	-2.982700	3.537200	-10.550000	25.782986	0.000329	20.702072
1354.386261	-3.027600	3.537100	-10.708000	25.798066	0.000327	20.692089
1355.385564	-3.019200	3.536500	-10.677000	25.753817	0.000329	20.696954
1356.385836	-3.000700	3.536400	-10.611000	25.735211	0.000329	20.711458
1357.386223	-3.002500	3.535100	-10.614000	25.752442	0.000328	20.699367
1358.385812	-3.007700	3.536300	-10.636000	25.764471	0.000325	20.699595
1359.386037	-2.995500	3.535800	-10.591000	25.757243	0.000326	20.699448
1360.388576	-2.979200	3.536600	-10.534000	25.795755	0.000326	20.687397
1361.384931	-3.018000	3.534200	-10.665000	25.803300	0.000328	20.706831
1362.387247	-3.004200	3.533600	-10.615000	25.769541	0.000328	20.705637
1363.385291	-2.980900	3.534000	-10.533000	25.743652	0.000325	20.695753
1364.387737	-3.023000	3.533500	-10.680000	25.733193	0.000326	20.709905
1365.387510	-3.008700	3.532200	-10.626000	25.698187	0.000327	20.696079
1366.390586	-2.996700	3.532300	-10.584000	25.710982	0.000326	20.707035
1367.389416	-3.013700	3.531400	-10.642000	25.751107	0.000325	20.682851
1368.391280	-3.000800	3.533400	-10.602000	25.789839	0.000327	20.690937
1369.395073	-3.011700	3.530400	-10.632000	25.847474	0.000324	20.684347
1370.389904	-3.020300	3.533100	-10.671000	25.772202	0.000323	20.683178
1371.395108	-2.994500	3.530900	-10.573000	25.779706	0.000324	20.700200
1372.393884	-3.027500	3.530600	-10.688000	25.770485	0.000324	20.699472
1373.390570	-3.018400	3.530200	-10.655000	25.799157	0.000323	20.689866
1374.395342	-3.013800	3.529800	-10.638000	25.808313	0.000324	20.689106
1375.395211	-2.993400	3.529900	-10.566000	25.840744	0.000322	20.706512
1376.392613	-3.004700	3.529200	-10.603000	25.853415	0.000322	20.696006
1377.394085	-2.991000	3.529400	-10.555000	25.788545	0.000323	20.700544
1378.393466	-2.996700	3.528700	-10.574000	25.801884	0.000322	20.685492
1379.391526	-2.988800	3.528800	-10.546000	25.778355	0.000323	20.690308
1380.394168	-2.993400	3.528800	-10.562000	25.788862	0.000319	20.677627
1381.396225	-2.992600	3.529000	-10.560000	25.741145	0.000320	20.686121
1382.392655	-3.004600	3.527300	-10.596000	25.743123	0.000319	20.676254
1383.398843	-3.014000	3.527700	-10.632000	25.741690	0.000321	20.686669
1384.398683	-3.001700	3.526500	-10.584000	25.782831	0.000319	20.677259
1385.396047	-3.017200	3.526800	-10.641000	25.818747	0.000319	20.690104
1386.400002	-2.999500	3.526300	-10.576000	25.865679	0.000320	20.693627
1387.398404	-3.001600	3.526300	-10.584000	25.841411	0.000317	20.682998
1388.394606	-2.997600	3.526000	-10.569000	25.771698	0.000321	20.682197
1389.402314	-2.999900	3.526200	-10.577000	25.771502	0.000319	20.693856
1390.399307	-2.984000	3.526300	-10.522000	25.767107	0.000318	20.672844
1391.396342	-2.995200	3.524200	-10.555000	25.749316	0.000320	20.669197
1392.398504	-2.984300	3.524800	-10.519000	25.766929	0.000320	20.680251
1393.397925	-2.988800	3.525300	-10.536000	25.708394	0.000317	20.684519
1394.397069	-3.014300	3.524200	-10.622000	25.699009	0.000315	20.692637
1395.397891	-3.003400	3.523600	-10.582000	25.740054	0.000317	20.683129
1396.397936	-2.991000	3.524600	-10.541000	25.669097	0.000314	20.677765
1397.396390	-2.987700	3.524100	-10.528000	25.663505	0.000314	20.676890
1398.397513	-2.995300	3.522300	-10.549000	25.651108	0.000313	20.698107
1399.398187	-3.005100	3.522200	-10.583000	25.659883	0.000314	20.679891
1400.398928	-2.994300	3.521500	-10.544000	25.665198	0.000314	20.691868
1401.399924	-2.997600	3.521000	-10.553000	25.699838	0.000314	20.677348
1402.399961	-2.981700	3.522500	-10.502000	25.698870	0.000314	20.677797
1403.401183	-2.967400	3.521500	-10.448000	25.720446	0.000315	20.677184
1404.403147	-3.005700	3.520500	-10.580000	25.727201	0.000313	20.681599
1405.400014	-2.986400	3.521300	-10.515000	25.783717	0.000313	20.686684
1406.397924	-3.033200	3.518400	-10.670000	25.772689	0.000313	20.684616
1407.399541	-3.000000	3.519300	-10.557000	25.773714	0.000311	20.686594
1408.400493	-3.002100	3.519400	-10.565000	25.758788	0.000313	20.687722
1409.399775	-3.027900	3.518600	-10.653000	25.738994	0.000312	20.668786
1410.399850	-3.023000	3.518100	-10.634000	25.733329	0.000310	20.685383
1411.401670	-3.000900	3.517400	-10.553000	25.728364	0.000311	20.690354
1412.399746	-3.011400	3.518300	-10.593000	25.749785	0.000310	20.689111
1413.399689	-2.987100	3.517600	-10.506000	25.738513	0.000312	20.675890
1414.401441	-2.976300	3.518500	-10.471000	25.741369	0.000311	20.676389
1415.399536	-2.986200	3.516000	-10.499000	25.799259	0.000308	20.674794
1416.399564	-2.987100	3.516800	-10.504000	25.786718	0.000309	20.679740
1417.402079	-3.013300	3.515300	-10.592000	25.743087	0.000310	20.704669
1418.401477	-2.999600	3.515000	-10.542000	25.736412	0.000309	20.687058
1419.401286	-2.981600	3.515300	-10.480000	25.719499	0.000307	20.682871
1420.407600	-3.016700	3.514900	-10.603000	25.762163	0.000310	20.680680
1421.403546	-3.012500	3.515000	-10.588000	25.781744	0.000308	20.677115
1422.402535	-2.992700	3.514200	-10.517000	25.781402	0.000307	20.682462
1423.404154	-2.993400	3.514000	-10.517000	25.800780	0.000307	20.688651
1424.404710	-3.008500	3.513700	-10.570000	25.810122	0.000307	20.680491
1425.403594	-2.979300	3.514100	-10.469000	25.862768	0.000307	20.684538
1426.405206	-2.994700	3.512500	-10.518000	25.870198	0.000307	20.688209
1427.402853	-2.982800	3.512000	-10.475000	25.884015	0.000305	20.683123
1428.402669	-3.008700	3.513600	-10.570000	25.870335	0.000304	20.688347
1429.406295	-2.987700	3.513500	-10.497000	25.901804	0.000304	20.687718
1430.405358	-3.024000	3.511900	-10.618000	25.881622	0.000305	20.685460
1431.404156	-3.009100	3.510700	-10.563000	25.853107	0.000304	20.693800
1432.405981	-2.993300	3.511300	-10.510000	25.832802	0.000306	20.669608
1433.403957	-3.003000	3.511300	-10.543000	25.829611	0.000303	20.689638
1434.408099	-3.005000	3.510400	-10.548000	25.866998	0.000302	20.667923
1435.406847	-2.994500	3.510000	-10.510000	25.864100	0.000302	20.675444
1436.407391	-2.993600	3.510300	-10.507000	25.853822	0.000303	20.666066
1437.405847	-2.982200	3.509500	-10.464000	25.849850	0.000303	20.667292
1438.406020	-2.993100	3.509100	-10.502000	25.840019	0.000302	20.670693
1439.405852	-2.993500	3.508100	-10.501000	25.833956	0.000299	20.669818
1440.410345	-2.985100	3.508200	-10.471000	25.832239	0.000302	20.678526
1441.407423	-2.990400	3.507100	-10.486000	25.845764	0.000302	20.664136
1442.408479	-2.976000	3.508900	-10.441000	25.849971	0.000301	20.689701
1443.406063	-2.989600	3.507800	-10.486000	25.840458	0.000299	20.699586
1444.406266	-2.989500	3.507200	-10.484000	25.839790	0.000300	20.673308
1445.406369	-2.994100	3.506500	-10.498000	25.831098	0.000300	20.683070
1446.406056	-3.003700	3.506800	-10.532000	25.837836	0.000298	20.668975
1447.406773	-2.995700	3.505800	-10.501000	25.823334	0.000300	20.664837
1448.406390	-3.006200	3.504600	-10.534000	25.785792	0.000297	20.693036
1449.407830	-3.020500	3.504800	-10.585000	25.815537	0.000297	20.676447
1450.407307	-2.989700	3.505400	-10.479000	25.781551	0.000300	20.685931
1451.409291	-3.012800	3.504800	-10.558000	25.767414	0.000296	20.673152
1452.409063	-3.005000	3.504700	-10.531000	25.775919	0.000296	20.662727
1453.412452	-2.972800	3.505400	-10.421000	25.778181	0.000295	20.673062
1454.411521	-2.993700	3.503600	-10.488000	25.799829	0.000296	20.682954
1455.410278	-2.994100	3.502900	-10.487000	25.847349	0.000296	20.677108
1456.412315	-2.980800	3.504600	-10.446000	25.850954	0.000296	20.675514
1457.411521	-3.002900	3.502800	-10.518000	25.847381	0.000296	20.683780
1458.411114	-2.984500	3.501900	-10.451000	25.822690	0.000295	20.678416
1459.410727	-3.002400	3.502300	-10.514000	25.817945	0.000295	20.694989
1460.413194	-3.002400	3.501800	-10.513000	25.788459	0.000295	20.686232
1461.411848	-2.995100	3.501200	-10.486000	25.791747	0.000296	20.694277
1462.415878	-3.011100	3.499200	-10.536000	25.799275	0.000293	20.681923
1463.413709	-2.982900	3.500800	-10.441000	25.754407	0.000294	20.690908
1464.409930	-2.974700	3.502300	-10.417000	25.765687	0.000295	20.693230
1465.412831	-3.008500	3.499900	-10.529000	25.799381	0.000293	20.668277
1466.415521	-2.984100	3.500900	-10.446000	25.838216	0.000295	20.651810
1467.413977	-2.996200	3.498600	-10.482000	25.838737	0.000294	20.674147
1468.420453	-2.986700	3.499700	-10.451000	25.869214	0.000293	20.696230
1469.418462	-3.008200	3.497600	-10.520000	25.832552	0.000292	20.685479
1470.413494	-3.007500	3.498000	-10.520000	25.834074	0.000290	20.677049
1471.420880	-3.003300	3.496700	-10.501000	25.856258	0.000291	20.702656
1472.418258	-2.997100	3.498100	-10.484000	25.826025	0.000291	20.696941
1473.415096	-3.011700	3.497900	-10.534000	25.819685	0.000290	20.667811
1474.423892	-3.021200	3.496000	-10.561000	25.837955	0.000289	20.668620
1475.421458	-2.994200	3.497400	-10.471000	25.833064	0.000290	20.680303
1476.420609	-2.977700	3.496100	-10.409000	25.869189	0.000289	20.711853
1477.424288	-3.004800	3.496600	-10.506000	25.849690	0.000288	20.669028
1478.422617	-3.013200	3.495600	-10.533000	25.854158	0.000291	20.678733
1479.417935	-2.994500	3.496700	-10.471000	25.795481	0.000287	20.689492
1480.421597	-3.005100	3.495000	-10.502000	25.776852	0.000288	20.678839
1481.421376	-3.018400	3.494600	-10.547000	25.778935	0.000287	20.686148
1482.420015	-2.998700	3.494400	-10.478000	25.731315	0.000288	20.675299
1483.422870	-2.999200	3.493600	-10.477000	25.700956	0.000288	20.668038
1484.422195	-3.026600	3.494200	-10.575000	25.652381	0.000284	20.683736
1485.420855	-3.003800	3.494100	-10.494000	25.645055	0.000286	20.692026
1486.420271	-2.992200	3.494000	-10.455000	25.656035	0.000286	20.683139
1487.425302	-2.990200	3.493000	-10.444000	25.677360	0.000286	20.686540
1488.420783	-2.997000	3.492500	-10.466000	25.721491	0.000285	20.676811
1489.422530	-2.995400	3.492400	-10.460000	25.729785	0.000285	20.691781
1490.427136	-3.004900	3.490500	-10.488000	25.745940	0.000285	20.676238
1491.424335	-3.001400	3.490500	-10.475000	25.763389	0.000284	20.689499
1492.424978	-3.011700	3.490200	-10.511000	25.818487	0.000284	20.703120
1493.426885	-3.005900	3.489600	-10.488000	25.784061	0.000284	20.704575
1494.426640	-2.994400	3.490500	-10.451000	25.783768	0.000283	20.685787
1495.426682	-3.024700	3.489900	-10.555000	25.774824	0.000283	20.696718
1496.429485	-3.030600	3.489600	-10.575000	25.768915	0.000285	20.696473
1497.426958	-2.999300	3.489700	-10.466000	25.829440	0.000284	20.682353
1498.426444	-2.996400	3.490400	-10.458000	25.827487	0.000282	20.706945
1499.427526	-3.004000	3.487800	-10.476000	25.842063	0.000283	20.689817
1500.426550	-3.018800	3.487300	-10.526000	25.866037	0.000282	20.703945
1501.429132	-2.984800	3.489300	-10.414000	25.884868	0.000282	20.697731
1502.427798	-2.991200	3.488100	-10.432000	25.922464	0.000281	20.702783
1503.428285	-2.988200	3.487600	-10.420000	25.924938	0.000282	20.686776
1504.428197	-2.982900	3.485300	-10.395000	25.887163	0.000282	20.690078
1505.430311	-2.984700	3.486600	-10.406000	25.824630	0.000280	20.703127
1506.429889	-3.013000	3.485900	-10.502000	25.803324	0.000278	20.703536
1507.430801	-2.981300	3.486600	-10.393000	25.783572	0.000280	20.703609
1508.428987	-2.978800	3.486100	-10.383000	25.765488	0.000279	20.691133
1509.438500	-2.980900	3.486800	-10.393000	25.774285	0.000279	20.703290
1510.429537	-3.009800	3.484700	-10.487000	25.773366	0.000279	20.678656
1511.432436	-3.002200	3.485800	-10.464000	25.796789	0.000279	20.696496
1512.440654	-3.007400	3.485300	-10.480000	25.845537	0.000277	20.696627
1513.427711	-2.997400	3.484600	-10.444000	25.879472	0.000279	20.701320
1514.431406	-3.002400	3.483900	-10.458000	25.872213	0.000277	20.701614
1515.436756	-3.005900	3.483600	-10.470000	25.843299	0.000279	20.680627
1516.434421	-2.994200	3.483600	-10.430000	25.832166	0.000275	20.714491
1517.435691	-2.994100	3.482300	-10.425000	25.784386	0.000277	20.694943
1518.436785	-3.008900	3.481600	-10.475000	25.809883	0.000274	20.715341
1519.433270	-3.018000	3.481900	-10.507000	25.749609	0.000277	20.712643
1520.431993	-2.999100	3.481500	-10.441000	25.756535	0.000275	20.705850
1521.435329	-3.005200	3.480800	-10.460000	25.751269	0.000276	20.727114
1522.431557	-3.002000	3.481300	-10.450000	25.721758	0.000275	20.712643
1523.432891	-3.018000	3.480100	-10.502000	25.742944	0.000274	20.701206
1524.434727	-3.005200	3.480400	-10.458000	25.773634	0.000273	20.732036
1525.433984	-3.009200	3.480700	-10.473000	25.793541	0.000274	20.718366
1526.431042	-3.021500	3.478600	-10.509000	25.842176	0.000273	20.710321
1527.434895	-2.995300	3.479800	-10.422000	25.858721	0.000275	20.705604
1528.431355	-2.987800	3.479600	-10.395000	25.844690	0.000273	20.703364
1529.434564	-3.000900	3.479600	-10.441000	25.837187	0.000272	20.698671
1530.439381	-2.995500	3.478100	-10.417000	25.854033	0.000273	20.711801
1531.432329	-3.019000	3.477100	-10.496000	25.870651	0.000272	20.720434
1532.434461	-2.980900	3.477900	-10.367000	25.854431	0.000272	20.702244
1533.441504	-2.984800	3.476900	-10.377000	25.772918	0.000273	20.707607
1534.436395	-2.983900	3.478200	-10.377000	25.762777	0.000270	20.714965
1535.437226	-2.982800	3.476900	-10.370000	25.773187	0.000271	20.731112
1536.443772	-2.996800	3.476000	-10.415000	25.765683	0.000269	20.710297
1537.435050	-2.983800	3.477500	-10.375000	25.807873	0.000270	20.717589
1538.440947	-2.981500	3.475400	-10.360000	25.877275	0.000270	20.714761
1539.442133	-2.997600	3.475800	-10.418000	25.898962	0.000270	20.715211
1540.436697	-3.041100	3.473400	-10.561000	25.926760	0.000268	20.715636
1541.441515	-3.008100	3.473800	-10.448000	25.938437	0.000269	20.689907
1542.441130	-3.005100	3.474900	-10.442000	25.937461	0.000270	20.715955
1543.438385	-2.997500	3.473800	-10.411000	25.899931	0.000268	20.713813
1544.439490	-2.978200	3.472900	-10.341000	25.865890	0.000267	20.717549
1545.440964	-3.007100	3.473200	-10.443000	25.878708	0.000269	20.725210
1546.438575	-2.988800	3.473200	-10.380000	25.892542	0.000266	20.724409
1547.440112	-3.001100	3.472300	-10.420000	25.889791	0.000267	20.741561
1548.443266	-3.016900	3.471400	-10.472000	25.883900	0.000267	20.722839
1549.439396	-2.982500	3.472600	-10.356000	25.921837	0.000268	20.743408
1550.445588	-3.014300	3.471200	-10.463000	25.929780	0.000265	20.719143
1551.444655	-3.003000	3.473000	-10.428000	25.891615	0.000265	20.731064
1552.440507	-2.976100	3.471800	-10.332000	25.864296	0.000264	20.729698
1553.442912	-3.003500	3.469500	-10.419000	25.873955	0.000265	20.743670
1554.443022	-3.002300	3.470200	-10.418000	25.878504	0.000263	20.718841
1555.443618	-2.981800	3.472000	-10.352000	25.895391	0.000264	20.731538
1556.444764	-3.006100	3.470000	-10.430000	25.944232	0.000264	20.744569
1557.445472	-3.001300	3.469700	-10.413000	25.949773	0.000264	20.737808
1558.441779	-2.982700	3.469000	-10.346000	25.981387	0.000263	20.733533
1559.441555	-3.022200	3.467500	-10.478000	25.930813	0.000262	20.765703
1560.442452	-3.009400	3.468200	-10.436000	25.877504	0.000264	20.724000
1561.440735	-2.997300	3.467900	-10.393000	25.875258	0.000263	20.748298
1562.443769	-3.009700	3.467400	-10.435000	25.890622	0.000260	20.731489
1563.440646	-3.009700	3.466800	-10.432000	25.873126	0.000263	20.733827
1564.440752	-3.018700	3.467200	-10.466000	25.900086	0.000262	20.733884
1565.439529	-2.990100	3.466700	-10.365000	25.916622	0.000261	20.730108
1566.441309	-3.026700	3.465300	-10.486000	25.902935	0.000263	20.760455
1567.440364	-2.996600	3.466800	-10.388000	25.833819	0.000261	20.738913
1568.440612	-2.999500	3.466200	-10.396000	25.820530	0.000261	20.735520
1569.440328	-3.015600	3.465000	-10.448000	25.833860	0.000259	20.745592
1570.440395	-3.003300	3.465800	-10.408000	25.839956	0.000258	20.751715
1571.439604	-3.011700	3.464600	-10.433000	25.841990	0.000258	20.750440
1572.441083	-3.013200	3.462800	-10.432000	25.847972	0.000260	20.754078
1573.440614	-2.996600	3.464200	-10.380000	25.854783	0.000259	20.746222
1574.440988	-2.977800	3.464500	-10.315000	25.902520	0.000259	20.731588
1575.441596	-3.014100	3.463700	-10.439000	25.896661	0.000258	20.744669
1576.440289	-3.009900	3.462800	-10.421000	25.872964	0.000259	20.759270
1577.441278	-2.991800	3.462300	-10.358000	25.866486	0.000257	20.749443
1578.441817	-3.001000	3.462500	-10.390000	25.898508	0.000257	20.747947
1579.441811	-3.011500	3.462100	-10.425000	25.932849	0.000256	20.749255
1580.441837	-3.028500	3.460700	-10.480000	25.958017	0.000257	20.749885
1581.444777	-3.003800	3.461100	-10.396000	25.885830	0.000259	20.777411
1582.444895	-3.016100	3.460800	-10.437000	25.916443	0.000255	20.764543
1583.443684	-3.018500	3.460900	-10.446000	25.901723	0.000256	20.755444
1584.441679	-3.016300	3.460200	-10.436000	25.854482	0.000257	20.761093
1585.447650	-3.004200	3.460400	-10.394000	25.887945	0.000254	20.764363
1586.444318	-2.999300	3.460200	-10.377000	25.900657	0.000256	20.761011
1587.443785	-3.007100	3.459100	-10.401000	25.834496	0.000254	20.778000
1588.444252	-3.025100	3.459200	-10.463000	25.802699	0.000255	20.751749
1589.450605	-2.993500	3.458600	-10.352000	25.855597	0.000255	20.759842
1590.446297	-3.020200	3.458500	-10.445000	25.909705	0.000254	20.759196
1591.448997	-3.021300	3.457900	-10.446000	25.963681	0.000256	20.795404
1592.445919	-2.988200	3.458600	-10.334000	25.929521	0.000254	20.760137
1593.448043	-3.015200	3.457400	-10.423000	25.927909	0.000253	20.780804
1594.446168	-3.012300	3.457300	-10.413000	25.948172	0.000253	20.766072
1595.447003	-3.010000	3.458000	-10.408000	25.932279	0.000254	20.766701
1596.447159	-3.019200	3.458200	-10.440000	25.909275	0.000253	20.774885
1597.449381	-2.987000	3.457000	-10.326000	25.889427	0.000252	20.752575
1598.451366	-2.995200	3.455500	-10.348000	25.884504	0.000250	20.764699
1599.448350	-2.988400	3.455600	-10.325000	25.903366	0.000251	20.776536
1600.453933	-3.001600	3.455800	-10.372000	25.937796	0.000250	20.765132
1601.448297	-2.993000	3.455500	-10.341000	25.962835	0.000250	20.781278
1602.447981	-2.997700	3.455700	-10.359000	25.954339	0.000250	20.783649
1603.449439	-3.016000	3.455000	-10.419000	25.958937	0.000252	20.778784
1604.449361	-2.996500	3.454800	-10.351000	25.951662	0.000250	20.770053
1605.453835	-2.994900	3.453600	-10.342000	25.982779	0.000251	20.770495
1606.454846	-2.990400	3.453800	-10.328000	25.997263	0.000251	20.776037
1607.451793	-2.999400	3.454000	-10.358000	25.936535	0.000248	20.764338
1608.449908	-2.993600	3.452000	-10.333000	25.916793	0.000246	20.750195
1609.455473	-2.984700	3.453600	-10.307000	25.954803	0.000248	20.786485
1610.450163	-2.988200	3.453300	-10.318000	25.968514	0.000248	20.793147
1611.450607	-2.989500	3.453500	-10.323000	25.961386	0.000247	20.761329
1612.457198	-3.001000	3.450700	-10.354000	26.011094	0.000246	20.802262
1613.450747	-2.992500	3.450800	-10.326000	25.990280	0.000248	20.771867
1614.448678	-3.005000	3.450800	-10.369000	25.920878	0.000247	20.774213
1615.453929	-3.000700	3.450600	-10.354000	25.927542	0.000248	20.774270
1616.448857	-2.992500	3.451700	-10.328000	25.895569	0.000245	20.787195
1617.452987	-2.990300	3.449700	-10.315000	25.879823	0.000246	20.759522
1618.455734	-2.976300	3.449500	-10.265000	25.862676	0.000246	20.765531
1619.451052	-2.992900	3.449100	-10.321000	25.848752	0.000243	20.778096
1620.455081	-2.982000	3.449400	-10.286000	25.902828	0.000242	20.758925
1621.455995	-2.995100	3.449100	-10.330000	25.915100	0.000242	20.787375
1622.451564	-3.004900	3.447400	-10.358000	25.950351	0.000244	20.785805
1623.456331	-3.018600	3.446800	-10.403000	25.968733	0.000243	20.763021
1624.456377	-3.014000	3.447900	-10.391000	25.936485	0.000244	20.779462
1625.453359	-3.002400	3.446800	-10.348000	25.887724	0.000244	20.787849
1626.459056	-2.990000	3.447300	-10.306000	25.895423	0.000242	20.794160
1627.455549	-3.020100	3.446300	-10.408000	25.925906	0.000245	20.785429
1628.456029	-2.996200	3.447400	-10.328000	25.900664	0.000242	20.798951
1629.454228	-2.995300	3.446700	-10.323000	25.912284	0.000241	20.773641
1630.459163	-3.001400	3.446200	-10.342000	25.930618	0.000242	20.802017
1631.455763	-3.004500	3.445600	-10.351000	25.974112	0.000241	20.812996
1632.459831	-2.986200	3.445300	-10.287000	26.020020	0.000241	20.790841
1633.462309	-2.991900	3.444500	-10.305000	26.014398	0.000241	20.810797
1634.456053	-3.017000	3.444000	-10.390000	25.975682	0.000241	20.791340
1635.459723	-2.991400	3.444600	-10.303000	25.964770	0.000241	20.812146
1636.459722	-2.980900	3.444300	-10.266000	25.973990	0.000240	20.808606
1637.457778	-2.999200	3.442900	-10.324000	26.018377	0.000241	20.804363
1638.458229	-3.019600	3.444100	-10.399000	26.038295	0.000239	20.802090
1639.457863	-3.001800	3.442900	-10.333000	26.036009	0.000238	20.792681
1640.458202	-2.999100	3.443700	-10.328000	26.096438	0.000239	20.798870
1641.459528	-3.020900	3.442700	-10.400000	26.067376	0.000239	20.791005
1642.462034	-3.018300	3.442600	-10.390000	26.062876	0.000238	20.789804
1643.460877	-2.985200	3.442400	-10.275000	26.058059	0.000236	20.805353
1644.460412	-2.976500	3.442100	-10.245000	26.043723	0.000235	20.794742
1645.460227	-2.991600	3.440700	-10.292000	26.007937	0.000237	20.804780
1646.460929	-3.016400	3.440600	-10.377000	26.014846	0.000238	20.800815
1647.463126	-3.008100	3.440400	-10.348000	26.002819	0.000237	20.785888
1648.461600	-2.980700	3.440900	-10.255000	26.004487	0.000237	20.814116
1649.462046	-3.019600	3.439900	-10.386000	26.035513	0.000236	20.792656
1650.463022	-2.989000	3.439300	-10.279000	26.051827	0.000236	20.818056
1651.462460	-2.978400	3.439300	-10.242000	26.061989	0.000237	20.815939
1652.462337	-2.995700	3.439800	-10.303000	26.001753	0.000235	20.804257
1653.465372	-2.984200	3.440100	-10.265000	26.005854	0.000234	20.813593
1654.462118	-2.987600	3.438800	-10.273000	26.020289	0.000235	20.819086
1655.463837	-3.013800	3.438000	-10.361000	26.032747	0.000233	20.802679
1656.463183	-3.017000	3.437500	-10.370000	26.012380	0.000235	20.818727
1657.464464	-2.995500	3.437800	-10.296000	26.037490	0.000232	20.809816
1658.467528	-2.994500	3.437400	-10.292000	26.026839	0.000232	20.814762
1659.466025	-3.001300	3.436300	-10.311000	26.036644	0.000231	20.831251
1660.463863	-3.007400	3.435500	-10.331000	25.976732	0.000234	20.828905
1661.463058	-3.004800	3.435200	-10.322000	25.980606	0.000231	20.814304
1662.465003	-3.017200	3.435400	-10.365000	26.009338	0.000232	20.830843
1663.467703	-3.010500	3.435400	-10.341000	26.050566	0.000231	20.818687
1664.467431	-3.019700	3.433700	-10.367000	26.081835	0.000231	20.843465
1665.469457	-2.975800	3.435700	-10.222000	26.040274	0.000230	20.819725
1666.466661	-3.003900	3.434200	-10.315000	26.079443	0.000232	20.828734
1667.468091	-3.009700	3.434600	-10.337000	26.078450	0.000229	20.811616
1668.467710	-2.985200	3.433900	-10.249000	26.021007	0.000232	20.825498
1669.468001	-3.007100	3.432000	-10.319000	25.991446	0.000229	20.823773
1670.466766	-2.995900	3.433000	-10.284000	25.967572	0.000230	20.817805
1671.468026	-2.996400	3.432500	-10.284000	25.983212	0.000228	20.833518
1672.467046	-3.002000	3.432700	-10.304000	25.986988	0.000230	20.833992
1673.467882	-2.985100	3.431300	-10.241000	26.003896	0.000230	20.835807
1674.466556	-3.008500	3.431800	-10.324000	26.051285	0.000227	20.815615
1675.467977	-2.972900	3.432500	-10.204000	26.050057	0.000228	20.843304
1676.476740	-3.010200	3.430200	-10.324000	26.060813	0.000226	20.824240
1677.467331	-3.016300	3.430800	-10.347000	26.079112	0.000227	20.834091
1678.469126	-3.003400	3.428800	-10.297000	26.109208	0.000226	20.837304
1679.465636	-3.000700	3.430700	-10.293000	26.076916	0.000227	20.838997
1680.467713	-2.994700	3.429800	-10.270000	26.030766	0.000226	20.829612
1681.466407	-2.999500	3.428700	-10.284000	26.050082	0.000224	20.825312
1682.467507	-2.993500	3.429200	-10.265000	26.016022	0.000227	20.838033
1683.470060	-2.976600	3.429300	-10.206000	25.988056	0.000225	20.818470
1684.469204	-2.975200	3.428600	-10.199000	25.937272	0.000224	20.821504
1685.467659	-3.000300	3.427800	-10.283000	25.925473	0.000223	20.806331
1686.468367	-3.000800	3.428600	-10.288000	25.911061	0.000224	20.827888
1687.471066	-3.003000	3.427500	-10.292000	25.931983	0.000224	20.814767
1688.472240	-2.994100	3.428200	-10.264000	25.967275	0.000223	20.826989
1689.471149	-3.011900	3.425800	-10.317000	25.950308	0.000224	20.827962
1690.470671	-2.973900	3.427000	-10.191000	25.962799	0.000222	20.799734
1691.473306	-2.993100	3.425900	-10.253000	25.939022	0.000220	20.798606
1692.471053	-2.963000	3.428700	-10.157000	25.992532	0.000221	20.822967
1693.475068	-2.999800	3.424600	-10.273000	26.013965	0.000220	20.806094
1694.474370	-2.984800	3.426900	-10.227000	26.038928	0.000224	20.800830
1695.474123	-3.000600	3.424600	-10.275000	26.083093	0.000222	20.819599
1696.473678	-2.995500	3.424200	-10.256000	26.090261	0.000222	20.819216
1697.475211	-2.982800	3.425800	-10.217000	26.099284	0.000222	20.819747
1698.474866	-2.990300	3.425300	-10.241000	26.119844	0.000223	20.813853
1699.474291	-2.977100	3.424700	-10.195000	26.132634	0.000220	20.812479
1700.476263	-2.988800	3.423100	-10.230000	26.084305	0.000222	20.806119
1701.477671	-2.980000	3.423400	-10.201000	26.057333	0.000217	20.816951
1702.475835	-3.014400	3.421900	-10.314000	26.045438	0.000218	20.811163
1703.475965	-2.982200	3.423900	-10.210000	26.054030	0.000219	20.799407
1704.475032	-3.016700	3.421700	-10.321000	26.045958	0.000217	20.804574
1705.477617	-2.979200	3.422700	-10.196000	26.001646	0.000218	20.790873
1706.477518	-2.986500	3.421700	-10.218000	25.991043	0.000217	20.782117
1707.475945	-3.040100	3.418800	-10.392000	26.003387	0.000219	20.806372
1708.476513	-2.992800	3.421100	-10.238000	25.949543	0.000218	20.794003
1709.477808	-3.042400	3.418600	-10.400000	25.920232	0.000217	20.804385
1710.475430	-3.044100	3.418600	-10.406000	25.899286	0.000217	20.794248
1711.477184	-3.013800	3.419200	-10.304000	25.946760	0.000217	20.798319
1712.478933	-2.970200	3.420600	-10.158000	26.018440	0.000217	20.796840
1713.478918	-2.986300	3.418400	-10.207000	26.025624	0.000214	20.801688
1714.478149	-3.001100	3.419200	-10.260000	26.020539	0.000215	20.776189
1715.484159	-2.956500	3.420000	-10.110000	26.004395	0.000213	20.811178
1716.478209	-2.995700	3.418900	-10.241000	26.004965	0.000215	20.799423
1717.479466	-2.999000	3.418000	-10.250000	25.976127	0.000213	20.780407
1718.480474	-3.014300	3.418000	-10.301000	25.965321	0.000214	20.800845
1719.480281	-2.987800	3.418300	-10.212000	25.988406	0.000212	20.785157
1720.480711	-2.993600	3.416600	-10.227000	26.006283	0.000215	20.773720
1721.480493	-2.995600	3.415700	-10.231000	26.068374	0.000215	20.772094
1722.482062	-3.021200	3.415300	-10.317000	26.084801	0.000214	20.789073
1723.480318	-3.004200	3.416000	-10.261000	26.105735	0.000213	20.783555
1724.480871	-2.986600	3.415600	-10.200000	26.159530	0.000211	20.788771
1725.480932	-3.034300	3.414100	-10.358000	26.169317	0.000211	20.797183
1726.481449	-3.034200	3.413900	-10.358000	26.154941	0.000213	20.789849
1727.481942	-3.015000	3.414700	-10.295000	26.110755	0.000211	20.771529
1728.482155	-3.024300	3.413400	-10.322000	26.134259	0.000212	20.780448
1729.482884	-2.991800	3.414800	-10.214000	26.138726	0.000210	20.763124
1730.486302	-3.008500	3.414100	-10.270000	26.096565	0.000212	20.782875
1731.483954	-3.014700	3.413900	-10.291000	26.087151	0.000211	20.783848
1732.483789	-2.986700	3.413300	-10.194000	26.090975	0.000208	20.777259
1733.488548	-3.001200	3.413400	-10.243000	26.128881	0.000210	20.785949
1734.486045	-2.987000	3.413200	-10.193000	26.084083	0.000206	20.784559
1735.487238	-2.998000	3.412500	-10.230000	26.126326	0.000208	20.766312
1736.492268	-2.972800	3.411900	-10.142000	26.115627	0.000209	20.773105
1737.487297	-3.007900	3.412400	-10.263000	26.127766	0.000208	20.787674
1738.486447	-2.970100	3.413200	-10.137000	26.119077	0.000209	20.772778
1739.491583	-2.997900	3.410500	-10.223000	26.053783	0.000207	20.765020
1740.487615	-2.988700	3.410500	-10.192000	26.045492	0.000205	20.756215
1741.492939	-2.994800	3.410000	-10.211000	26.023612	0.000206	20.777381
1742.493563	-3.011800	3.409700	-10.268000	26.017599	0.000207	20.778926
1743.488349	-2.974500	3.410500	-10.144000	25.979453	0.000205	20.780430
1744.489099	-2.985200	3.410600	-10.180000	25.982935	0.000206	20.750737
1745.487643	-3.027900	3.407300	-10.317000	26.001488	0.000206	20.772222
1746.489257	-3.000600	3.409100	-10.229000	26.036712	0.000204	20.758299
1747.492157	-2.986800	3.407800	-10.177000	26.003351	0.000203	20.779310
1748.490200	-2.986000	3.408000	-10.176000	26.027672	0.000203	20.757277
1749.492742	-3.010700	3.407900	-10.259000	26.111354	0.000203	20.724240
1750.491411	-2.976700	3.407800	-10.143000	26.103462	0.000202	20.765624
1751.491749	-2.989600	3.406700	-10.184000	26.119636	0.000203	20.750107
1752.493636	-2.992900	3.407600	-10.197000	26.099313	0.000202	20.758609
1753.490686	-2.985400	3.407500	-10.172000	26.094179	0.000202	20.767675
1754.495125	-2.986800	3.406900	-10.175000	26.160023	0.000205	20.753229
1755.492155	-2.969700	3.406000	-10.114000	26.108587	0.000202	20.745168
1756.495187	-2.996900	3.404900	-10.203000	26.132808	0.000203	20.765713
1757.493659	-2.978500	3.406100	-10.144000	26.129057	0.000202	20.759573
1758.493022	-2.983800	3.404400	-10.157000	26.133581	0.000201	20.752264
1759.495866	-2.987500	3.405000	-10.171000	26.111825	0.000200	20.750319
1760.496149	-3.005500	3.402700	-10.226000	26.115877	0.000200	20.756286
1761.494999	-2.999300	3.403100	-10.206000	26.100931	0.000200	20.744113
1762.497809	-2.994200	3.403400	-10.189000	26.148689	0.000200	20.764601
1763.497000	-2.989600	3.403700	-10.174000	26.131017	0.000200	20.766284
1764.497444	-2.986700	3.402900	-10.162000	26.141521	0.000202	20.740327
1765.496020	-2.975600	3.403300	-10.126000	26.174999	0.000198	20.747890
1766.497610	-2.988800	3.402100	-10.167000	26.209697	0.000198	20.748143
1767.502156	-2.991900	3.401800	-10.177000	26.198177	0.000198	20.742257
1768.497602	-2.999400	3.402000	-10.202000	26.204473	0.000197	20.739100
1769.503486	-2.982500	3.403200	-10.149000	26.216961	0.000196	20.753072
1770.499501	-2.995900	3.401500	-10.190000	26.232508	0.000195	20.763005
1771.501230	-2.993100	3.399900	-10.174000	26.182695	0.000197	20.748036
1772.500967	-2.994500	3.401100	-10.182000	26.161339	0.000196	20.740801
1773.501265	-2.997800	3.399300	-10.189000	26.119593	0.000196	20.733467
1774.499866	-2.973000	3.400100	-10.106000	26.081744	0.000195	20.748543
1775.502789	-3.001600	3.399900	-10.205000	26.110156	0.000198	20.742002
1776.503727	-2.979500	3.400200	-10.130000	26.128941	0.000194	20.732428
1777.502230	-3.003200	3.399200	-10.207000	26.191228	0.000196	20.744283
1778.505674	-3.006400	3.397700	-10.214000	26.235932	0.000194	20.739893
1779.506861	-3.003000	3.397700	-10.202000	26.196996	0.000194	20.743915
1780.501359	-2.995700	3.398500	-10.180000	26.172882	0.000195	20.756668
1781.504673	-2.998600	3.397700	-10.188000	26.154626	0.000195	20.739271
1782.507930	-3.014500	3.397500	-10.240000	26.177731	0.000194	20.720287
1783.504887	-3.024300	3.395900	-10.270000	26.241479	0.000193	20.728872
1784.504680	-3.016200	3.395000	-10.239000	26.223655	0.000192	20.737987
1785.508406	-2.998400	3.396300	-10.183000	26.132732	0.000193	20.719167
1786.506280	-2.990600	3.396600	-10.157000	26.104020	0.000194	20.722560
1787.509915	-3.014600	3.395500	-10.235000	26.140355	0.000194	20.750536
1788.507481	-2.993400	3.394500	-10.160000	26.175738	0.000192	20.735829
1789.504694	-3.006100	3.394800	-10.204000	26.192505	0.000191	20.736082
1790.509700	-3.003500	3.395000	-10.196000	26.207971	0.000193	20.736925
1791.510561	-2.997200	3.394300	-10.172000	26.217977	0.000192	20.725168
1792.505400	-2.992100	3.394200	-10.156000	26.263997	0.000190	20.725896
1793.512961	-3.018800	3.392200	-10.239000	26.285172	0.000192	20.711139
1794.509086	-3.004900	3.394000	-10.198000	26.216928	0.000191	20.742133
1795.508275	-3.005500	3.393000	-10.197000	26.183028	0.000188	20.729878
1796.511342	-3.009600	3.391800	-10.207000	26.175828	0.000188	20.724065
1797.510641	-2.986700	3.393500	-10.134000	26.176438	0.000190	20.732265
1798.508469	-2.983400	3.393100	-10.122000	26.181084	0.000190	20.722708
1799.511252	-2.982300	3.392100	-10.114000	26.154309	0.000188	20.739901
1800.514954	-3.009600	3.389800	-10.201000	26.143326	0.000189	20.727442
1801.507602	-2.988100	3.391600	-10.134000	26.159817	0.000186	20.731211
1802.513196	-3.007500	3.390300	-10.196000	26.202635	0.000186	20.727769
1803.513260	-3.004300	3.391000	-10.187000	26.221973	0.000187	20.723019
1804.510273	-3.001400	3.390900	-10.177000	26.232207	0.000186	20.708647
1805.512780	-3.031800	3.389400	-10.276000	26.204759	0.000189	20.718997
1806.515410	-2.993700	3.389500	-10.146000	26.198470	0.000187	20.725955
1807.514628	-3.010500	3.390100	-10.205000	26.220525	0.000186	20.707813
1808.519670	-2.987400	3.388200	-10.121000	26.269214	0.000185	20.753899
1809.514578	-3.012200	3.387400	-10.203000	26.304559	0.000185	20.728252
1810.513641	-3.016600	3.388500	-10.221000	26.318811	0.000186	20.727402
1811.520264	-3.005700	3.388400	-10.184000	26.334429	0.000184	20.715122
1812.515948	-3.000400	3.386900	-10.161000	26.301004	0.000184	20.727525
1813.515486	-2.993100	3.387300	-10.137000	26.302013	0.000184	20.732332
1814.514131	-3.011200	3.387600	-10.200000	26.272590	0.000184	20.738799
1815.516820	-2.988800	3.386900	-10.122000	26.229433	0.000183	20.729094
1816.515444	-3.001700	3.384800	-10.159000	26.220842	0.000183	20.733738
1817.519410	-3.003500	3.387200	-10.173000	26.217011	0.000184	20.712343
1818.517379	-2.994000	3.384500	-10.132000	26.252098	0.000183	20.718205
1819.515379	-3.002300	3.385600	-10.164000	26.230653	0.000183	20.711827
1820.516584	-3.004800	3.385000	-10.171000	26.239041	0.000180	20.715989
1821.516990	-3.011100	3.384500	-10.191000	26.273956	0.000182	20.727844
1822.516696	-3.031600	3.384200	-10.259000	26.274460	0.000180	20.735463
1823.519604	-2.994000	3.383600	-10.130000	26.263926	0.000181	20.725824
1824.520674	-3.006700	3.383200	-10.171000	26.303640	0.000182	20.709783
1825.517856	-2.986300	3.383100	-10.100000	26.291893	0.000180	20.716471
1826.519114	-3.001800	3.382100	-10.152000	26.267774	0.000182	20.737278
1827.520983	-3.019700	3.382300	-10.212000	26.254294	0.000180	20.726576
1828.520778	-2.995200	3.382300	-10.130000	26.227871	0.000180	20.709759
1829.521811	-2.990900	3.380900	-10.112000	26.240009	0.000180	20.730239
1830.526762	-2.983700	3.382400	-10.090000	26.228490	0.000179	20.717240
1831.521334	-2.993700	3.382600	-10.126000	26.276519	0.000179	20.736109
1832.520843	-2.986100	3.383000	-10.101000	26.325709	0.000178	20.699719
1833.523370	-2.990900	3.381200	-10.112000	26.312831	0.000177	20.699106
1834.521891	-3.010700	3.379800	-10.175000	26.226830	0.000180	20.717469
1835.522386	-3.037400	3.379900	-10.265000	26.247769	0.000176	20.712432
1836.523831	-2.998900	3.379400	-10.134000	26.278406	0.000176	20.709555
1837.523541	-2.964200	3.380800	-10.020000	26.222356	0.000176	20.710127
1838.523661	-2.991000	3.380800	-10.111000	26.170305	0.000177	20.717567
1839.525568	-2.984900	3.379500	-10.087000	26.191514	0.000177	20.698100
1840.524933	-2.990300	3.378500	-10.102000	26.143156	0.000176	20.712572
1841.527032	-2.999800	3.377900	-10.133000	26.166156	0.000174	20.710078
1842.527842	-2.996400	3.377900	-10.121000	26.187854	0.000175	20.720028
1843.526686	-3.006300	3.376900	-10.151000	26.209567	0.000175	20.709130
1844.528996	-2.997900	3.377900	-10.125000	26.186658	0.000174	20.701756
1845.528730	-2.981700	3.378000	-10.071000	26.168304	0.000172	20.687105
1846.528561	-2.974400	3.377100	-10.044000	26.137153	0.000173	20.731671
1847.532763	-2.993900	3.377300	-10.111000	26.111223	0.000173	20.722686
1848.528413	-2.994000	3.376900	-10.108000	26.094350	0.000174	20.688185
1849.526671	-2.993400	3.375600	-10.104000	26.117570	0.000173	20.714363
1850.529846	-3.012700	3.375400	-10.168000	26.117847	0.000172	20.703735
1851.532284	-3.008500	3.375700	-10.155000	26.171437	0.000171	20.718705
1852.529117	-3.005700	3.374200	-10.141000	26.197739	0.000170	20.723798
1853.529402	-2.990700	3.374000	-10.090000	26.225652	0.000171	20.718181
1854.530566	-3.007100	3.373600	-10.144000	26.239799	0.000171	20.718174
1855.528653	-3.025400	3.372800	-10.203000	26.286429	0.000169	20.713825
1856.531509	-2.963500	3.373900	-9.996800	26.291846	0.000172	20.696508
1857.531352	-2.983100	3.374500	-10.066000	26.296085	0.000172	20.691284
1858.531312	-2.960900	3.374900	-9.991600	26.259234	0.000171	20.693606
1859.530383	-2.982500	3.373000	-10.059000	26.259901	0.000168	20.697122
1860.530861	-2.984700	3.373400	-10.067000	26.314974	0.000169	20.704104
1861.530010	-3.012700	3.371400	-10.155000	26.293181	0.000169	20.699272
1862.532238	-3.019600	3.371600	-10.180000	26.286201	0.000168	20.689412
1863.535865	-3.016100	3.371200	-10.168000	26.287365	0.000170	20.700539
1864.533654	-2.999800	3.371400	-10.112000	26.245120	0.000168	20.699338
1865.535235	-2.993900	3.371100	-10.092000	26.211839	0.000167	20.696239
1866.536630	-2.995100	3.371200	-10.096000	26.235090	0.000165	20.683092
1867.534966	-3.012700	3.370300	-10.152000	26.264791	0.000166	20.695397
1868.535732	-3.005800	3.369900	-10.129000	26.302211	0.000166	20.693173
1869.540515	-3.001600	3.369800	-10.114000	26.322344	0.000166	20.691121
1870.537388	-3.000500	3.368700	-10.107000	26.384001	0.000163	20.697613
1871.537894	-2.994800	3.369100	-10.088000	26.346877	0.000165	20.689699
1872.539382	-3.001600	3.368100	-10.109000	26.351368	0.000166	20.685676
1873.540949	-3.018600	3.366100	-10.160000	26.336368	0.000165	20.694784
1874.539127	-2.981400	3.368900	-10.043000	26.325468	0.000163	20.691890
1875.536794	-3.004900	3.367000	-10.117000	26.301633	0.000165	20.684057
1876.539731	-2.984800	3.366400	-10.048000	26.268379	0.000164	20.678613
1877.538609	-3.006400	3.367900	-10.124000	26.319261	0.000165	20.685178
1878.543062	-3.010200	3.367700	-10.136000	26.310102	0.000164	20.695414
1879.539372	-2.986500	3.366800	-10.054000	26.324158	0.000163	20.699583
1880.539699	-3.010000	3.366200	-10.131000	26.345787	0.000164	20.677696
1881.537502	-2.996400	3.365800	-10.084000	26.308963	0.000162	20.692846
1882.541616	-3.000900	3.364600	-10.095000	26.319115	0.000162	20.685030
1883.538167	-3.012100	3.365000	-10.135000	26.330186	0.000160	20.692838
1884.541829	-3.005500	3.364200	-10.110000	26.274366	0.000163	20.683207
1885.539413	-3.011600	3.364100	-10.130000	26.287251	0.000161	20.688571
1886.538153	-3.012200	3.364000	-10.132000	26.294052	0.000162	20.675489
1887.541828	-3.020700	3.362100	-10.155000	26.300242	0.000160	20.685505
1888.538914	-3.000700	3.363300	-10.091000	26.248586	0.000160	20.690492
1889.540707	-2.993300	3.363000	-10.066000	26.215606	0.000158	20.679160
1890.538724	-2.990600	3.361900	-10.053000	26.206316	0.000159	20.684524
1891.537777	-2.991200	3.363100	-10.059000	26.287114	0.000158	20.688907
1892.538738	-3.001700	3.361200	-10.088000	26.255900	0.000157	20.693575
1893.537822	-2.983100	3.361600	-10.028000	26.270006	0.000158	20.681671
1894.541433	-2.999300	3.361300	-10.081000	26.318107	0.000158	20.686863
1895.540239	-3.026200	3.360400	-10.167000	26.329682	0.000158	20.662931
1896.542052	-2.994500	3.360800	-10.063000	26.338394	0.000158	20.683543
1897.540787	-2.994000	3.360700	-10.061000	26.414277	0.000160	20.691531
1898.541638	-3.023100	3.359100	-10.153000	26.387313	0.000157	20.688138
1899.541549	-3.006800	3.359700	-10.100000	26.361560	0.000155	20.680273
1900.541950	-3.010200	3.359700	-10.113000	26.358600	0.000156	20.681565
1901.543659	-3.008700	3.359800	-10.107000	26.359356	0.000155	20.678057
1902.540830	-3.013000	3.358100	-10.117000	26.461622	0.000155	20.667993
1903.543876	-2.982900	3.359200	-10.019000	26.488015	0.000155	20.659907
1904.542530	-3.013300	3.357900	-10.117000	26.491642	0.000155	20.680624
1905.543089	-3.009700	3.358100	-10.106000	26.489829	0.000158	20.684017
1906.541193	-3.030200	3.356100	-10.169000	26.475750	0.000155	20.673659
1907.540202	-3.002800	3.356700	-10.079000	26.443208	0.000152	20.680305
1908.542814	-3.003800	3.358000	-10.086000	26.422492	0.000153	20.682717
1909.541883	-2.997000	3.356500	-10.059000	26.434034	0.000153	20.679145
1910.541665	-3.007100	3.356200	-10.091000	26.397147	0.000153	20.672416
1911.545606	-3.006500	3.356800	-10.091000	26.379334	0.000152	20.688653
1912.542116	-2.989700	3.355700	-10.032000	26.309484	0.000153	20.674403
1913.541833	-3.004300	3.355400	-10.079000	26.320165	0.000150	20.677076
1914.549922	-2.996900	3.354900	-10.053000	26.281322	0.000151	20.685457
1915.543712	-3.004700	3.354300	-10.078000	26.242193	0.000152	20.678850
1916.545105	-3.005300	3.353100	-10.076000	26.282095	0.000152	20.666791
1917.544919	-3.010000	3.353600	-10.093000	26.384670	0.000151	20.685481
1918.545398	-3.020100	3.353400	-10.126000	26.396716	0.000150	20.669612
1919.545965	-3.030200	3.352300	-10.157000	26.443647	0.000150	20.711570
1920.545384	-3.002400	3.353700	-10.068000	26.513382	0.000149	20.680191
1921.546227	-3.002400	3.352600	-10.064000	26.532031	0.000148	20.687083
1922.546048	-2.992200	3.353400	-10.033000	26.549354	0.000148	20.688375
1923.548473	-2.990000	3.352100	-10.022000	26.538928	0.000147	20.672204
1924.546438	-3.000200	3.351500	-10.055000	26.512943	0.000147	20.684966
1925.547659	-2.983400	3.353100	-10.002000	26.508844	0.000147	20.685113
1926.547453	-3.010000	3.351300	-10.086000	26.506160	0.000147	20.668663
1927.546926	-3.003400	3.351500	-10.065000	26.477361	0.000146	20.667690
1928.547523	-3.035900	3.349700	-10.168000	26.426770	0.000148	20.690811
1929.553003	-2.986900	3.351900	-10.011000	26.458670	0.000146	20.682570
1930.546057	-3.008500	3.350300	-10.078000	26.461793	0.000145	20.672432
1931.548144	-2.986500	3.350400	-10.005000	26.435847	0.000146	20.665793
1932.549253	-2.993200	3.350100	-10.026000	26.423305	0.000144	20.668835
1933.546005	-3.001400	3.349600	-10.053000	26.414887	0.000144	20.684083
1934.548225	-2.999100	3.348500	-10.041000	26.446072	0.000145	20.688874
1935.548744	-3.003500	3.348700	-10.057000	26.446690	0.000146	20.672425
1936.546210	-3.022900	3.346800	-10.116000	26.416002	0.000144	20.671926
1937.547774	-3.002800	3.347900	-10.053000	26.387192	0.000143	20.697974
1938.548663	-2.984600	3.350000	-9.996800	26.429130	0.000144	20.683699
1939.548605	-2.988000	3.346700	-9.998400	26.447170	0.000142	20.686185
1940.548625	-3.016600	3.346700	-10.095000	26.482551	0.000144	20.698040
1941.551821	-2.979800	3.347600	-9.974100	26.408015	0.000143	20.662949
1942.548881	-3.005400	3.347100	-10.059000	26.417939	0.000141	20.695212
1943.548446	-2.980000	3.345800	-9.969400	26.383370	0.000142	20.684649
1944.548834	-3.006400	3.343900	-10.051000	26.436435	0.000141	20.675394
1945.558571	-3.009400	3.345800	-10.067000	26.441462	0.000142	20.684241
1946.550432	-3.005400	3.344900	-10.051000	26.482235	0.000140	20.682548
1947.551311	-2.993400	3.345000	-10.012000	26.527991	0.000141	20.677806
1948.549941	-3.034600	3.344300	-10.147000	26.559067	0.000139	20.676327
1949.551229	-3.005200	3.344500	-10.050000	26.547446	0.000139	20.685508
1950.554734	-3.013800	3.343600	-10.076000	26.547169	0.000138	20.696611
1951.554221	-2.990400	3.343600	-9.997700	26.552903	0.000137	20.689098
1952.552278	-2.999200	3.342500	-10.024000	26.528228	0.000138	20.673776
1953.555915	-3.008400	3.341700	-10.052000	26.517948	0.000137	20.703274
1954.555000	-2.995000	3.341900	-10.008000	26.544014	0.000138	20.682058
1955.553025	-3.014900	3.340800	-10.071000	26.643213	0.000138	20.694535
1956.556817	-3.020800	3.341300	-10.092000	26.583831	0.000139	20.686048
1957.557633	-2.993700	3.341700	-10.003000	26.483512	0.000136	20.684781
1958.554306	-2.996100	3.341600	-10.010000	26.480202	0.000137	20.694731
1959.555331	-3.009300	3.340800	-10.053000	26.485961	0.000135	20.716642
1960.556108	-2.979700	3.340100	-9.951800	26.509645	0.000136	20.680227
1961.554924	-2.996900	3.339400	-10.007000	26.518461	0.000135	20.693832
1962.560501	-3.007100	3.340300	-10.044000	26.486726	0.000135	20.685640
1963.556652	-3.010300	3.338900	-10.051000	26.496762	0.000136	20.679606
1964.554524	-2.993300	3.339800	-9.995300	26.496160	0.000133	20.684692
1965.558331	-2.998700	3.337600	-10.008000	26.506814	0.000135	20.684021
1966.557299	-2.992900	3.338100	-9.989200	26.545462	0.000133	20.707698
1967.557849	-2.982700	3.339300	-9.959100	26.530823	0.000132	20.689662
1968.559818	-2.986800	3.337400	-9.967500	26.475485	0.000132	20.703741
1969.566871	-3.021700	3.337600	-10.084000	26.444318	0.000132	20.700389
1970.558389	-3.017300	3.337000	-10.068000	26.439332	0.000132	20.682574
1971.561442	-2.992500	3.337400	-9.986200	26.457413	0.000132	20.692213
1972.562918	-3.031200	3.334700	-10.107000	26.525504	0.000133	20.706603
1973.563777	-2.996600	3.336000	-9.995800	26.554530	0.000132	20.682198
1974.561554	-2.988700	3.336200	-9.970000	26.595078	0.000130	20.673171
1975.567054	-2.991900	3.336000	-9.978700	26.613718	0.000130	20.682901
1976.563769	-3.003100	3.335300	-10.015000	26.578586	0.000128	20.698321
1977.566160	-2.994400	3.335200	-9.986500	26.585913	0.000128	20.688616
1978.568418	-3.010600	3.335100	-10.040000	26.549544	0.000126	20.695205
1979.563763	-3.012400	3.333900	-10.041000	26.561337	0.000131	20.699473
1980.565150	-3.008000	3.332600	-10.023000	26.539175	0.000130	20.708965
1981.569945	-3.016400	3.331700	-10.048000	26.587898	0.000129	20.703888
1982.565220	-3.011600	3.333500	-10.038000	26.562434	0.000128	20.701525
1983.566821	-3.010000	3.332200	-10.029000	26.561418	0.000126	20.720893
1984.568528	-3.002700	3.333000	-10.007000	26.559230	0.000126	20.694510
1985.568651	-3.002600	3.332200	-10.004000	26.544038	0.000127	20.689196
1986.565013	-2.987600	3.331300	-9.951200	26.553228	0.000125	20.699857
1987.568227	-2.997800	3.331300	-9.986300	26.539646	0.000127	20.700429
1988.569882	-2.989100	3.331600	-9.957400	26.519639	0.000126	20.694068
1989.567601	-3.017600	3.330900	-10.050000	26.514873	0.000124	20.694968
1990.569301	-3.010700	3.330600	-10.027000	26.478827	0.000124	20.702358
1991.568233	-3.015700	3.329300	-10.039000	26.461373	0.000124	20.690978
1992.572553	-2.985800	3.329800	-9.941100	26.467066	0.000123	20.709029
1993.570573	-2.991700	3.328300	-9.956400	26.526324	0.000124	20.717859
1994.568537	-3.005500	3.328500	-10.003000	26.640936	0.000124	20.706471
1995.567085	-2.996000	3.328700	-9.971800	26.665250	0.000122	20.702464
1996.572751	-2.992800	3.327600	-9.958500	26.703404	0.000123	20.707157
1997.568015	-3.011300	3.326700	-10.016000	26.684734	0.000122	20.711147
1998.571094	-2.999900	3.327900	-9.982800	26.719341	0.000121	20.717017
1999.572133	-2.996200	3.327700	-9.969800	26.718122	0.000123	20.715791
2000.571002	-2.989900	3.328000	-9.949200	26.666063	0.000123	20.715137
2001.571387	-2.996000	3.327700	-9.968800	26.585660	0.000121	20.729616
2002.575906	-2.996600	3.327600	-9.970400	26.552373	0.000121	20.723655
2003.572273	-3.015400	3.326400	-10.030000	26.590247	0.000121	20.702931
2004.573403	-2.996400	3.325500	-9.964100	26.651222	0.000122	20.729141
2005.575239	-3.010300	3.325700	-10.010000	26.687644	0.000121	20.715022
2006.570707	-3.010500	3.324900	-10.009000	26.669869	0.000120	20.727024
2007.572153	-3.012100	3.325300	-10.015000	26.623126	0.000122	20.718439
2008.574822	-3.008000	3.325300	-10.001000	26.601827	0.000122	20.699872
2009.571955	-2.995600	3.324000	-9.956200	26.567216	0.000118	20.730515
2010.572810	-3.009100	3.322300	-9.996600	26.549519	0.000116	20.726476
2011.578373	-3.005700	3.324100	-9.990900	26.615953	0.000118	20.732092
2012.576735	-2.993300	3.324400	-9.950600	26.654125	0.000118	20.707403
2013.579508	-3.007400	3.322700	-9.991900	26.686092	0.000119	20.719151
2014.580050	-2.999800	3.323700	-9.969000	26.644619	0.000119	20.719184
2015.576927	-3.000500	3.323500	-9.971000	26.595216	0.000118	20.734006
2016.578022	-2.997600	3.323900	-9.963000	26.618304	0.000117	20.738723
2017.577635	-2.998600	3.321700	-9.959300	26.591890	0.000116	20.722127
2018.579287	-2.995600	3.322700	-9.952900	26.654329	0.000117	20.713771
2019.580406	-3.012300	3.320700	-10.002000	26.680757	0.000116	20.699562
2020.585121	-2.982700	3.320900	-9.903300	26.690889	0.000113	20.723975
2021.583148	-2.978400	3.322700	-9.896100	26.693573	0.000114	20.727621
2022.583206	-2.983300	3.320600	-9.905500	26.647457	0.000114	20.703543
2023.588104	-2.995200	3.320300	-9.944500	26.666144	0.000115	20.734186
2024.583529	-2.990400	3.318800	-9.923500	26.698761	0.000113	20.718137
2025.586324	-2.991700	3.318500	-9.926600	26.716690	0.000115	20.745173
2026.585441	-2.986800	3.317800	-9.907900	26.687019	0.000111	20.734783
2027.586526	-3.023000	3.317800	-10.028000	26.743345	0.000112	20.717916
2028.584282	-3.018700	3.316800	-10.011000	26.699338	0.000115	20.729149
2029.591645	-2.990500	3.317600	-9.920500	26.676601	0.000112	20.728577
2030.584801	-3.020600	3.316900	-10.017000	26.725952	0.000111	20.709912
2031.586511	-3.005600	3.317300	-9.969200	26.756509	0.000110	20.731152
2032.587577	-2.981000	3.316200	-9.883700	26.790472	0.000111	20.734005
2033.586477	-2.982300	3.316500	-9.890100	26.831663	0.000110	20.732746
2034.588913	-2.997300	3.316300	-9.939600	26.835939	0.000110	20.731356
2035.588420	-3.003800	3.315100	-9.957200	26.818955	0.000110	20.724236
2036.590469	-2.994400	3.315800	-9.928000	26.795879	0.000109	20.725690
2037.587358	-2.998700	3.316600	-9.943800	26.787041	0.000108	20.729607
2038.590407	-2.992800	3.315700	-9.921300	26.787733	0.000110	20.734095
2039.589468	-2.990300	3.315900	-9.914200	26.756582	0.000109	20.743080
2040.588611	-2.974900	3.315700	-9.862800	26.780024	0.000107	20.728715
2041.593633	-3.001900	3.314800	-9.949400	26.782626	0.000107	20.742712
2042.591970	-2.992300	3.313000	-9.911800	26.793879	0.000107	20.744543
2043.591783	-3.005200	3.314100	-9.958900	26.779496	0.000107	20.736245
2044.593922	-3.022200	3.312400	-10.010000	26.771161	0.000107	20.735926
2045.591185	-2.993600	3.313800	-9.919700	26.688660	0.000105	20.739752
2046.595782	-2.988600	3.312200	-9.898000	26.662687	0.000107	20.725968
2047.595393	-2.994000	3.310300	-9.908800	26.679918	0.000105	20.739498
2048.594012	-3.003300	3.310200	-9.941000	26.713006	0.000105	20.733882
2049.592629	-3.002900	3.311300	-9.943400	26.766876	0.000105	20.741575
2050.594859	-2.975900	3.310500	-9.850800	26.811620	0.000103	20.734879
2051.591646	-2.981300	3.311300	-9.870500	26.776413	0.000106	20.757328
2052.595249	-2.998200	3.310700	-9.925100	26.777674	0.000103	20.735836
2053.596540	-2.980100	3.310600	-9.864700	26.796163	0.000102	20.757746
2054.593278	-2.991000	3.309300	-9.896800	26.844516	0.000103	20.753731
2055.595953	-3.009500	3.308100	-9.954700	26.862070	0.000103	20.756682
2056.595170	-3.022700	3.308100	-9.998700	26.863436	0.000103	20.731028
2057.594173	-3.018500	3.307800	-9.983900	26.897087	0.000102	20.746373
2058.600786	-2.996900	3.307200	-9.909900	26.867973	0.000101	20.740332
2059.596586	-2.987100	3.307600	-9.879300	26.825019	0.000100	20.744084
2060.598899	-2.987500	3.307700	-9.880500	26.778087	0.000102	20.722026
2061.598439	-3.001300	3.307300	-9.925600	26.862053	9.978282E-5	20.739595
2062.597405	-3.025300	3.306200	-10.002000	26.853614	0.000100	20.739170
2063.598853	-3.004700	3.305800	-9.932000	26.882907	0.000102	20.746340
2064.600870	-2.988200	3.306500	-9.879100	26.881614	9.892475E-5	20.748834
2065.598130	-3.006300	3.304700	-9.934400	26.845207	9.750565E-5	20.743519
2066.598421	-2.993400	3.305100	-9.893000	26.845580	0.000100	20.752431
2067.596978	-2.999800	3.303800	-9.910400	26.859727	9.767066E-5	20.751482
2068.600399	-2.979600	3.305700	-9.848700	26.910037	9.730764E-5	20.743748
2069.600912	-2.982100	3.304600	-9.853800	26.928077	9.648258E-5	20.741974
2070.599999	-2.985300	3.303800	-9.862000	26.928256	9.981582E-5	20.742628
2071.599041	-3.003000	3.302600	-9.916300	26.907630	9.790168E-5	20.765037
2072.600334	-2.993800	3.303500	-9.889500	26.878687	9.704362E-5	20.753951
2073.599033	-3.003100	3.302600	-9.917000	26.897053	9.717563E-5	20.755823
2074.597157	-2.990000	3.302800	-9.874900	26.882184	9.440342E-5	20.756518
2075.598470	-3.000400	3.303800	-9.912000	26.912736	9.450243E-5	20.766852
2076.598633	-2.997700	3.301900	-9.896800	26.964263	9.661458E-5	20.760818
2077.599811	-3.006000	3.301500	-9.923400	26.972246	9.770366E-5	20.749406
2078.602665	-3.007800	3.300400	-9.926200	26.996740	9.384238E-5	20.750330
2079.600357	-2.976300	3.302600	-9.828500	27.002391	9.512948E-5	20.762176
2080.601810	-3.007200	3.298700	-9.918900	27.021299	9.635057E-5	20.768864
2081.600853	-2.986900	3.299500	-9.854800	27.009788	9.298432E-5	20.762029
2082.601898	-3.009100	3.299400	-9.927000	27.024169	9.239028E-5	20.744722
2083.603757	-3.029700	3.299200	-9.994800	26.990107	9.235727E-5	20.753142
2084.599243	-2.997500	3.298700	-9.886400	26.926867	9.268730E-5	20.761621
2085.598808	-3.000300	3.297900	-9.894100	26.894250	9.130120E-5	20.761065
2086.599309	-2.998700	3.298200	-9.889700	26.882493	9.067415E-5	20.746872
2087.603128	-3.006500	3.297800	-9.913900	26.847192	8.905703E-5	20.762586
2088.602658	-2.996400	3.298300	-9.881900	26.901924	9.031112E-5	20.772101
2089.602625	-3.009600	3.297100	-9.922100	26.914753	9.054214E-5	20.775044
2090.600747	-3.002600	3.297300	-9.899300	26.934948	9.219226E-5	20.785395
2091.600795	-3.018500	3.295700	-9.946800	26.929273	8.945306E-5	20.767360
2092.602479	-3.001900	3.295200	-9.891100	26.967581	9.041013E-5	20.756569
2093.601615	-3.028000	3.296000	-9.979400	26.902046	8.981609E-5	20.773647
2094.600600	-2.993800	3.296700	-9.867600	26.892144	8.925505E-5	20.776966
2095.602750	-2.979400	3.296300	-9.820500	26.937956	8.866100E-5	20.764711
2096.607254	-2.999800	3.296500	-9.888500	26.997936	8.806696E-5	20.765758
2097.602516	-3.026200	3.293800	-9.966300	27.036200	8.747292E-5	20.750658
2098.605360	-2.993300	3.294700	-9.861000	27.022762	8.839698E-5	20.785982
2099.604508	-3.005300	3.293600	-9.897900	26.959906	9.064115E-5	20.773033
2100.604306	-3.009700	3.293900	-9.912600	26.992115	8.714289E-5	20.797836
2101.604195	-3.018000	3.292400	-9.935400	27.022396	8.750592E-5	20.778028
2102.604423	-2.988500	3.293700	-9.841500	27.031452	8.803396E-5	20.786661
2103.604201	-3.006300	3.292600	-9.897300	27.110131	8.684587E-5	20.786604
2104.606787	-2.995000	3.291300	-9.856500	27.066602	8.555878E-5	20.779811
2105.603851	-2.994100	3.292700	-9.857500	27.057319	8.545977E-5	20.773794
2106.604588	-3.021300	3.290000	-9.939200	26.995147	8.644984E-5	20.780023
2107.606641	-2.995500	3.292100	-9.860200	26.981100	8.473372E-5	20.783914
2108.609367	-2.970400	3.291100	-9.775600	26.924297	8.592180E-5	20.778477
2109.607775	-2.999000	3.291200	-9.869300	26.933330	8.387565E-5	20.761955
2110.606952	-2.978700	3.289900	-9.798500	26.943598	8.400766E-5	20.770384
2111.607904	-3.004600	3.288000	-9.877700	26.971173	8.357863E-5	20.763500
2112.605590	-2.981600	3.289800	-9.807500	27.007235	8.189551E-5	20.787911
2113.606006	-2.993900	3.289900	-9.848900	27.041183	8.344662E-5	20.781747
2114.607770	-2.978500	3.288700	-9.793200	26.999472	8.186251E-5	20.786742
2115.608346	-2.998500	3.287600	-9.856900	26.991139	8.298459E-5	20.768405
2116.606286	-3.000200	3.288900	-9.866400	26.940239	8.021239E-5	20.788818
2117.610719	-2.985600	3.287600	-9.814200	26.969799	8.212653E-5	20.819491
2118.604482	-2.997400	3.288000	-9.853700	26.985058	8.225854E-5	20.770351
2119.606199	-2.992000	3.285500	-9.829500	27.006520	8.050941E-5	20.806632
2120.608169	-3.004600	3.286000	-9.871400	27.027842	8.001437E-5	20.787298
2121.607036	-3.002300	3.286200	-9.865300	27.049230	7.965135E-5	20.773719
2122.607290	-3.003200	3.287400	-9.872100	27.029191	7.909030E-5	20.792922
2123.610318	-3.010500	3.285900	-9.891100	26.990740	7.885929E-5	20.791712
2124.606108	-2.992200	3.284500	-9.826400	27.061845	8.008038E-5	20.793993
2125.605890	-3.002800	3.285400	-9.863900	27.111325	7.948633E-5	20.798236
2126.609388	-3.004200	3.284500	-9.865900	27.188461	7.955234E-5	20.784306
2127.607744	-3.010500	3.283700	-9.883900	27.182780	7.918931E-5	20.797083
2128.607794	-3.017400	3.284200	-9.908700	27.174448	7.839725E-5	20.794393
2129.607368	-2.992400	3.282400	-9.821000	27.147650	7.499800E-5	20.784510
2130.608431	-3.026600	3.281800	-9.931000	27.119356	7.757219E-5	20.794459
2131.611620	-3.014200	3.282900	-9.893800	27.145886	7.918931E-5	20.780839
2132.610061	-2.992800	3.283100	-9.825400	27.177748	7.806723E-5	20.802454
2133.610151	-2.996400	3.281600	-9.831500	27.151641	7.654912E-5	20.810335
2134.608082	-3.009400	3.281600	-9.874600	27.185901	7.450297E-5	20.815395
2135.610441	-2.993500	3.282200	-9.824500	27.208025	7.740718E-5	20.786440
2136.609690	-3.016200	3.279300	-9.889500	27.150122	7.503101E-5	20.806910
2137.608322	-2.987700	3.280300	-9.800000	27.100392	7.463498E-5	20.791982
2138.610723	-2.981200	3.279700	-9.777100	27.093922	7.602108E-5	20.812501
2139.609114	-3.011400	3.279800	-9.875600	27.096653	7.499800E-5	20.805765
2140.609627	-3.032000	3.278100	-9.937600	27.137198	7.298486E-5	20.806239
2141.612084	-2.989700	3.277800	-9.798500	27.186446	7.272084E-5	20.793184
2142.609201	-3.003800	3.279000	-9.847800	27.241795	7.390893E-5	20.809502
2143.611540	-2.996400	3.278500	-9.822400	27.241869	7.377692E-5	20.814791
2144.610185	-2.980300	3.277900	-9.767500	27.189892	7.344689E-5	20.822729
2145.608706	-3.003100	3.276400	-9.838600	27.170881	7.222580E-5	20.791754
2146.614151	-2.987600	3.277300	-9.790300	27.162005	7.182977E-5	20.801792
2147.611025	-3.029300	3.276000	-9.922700	27.138702	7.123573E-5	20.819132
2148.611656	-3.007300	3.276400	-9.852200	27.193314	7.189578E-5	20.811472
2149.608513	-3.007400	3.275700	-9.850300	27.162298	7.229181E-5	20.815837
2150.612431	-3.005500	3.276200	-9.845700	27.203685	7.140074E-5	20.816687
2151.611101	-3.013700	3.273700	-9.865400	27.188893	7.248982E-5	20.814611
2152.610326	-2.999800	3.274800	-9.822800	27.185454	7.209379E-5	20.823006
2153.612264	-3.002400	3.274600	-9.831100	27.163769	6.882655E-5	20.828696
2154.611734	-3.004800	3.274000	-9.836900	27.207286	6.879355E-5	20.817464
2155.616194	-2.998700	3.273400	-9.815200	27.227646	6.734144E-5	20.812339
2156.609874	-3.000500	3.272200	-9.817400	27.187511	7.011365E-5	20.813221
2157.612183	-2.989700	3.272400	-9.782500	27.194923	6.938759E-5	20.815461
2158.612354	-2.989400	3.271500	-9.777900	27.194826	6.681341E-5	20.811570
2159.613519	-2.990800	3.271100	-9.782800	27.251621	6.767147E-5	20.819385
2160.615985	-3.014300	3.271500	-9.861300	27.209415	6.938759E-5	20.842365
2161.614277	-3.023400	3.269600	-9.884100	27.172295	6.889256E-5	20.840117
2162.615428	-2.998500	3.270700	-9.806600	27.162835	6.684641E-5	20.851938
2163.615074	-2.999900	3.269300	-9.806400	27.210221	6.450324E-5	20.830847
2164.615671	-3.011200	3.269900	-9.845600	27.207278	6.595534E-5	20.834999
2165.614678	-3.009900	3.268700	-9.837200	27.233571	6.816650E-5	20.812134
2166.614791	-3.009000	3.268400	-9.833700	27.235977	6.641738E-5	20.830201
2167.616105	-3.011200	3.268200	-9.840500	27.304847	6.437123E-5	20.825983
2168.615787	-3.025000	3.267000	-9.881900	27.348757	6.641738E-5	20.827005
2169.615250	-2.987500	3.268700	-9.764000	27.367407	6.717643E-5	20.832016
2170.620789	-3.000500	3.266200	-9.799000	27.277979	6.522929E-5	20.819345
2171.618978	-2.979200	3.266600	-9.730900	27.245072	6.470125E-5	20.826073
2172.620491	-2.994000	3.266100	-9.777800	27.257946	6.384319E-5	20.815789
2173.620487	-2.992400	3.265500	-9.771100	27.311292	6.318314E-5	20.816819
2174.618466	-2.980600	3.266400	-9.735200	27.381791	6.219307E-5	20.825150
2175.618699	-2.993200	3.265900	-9.774400	27.384741	6.262210E-5	20.814367
2176.619552	-2.966100	3.266600	-9.687500	27.362589	6.374418E-5	20.796823
2177.622118	-2.991100	3.266000	-9.767900	27.385107	6.315014E-5	20.808571
2178.619982	-3.001000	3.265000	-9.797600	27.385205	6.183004E-5	20.803928
2179.628526	-3.016500	3.263200	-9.842200	27.339062	6.235808E-5	20.818676
2180.621970	-2.987900	3.263900	-9.751300	27.319339	6.301813E-5	20.823965
2181.619153	-3.003000	3.263700	-9.800000	27.352155	6.245709E-5	20.819044
2182.622779	-3.025700	3.262300	-9.870000	27.374999	6.348016E-5	20.823532
2183.621805	-2.997400	3.261500	-9.775400	27.411819	6.057595E-5	20.816003
2184.621173	-2.998900	3.265000	-9.790900	27.445559	6.245709E-5	20.815333
2185.622882	-2.990000	3.263500	-9.757800	27.370651	5.965188E-5	20.817262
2186.625917	-2.991800	3.260400	-9.753600	27.359583	5.932186E-5	20.804231
2187.620161	-2.993600	3.260400	-9.758700	27.326386	6.057595E-5	20.796441
2188.627658	-3.008200	3.260200	-9.806900	27.297161	5.975089E-5	20.790277
2189.624157	-3.014600	3.261800	-9.831300	27.294260	6.004791E-5	20.794471
2190.622120	-3.014900	3.258800	-9.823800	27.310750	6.008091E-5	20.782135
2191.623760	-3.001200	3.259700	-9.781800	27.325208	5.763873E-5	20.811851
2192.624160	-2.996400	3.258100	-9.761800	27.299381	5.892583E-5	20.801518
2193.623222	-3.013300	3.256600	-9.812300	27.338130	5.852980E-5	20.794030
2194.625393	-2.984700	3.258300	-9.724000	27.425887	5.674767E-5	20.800759
2195.628742	-2.974000	3.257200	-9.686000	27.444276	5.625263E-5	20.795551
2196.626098	-3.015300	3.258000	-9.822900	27.514271	5.582360E-5	20.782994
2197.628435	-2.990100	3.255600	-9.733600	27.494721	5.727571E-5	20.795568
2198.624475	-2.962200	3.258200	-9.650500	27.566752	5.489953E-5	20.796916
2199.625107	-3.001500	3.256700	-9.773900	27.622399	5.661566E-5	20.783681
2200.626305	-2.996000	3.255700	-9.753600	27.601591	5.684668E-5	20.773650
2201.628076	-3.014900	3.255400	-9.813000	27.601486	5.529556E-5	20.802468
2202.622981	-2.981000	3.255400	-9.702200	27.572301	5.559258E-5	20.797759
2203.626866	-3.008300	3.253600	-9.786800	27.543896	5.621963E-5	20.796680
2204.630589	-2.986200	3.255700	-9.721200	27.506309	5.440450E-5	20.787786
2205.623935	-2.994200	3.254000	-9.742900	27.521796	5.473452E-5	20.779659
2206.628395	-2.970000	3.254800	-9.665700	27.547512	5.265537E-5	20.782774
2207.629027	-2.966400	3.252900	-9.648000	27.506058	5.291939E-5	20.772834
2208.626762	-3.004400	3.252700	-9.770600	27.381064	5.324941E-5	20.800711
2209.631938	-3.000400	3.253200	-9.760600	27.368956	5.199532E-5	20.786159
2210.631557	-2.985500	3.252600	-9.709400	27.373052	5.140128E-5	20.786012
2211.628558	-2.993600	3.253900	-9.740400	27.396537	5.282038E-5	20.760326
2212.630509	-3.006400	3.251500	-9.774200	27.414367	5.255636E-5	20.789168
2213.637913	-2.998500	3.250600	-9.745900	27.471272	5.146728E-5	20.778614
2214.628196	-3.022700	3.249700	-9.821500	27.545426	5.338142E-5	20.786839
2215.643122	-3.005800	3.250100	-9.768500	27.584344	5.126927E-5	20.777159
2216.633669	-3.012400	3.248600	-9.785300	27.611026	5.169830E-5	20.794998
2217.631396	-3.012100	3.249600	-9.786500	27.652787	5.173130E-5	20.778697
2218.634726	-3.015700	3.247000	-9.790400	27.611490	5.255636E-5	20.769386
2219.634569	-2.991300	3.248100	-9.715600	27.597004	5.212733E-5	20.773776
2220.630399	-2.974300	3.250500	-9.666200	27.551066	5.021319E-5	20.784927
2221.633415	-2.993600	3.246100	-9.716600	27.463433	4.975116E-5	20.796331
2222.630469	-2.983800	3.246900	-9.686900	27.462458	4.915711E-5	20.772591
2223.631279	-3.004500	3.245100	-9.749100	27.480944	4.994917E-5	20.755627
2224.633642	-3.012200	3.246400	-9.776900	27.462011	4.876108E-5	20.776883
2225.637794	-3.000700	3.245800	-9.738500	27.501802	4.806803E-5	20.783251
2226.632423	-3.008900	3.244600	-9.761900	27.442566	4.734198E-5	20.762061
2227.633815	-2.991300	3.246300	-9.709800	27.401586	4.760600E-5	20.762560
2228.635220	-2.990400	3.244400	-9.701100	27.437877	4.800203E-5	20.781052
2229.635127	-3.003700	3.245200	-9.746300	27.496708	4.654992E-5	20.755366
2230.638260	-2.995400	3.242200	-9.710800	27.550936	4.635191E-5	20.783374
2231.637322	-3.005100	3.242600	-9.743800	27.591414	4.658292E-5	20.776213
2232.636406	-3.018600	3.242100	-9.786200	27.594567	4.711096E-5	20.755676
2233.638866	-3.011700	3.243500	-9.767900	27.611555	4.588987E-5	20.774193
2234.636678	-2.986700	3.242100	-9.681600	27.581096	4.704496E-5	20.763459
2235.636325	-2.984900	3.242600	-9.677600	27.572540	4.753999E-5	20.766705
2236.637134	-3.018200	3.241200	-9.781800	27.558102	4.598888E-5	20.769247
2237.638142	-2.997800	3.241300	-9.716100	27.554657	4.631890E-5	20.765781
2238.635166	-2.987500	3.241400	-9.683000	27.567845	4.694595E-5	20.768144
2239.638943	-3.004600	3.240700	-9.736300	27.577099	4.466878E-5	20.770343
2240.636703	-2.985600	3.240800	-9.675300	27.534742	4.480079E-5	20.758546
2241.638506	-2.996400	3.239200	-9.704600	27.516956	4.648392E-5	20.752978
2242.638627	-2.996900	3.238000	-9.703100	27.458412	4.476779E-5	20.764727
2243.637465	-3.001300	3.237700	-9.716100	27.456356	4.331568E-5	20.770245
2244.637354	-3.006100	3.239400	-9.737100	27.467699	4.651692E-5	20.732343
2245.642025	-2.993700	3.237000	-9.689800	27.552780	4.397573E-5	20.763892
2246.639890	-2.990400	3.237000	-9.678700	27.536659	4.678094E-5	20.753362
2247.638679	-2.989300	3.237600	-9.677500	27.532044	4.390973E-5	20.758676
2248.640717	-3.012500	3.234900	-9.745000	27.534498	4.628590E-5	20.750713
2249.642521	-3.017300	3.234700	-9.759700	27.554486	4.338169E-5	20.755177
2250.637527	-2.994000	3.234600	-9.683500	27.622418	4.400873E-5	20.760941
2251.642421	-3.012000	3.235800	-9.745400	27.709242	4.037847E-5	20.777660
2252.639426	-3.019300	3.233500	-9.761400	27.707064	4.338169E-5	20.767882
2253.637646	-3.009100	3.233500	-9.728400	27.767789	4.255663E-5	20.766877
2254.640171	-2.992700	3.233400	-9.675800	27.736002	4.235861E-5	20.759069
2255.642470	-3.018800	3.233300	-9.759500	27.742168	4.295266E-5	20.756265
2256.640491	-3.016400	3.232100	-9.747900	27.758366	4.245762E-5	20.737004
2257.652252	-3.010300	3.232400	-9.729900	27.714498	4.169856E-5	20.770147
2258.642148	-2.996700	3.233100	-9.687000	27.698827	4.133554E-5	20.759592
2259.640502	-2.998400	3.230600	-9.684900	27.730071	4.060948E-5	20.752153
2260.640714	-2.991800	3.231000	-9.665400	27.733451	3.853033E-5	20.764563
2261.641819	-2.989700	3.229700	-9.654700	27.715270	3.912438E-5	20.758595
2262.641017	-3.009100	3.230000	-9.718500	27.739698	4.209459E-5	20.735761
2263.641884	-3.000900	3.229200	-9.689600	27.648709	3.879435E-5	20.751359
2264.643917	-3.026500	3.227800	-9.767900	27.595094	4.090651E-5	20.751465
2265.643872	-3.007700	3.228900	-9.710300	27.559402	4.080750E-5	20.751114
2266.644820	-2.985400	3.228100	-9.636600	27.544419	3.833232E-5	20.753583
2267.647121	-2.998400	3.227300	-9.675900	27.522595	3.928939E-5	20.731624
2268.642361	-2.993700	3.230500	-9.670900	27.505084	3.978442E-5	20.755259
2269.642717	-2.992500	3.226800	-9.654300	27.517606	3.876135E-5	20.738933
2270.653825	-3.022900	3.225600	-9.749400	27.584151	3.760626E-5	20.760369
2271.643084	-2.980400	3.225400	-9.612600	27.603455	3.836532E-5	20.752291
2272.640599	-2.973500	3.226100	-9.592200	27.604348	3.816731E-5	20.724265
2273.651963	-3.014300	3.224300	-9.718600	27.628576	3.671520E-5	20.728729
2274.641578	-3.006600	3.224900	-9.695700	27.661261	3.889336E-5	20.753084
2275.656631	-3.021000	3.222100	-9.732600	27.693928	3.589014E-5	20.750394
2276.648039	-3.006400	3.224100	-9.691600	27.680839	3.757326E-5	20.753345
2277.649025	-3.007400	3.222900	-9.691700	27.659383	3.618716E-5	20.741238
2278.651265	-2.991700	3.222000	-9.637700	27.700930	3.658319E-5	20.738474
2279.647624	-3.011200	3.222100	-9.701300	27.690629	3.387699E-5	20.737117
2280.643028	-3.003900	3.222200	-9.677500	27.678427	3.499907E-5	20.745702
2281.648666	-2.983500	3.222200	-9.612600	27.704050	3.625317E-5	20.735449
2282.657518	-2.991900	3.220900	-9.635800	27.748316	3.450404E-5	20.738270
2283.646983	-2.993900	3.221000	-9.642900	27.771931	3.493307E-5	20.730266
2284.649454	-3.003400	3.219200	-9.668300	27.701108	3.410801E-5	20.736283
2285.650636	-3.011300	3.219500	-9.693800	27.675063	3.572513E-5	20.729039
2286.649927	-3.013600	3.217900	-9.697200	27.735009	3.245789E-5	20.736732
2287.649082	-3.014500	3.217700	-9.699200	27.750411	3.407501E-5	20.726627
2288.650487	-3.011500	3.218200	-9.690300	27.769397	3.658319E-5	20.746208
2289.648496	-3.007700	3.216700	-9.673700	27.688638	3.384399E-5	20.747442
2290.650514	-2.984200	3.217700	-9.601700	27.753563	3.582413E-5	20.731222
2291.650770	-2.988400	3.217100	-9.613200	27.803213	3.473505E-5	20.734246
2292.654859	-2.967200	3.216800	-9.544300	27.806958	3.457004E-5	20.731377
2293.651485	-3.002400	3.214200	-9.649200	27.766187	3.628617E-5	20.741555
2294.657831	-3.008800	3.214600	-9.671200	27.789005	3.414101E-5	20.741760
2295.654343	-3.001300	3.214600	-9.647000	27.782629	3.272191E-5	20.732023
2296.652694	-2.997000	3.215500	-9.635600	27.735227	3.348096E-5	20.743116
2297.655514	-2.989400	3.216200	-9.613600	27.800833	3.542810E-5	20.718100
2298.653543	-3.013000	3.212900	-9.679200	27.769834	3.334895E-5	20.723888
2299.657471	-2.983300	3.213400	-9.586000	27.781621	3.272191E-5	20.721525
2300.657461	-2.996000	3.212300	-9.623300	27.794359	3.278791E-5	20.733870
2301.653067	-3.002200	3.212400	-9.643900	27.818598	3.021372E-5	20.724599
2302.655976	-3.021500	3.211600	-9.701900	27.766917	3.225987E-5	20.727117
2303.657536	-3.013900	3.212100	-9.679500	27.807964	3.159982E-5	20.744718
2304.658304	-2.998300	3.210400	-9.625100	27.862713	3.113779E-5	20.728694
2305.660068	-3.010000	3.209600	-9.659300	27.813984	3.024672E-5	20.734180
2306.661913	-2.994400	3.208600	-9.606600	27.801043	3.113779E-5	20.734908
2307.660806	-2.996100	3.209900	-9.616300	27.790507	3.103878E-5	20.731891
2308.658557	-2.998100	3.209400	-9.621400	27.790483	3.206186E-5	20.733763
2309.659794	-2.952800	3.211100	-9.481300	27.857611	3.001571E-5	20.727353
2310.660281	-3.011800	3.207700	-9.660300	27.900629	2.909164E-5	20.732242
2311.660054	-3.000900	3.208800	-9.628500	27.793034	3.126980E-5	20.711673
2312.673652	-2.982600	3.207000	-9.564200	27.730767	2.998270E-5	20.727721
2313.663962	-2.995500	3.207500	-9.607000	27.743489	2.770554E-5	20.745740
2314.663981	-3.003200	3.206100	-9.628000	27.775755	2.965268E-5	20.721786
2315.667213	-3.014800	3.207700	-9.669500	27.825843	2.952067E-5	20.725727
2316.666477	-3.010000	3.204800	-9.644000	27.884936	2.892663E-5	20.717395
2317.664715	-3.012200	3.204200	-9.650800	27.919026	3.074176E-5	20.712351
2318.668208	-3.005300	3.205300	-9.630600	27.969229	2.866261E-5	20.716889
2319.665575	-2.988400	3.204700	-9.576300	27.926783	2.618743E-5	20.724901
2320.665921	-2.991900	3.203200	-9.581500	27.947308	2.605542E-5	20.706204
2321.668664	-3.005800	3.203100	-9.627800	27.982119	2.777154E-5	20.705206
2322.664687	-3.016400	3.201000	-9.654500	27.988689	2.869561E-5	20.732684
2323.665386	-2.999400	3.201100	-9.600600	28.005818	2.684747E-5	20.714837
2324.671433	-2.999200	3.200500	-9.598300	28.039709	2.602241E-5	20.713864
2325.666603	-3.008700	3.200200	-9.627400	27.929975	2.631944E-5	20.707724
2326.668311	-3.018500	3.199100	-9.655200	27.872542	2.691348E-5	20.703498
2327.669935	-3.003000	3.198500	-9.604000	27.874151	2.800256E-5	20.718868
2328.666646	-2.993900	3.198800	-9.575700	27.918288	2.410827E-5	20.698331
2329.667464	-3.000000	3.197800	-9.593000	27.914455	2.651745E-5	20.720079
2330.671891	-3.044900	3.196900	-9.733100	27.859929	2.539537E-5	20.720202
2331.667708	-2.992700	3.198600	-9.571500	27.900119	2.651745E-5	20.702804
2332.667441	-3.006800	3.198400	-9.614600	27.954116	2.305220E-5	20.714954
2333.675092	-3.002800	3.196100	-9.596300	27.927955	2.506534E-5	20.703320
2334.668829	-3.007400	3.195900	-9.610200	27.936525	2.496634E-5	20.731861
2335.669021	-2.988200	3.196900	-9.551600	27.977078	2.523036E-5	20.722893
2336.671603	-3.020000	3.194700	-9.647100	28.023730	2.473532E-5	20.699201
2337.669189	-2.964500	3.195800	-9.473200	27.992908	2.569239E-5	20.720809
2338.673067	-2.967300	3.195300	-9.480600	28.004775	2.562638E-5	20.706674
2339.673306	-3.003200	3.192400	-9.586800	27.982757	2.433929E-5	20.704426
2340.669810	-2.990300	3.193300	-9.547700	27.944707	2.546137E-5	20.705008
2341.670516	-2.981300	3.192200	-9.515900	27.959854	2.483433E-5	20.699391
2342.672762	-2.996100	3.193500	-9.566400	27.995006	2.400927E-5	20.706799
2343.669031	-2.981500	3.192100	-9.516500	27.998637	2.278818E-5	20.708083
2344.671093	-2.993200	3.190200	-9.548100	28.005898	2.394326E-5	20.720608
2345.676622	-2.975500	3.192200	-9.496600	28.064219	2.262316E-5	20.735219
2346.674260	-3.003500	3.189900	-9.580400	28.082313	2.315120E-5	20.697955
2347.672290	-3.006200	3.188900	-9.585800	28.028007	2.292019E-5	20.699239
2348.675711	-2.985800	3.188900	-9.520400	27.993962	2.460331E-5	20.706222
2349.674186	-2.997200	3.187800	-9.553900	27.949308	2.219413E-5	20.704897
2350.673511	-3.001500	3.186800	-9.563200	27.933974	2.018098E-5	20.704637
2351.676783	-2.990500	3.187300	-9.531000	27.965431	2.255716E-5	20.697418
2352.674775	-3.010000	3.185200	-9.586600	28.005537	2.130307E-5	20.705545
2353.676231	-2.975500	3.184000	-9.473100	27.988994	2.358023E-5	20.707859
2354.679093	-2.993400	3.183800	-9.528500	28.048704	2.282118E-5	20.715807
2355.675985	-2.985900	3.184600	-9.507600	28.002266	2.113806E-5	20.717426
2356.678759	-2.985100	3.182900	-9.500300	28.054918	2.120406E-5	20.701198
2357.679980	-2.975400	3.183900	-9.472700	28.090335	2.252416E-5	20.700340
2358.676851	-2.980700	3.182600	-9.485400	28.111149	2.140207E-5	20.713234
2359.679892	-2.999900	3.181200	-9.542500	28.153783	2.295319E-5	20.718221
2360.679723	-3.002600	3.180600	-9.549000	28.160045	2.206212E-5	20.721206
2361.678769	-2.986500	3.181000	-9.498700	28.176107	2.024699E-5	20.707030
2362.686435	-2.992400	3.179800	-9.513900	28.144072	2.136907E-5	20.713661
2363.681611	-2.977600	3.181100	-9.471300	28.110851	1.938893E-5	20.710088
2364.678795	-3.011300	3.178400	-9.570200	28.125964	2.113806E-5	20.722933
2365.677973	-2.997100	3.178500	-9.524600	28.032524	1.925692E-5	20.699044
2366.681505	-2.991200	3.178000	-9.505200	27.974925	1.981796E-5	20.707449
2367.679590	-2.968700	3.178200	-9.434400	27.952558	2.047801E-5	20.711014
2368.680001	-3.011500	3.175400	-9.561300	27.960656	1.787081E-5	20.706837
2369.680636	-2.998600	3.175200	-9.520100	27.920045	1.846486E-5	20.700574
2370.678736	-3.013100	3.175600	-9.568100	27.924829	1.902590E-5	20.692586
2371.679194	-2.986800	3.175700	-9.484200	27.958074	1.928992E-5	20.722256
2372.678649	-2.986200	3.173800	-9.477100	28.007057	2.110505E-5	20.709920
2373.678038	-2.974200	3.174100	-9.440000	28.016202	1.829985E-5	20.705375
2374.680678	-2.993300	3.172400	-9.494600	28.026192	1.767280E-5	20.700731
2375.685330	-3.013200	3.170900	-9.552600	28.055892	1.552764E-5	20.679891
2376.678677	-3.012600	3.171000	-9.551400	28.084251	1.968595E-5	20.704647
2377.680967	-3.000200	3.171100	-9.513300	28.105715	1.711176E-5	20.712504
2378.684163	-2.986900	3.170600	-9.469400	28.103953	1.631970E-5	20.705989
2379.681553	-2.968900	3.170700	-9.412800	28.089595	1.661672E-5	20.697225
2380.683801	-3.000900	3.167800	-9.505200	28.061902	1.628670E-5	20.694003
2381.684539	-2.989300	3.168100	-9.469700	28.075879	1.638571E-5	20.693374
2382.682417	-2.998300	3.167400	-9.496000	28.070520	1.608868E-5	20.694143
2383.684660	-3.013100	3.167400	-9.542800	28.081102	1.694675E-5	20.700055
2384.691177	-2.989600	3.165700	-9.463500	28.120618	1.631970E-5	20.704273
2385.683152	-2.998500	3.165700	-9.491600	28.133806	1.400953E-5	20.702376
2386.683020	-2.979500	3.164500	-9.428100	28.108762	1.602268E-5	20.698976
2387.689806	-3.021500	3.164500	-9.560800	28.069717	1.605568E-5	20.704715
2388.683805	-2.987400	3.164300	-9.451900	28.048269	1.473558E-5	20.714420
2389.685314	-2.980900	3.161500	-9.423100	28.061328	1.331648E-5	20.685364
2390.689373	-2.994400	3.162100	-9.468000	28.125784	1.457057E-5	20.699042
2391.685564	-3.007900	3.159900	-9.503300	28.131209	1.579166E-5	20.668465
2392.686589	-2.974400	3.160200	-9.398900	28.160184	1.513161E-5	20.696214
2393.688104	-2.997300	3.160600	-9.472700	28.166380	1.536263E-5	20.683010
2394.688989	-2.986500	3.158900	-9.433300	28.132939	1.259043E-5	20.710988
2395.688017	-3.028400	3.158400	-9.564200	28.061662	1.341549E-5	20.684752
2396.693952	-3.012300	3.158200	-9.511500	28.079813	1.503261E-5	20.716776
2397.687444	-3.003300	3.155700	-9.476700	28.046655	1.612169E-5	20.705209
2398.689975	-2.992700	3.156100	-9.444400	27.973576	1.367951E-5	20.698504
2399.690541	-3.001600	3.154500	-9.467600	27.977069	1.374551E-5	20.687794
2400.686722	-2.992000	3.155000	-9.438000	28.024833	1.311847E-5	20.703631
2401.690373	-3.014400	3.153900	-9.505300	28.133583	1.288745E-5	20.689349
2402.692153	-2.993100	3.153900	-9.438800	28.123741	1.338248E-5	20.715478
2403.687172	-2.977400	3.154000	-9.390200	28.084103	1.338248E-5	20.683634
2404.694401	-3.005000	3.151200	-9.468600	27.993890	1.235941E-5	20.685759
2405.692482	-2.979900	3.150700	-9.387800	28.004717	1.110532E-5	20.715626
2406.689250	-3.003900	3.150100	-9.461600	28.108742	1.146834E-5	20.678565
2407.690889	-2.999600	3.149100	-9.445600	28.146398	1.160035E-5	20.698931
2408.694247	-3.023500	3.148100	-9.517700	28.142874	9.983235E-6	20.706764
2409.688611	-2.994100	3.147700	-9.423200	28.074780	1.084130E-5	20.699380
2410.691232	-3.031700	3.147400	-9.541100	28.059666	1.219440E-5	20.679897
2411.692458	-2.996200	3.146900	-9.427700	28.123221	8.630135E-6	20.684607
2412.689562	-3.006100	3.146100	-9.456900	28.129945	9.257181E-6	20.693747
2413.694103	-3.023600	3.143800	-9.504100	28.161989	9.554203E-6	20.691867
2414.693884	-2.978500	3.144000	-9.363800	28.191270	8.795147E-6	20.686258
2415.689979	-3.010900	3.144000	-9.465400	28.209216	1.130333E-5	20.695317
2416.692294	-3.003000	3.142800	-9.437200	28.185870	9.884227E-6	20.703582
2417.695318	-3.005400	3.141100	-9.439500	28.217173	1.097331E-5	20.698113
2418.691070	-3.031800	3.141000	-9.521400	28.250408	9.257181E-6	20.713557
2419.694699	-2.990000	3.140000	-9.387100	28.262458	8.465123E-6	20.693445
2420.695023	-2.990800	3.140800	-9.392400	28.270220	8.465123E-6	20.699363
2421.693654	-2.991100	3.139300	-9.389200	28.237530	6.781999E-6	20.679251
2422.696018	-2.988100	3.138500	-9.376200	28.217310	8.333113E-6	20.684025
2423.698075	-3.013100	3.136300	-9.449500	28.236085	9.224179E-6	20.698186
2424.695123	-3.012700	3.135400	-9.445300	28.255150	9.950232E-6	20.699363
2425.695153	-3.005300	3.135600	-9.422500	28.217571	8.201104E-6	20.702781
2426.695181	-2.994100	3.134600	-9.384600	28.284697	8.399118E-6	20.715363
2427.693676	-2.993700	3.134100	-9.381300	28.288813	7.838077E-6	20.722827
2428.696933	-3.024100	3.132800	-9.472800	28.272785	7.904082E-6	20.692462
2429.697490	-2.988500	3.132800	-9.360400	28.224196	8.399118E-6	20.704710
2430.693657	-2.997800	3.132400	-9.389300	28.253120	8.960159E-6	20.704432
2431.698155	-2.991300	3.130800	-9.364300	28.336222	7.673065E-6	20.698963
2432.712106	-3.021900	3.129300	-9.455300	28.357169	6.352968E-6	20.720056
2433.695745	-3.001900	3.129600	-9.394200	28.321234	6.220958E-6	20.704260
2434.696477	-2.982200	3.127500	-9.325300	28.298054	8.333113E-6	20.703680
2435.699137	-2.989900	3.126800	-9.347200	28.289008	6.319965E-6	20.716385
2436.695444	-3.002400	3.126100	-9.384900	28.329337	6.319965E-6	20.714316
2437.697396	-2.990800	3.125500	-9.347500	28.339819	7.409045E-6	20.713965
2438.698519	-3.007700	3.124500	-9.396500	28.272201	6.022943E-6	20.700884
2439.695573	-2.975200	3.123900	-9.293500	28.196256	4.141805E-6	20.712142
2440.699785	-3.001200	3.122700	-9.371200	28.173771	6.616987E-6	20.708945
2441.699448	-3.002200	3.120900	-9.369000	28.200763	5.164880E-6	20.706248
2442.697178	-2.972800	3.120900	-9.277300	28.172375	5.098875E-6	20.698056
2443.698072	-2.991900	3.118900	-9.330000	28.177417	4.570836E-6	20.713565
2444.698675	-2.991900	3.118100	-9.327900	28.224774	5.791926E-6	20.719517
2445.697396	-3.001700	3.119600	-9.362500	28.188161	6.022943E-6	20.715373
2446.699024	-3.008000	3.117000	-9.374800	28.212327	2.491683E-6	20.706510
2447.701122	-2.993600	3.117100	-9.330800	28.194845	5.923936E-6	20.729689
2448.703706	-2.992700	3.116000	-9.323900	28.263377	3.217737E-6	20.708122
2449.699414	-3.002000	3.113400	-9.344800	28.327709	3.151732E-6	20.718367
2450.699014	-3.007100	3.114900	-9.365900	28.393561	6.154953E-6	20.715448
2451.698772	-2.985500	3.113900	-9.294800	28.428147	2.920715E-6	20.709498
2452.699759	-2.984700	3.111700	-9.286700	28.369838	4.933863E-6	20.730443
2453.702156	-3.020300	3.111000	-9.395600	28.398060	4.570836E-6	20.706227
2454.698053	-2.995000	3.111000	-9.316700	28.421279	4.240812E-6	20.710168
2455.700046	-2.991600	3.109200	-9.301100	28.460880	3.613766E-6	20.714485
2456.703286	-3.003900	3.109000	-9.337900	28.443395	1.336598E-6	20.736233
2457.699433	-2.996200	3.108700	-9.313100	28.339159	5.098875E-6	20.714723
2458.703852	-3.016900	3.105300	-9.367000	28.367681	2.887713E-6	20.722106
2459.705083	-2.996200	3.106000	-9.304900	28.397120	8.085595E-7	20.716187
2460.700879	-3.016300	3.104900	-9.363900	28.380356	3.151732E-6	20.720644
2461.702436	-2.970000	3.104800	-9.220900	28.460851	3.250739E-6	20.718723
2462.703391	-3.020500	3.101100	-9.366700	28.386495	2.821708E-6	20.722084
2463.699960	-2.994700	3.102000	-9.286800	28.353817	4.339819E-6	20.708146
2464.704733	-2.990700	3.101400	-9.274500	28.387275	2.557688E-6	20.700583
2465.703794	-2.994000	3.098900	-9.277600	28.387397	3.316744E-6	20.744331
2466.702737	-2.981800	3.097900	-9.236100	28.374749	2.722700E-6	20.724007
2467.704267	-2.962500	3.097500	-9.175000	28.387219	2.755703E-6	20.737039
2468.704190	-2.995500	3.096600	-9.274500	28.375561	2.590691E-6	20.726248
2469.706223	-2.987600	3.097100	-9.251500	28.349711	2.392676E-6	20.709701
2470.703802	-3.007400	3.093100	-9.301900	28.378031	2.128657E-6	20.731579
2471.710949	-3.010500	3.091800	-9.307400	28.424908	2.392676E-6	20.729471
2472.704813	-3.003800	3.091700	-9.286500	28.471336	6.765498E-7	20.748723
2473.703108	-3.020800	3.089900	-9.332800	28.467464	3.514759E-6	20.733918
2474.710876	-2.997900	3.090300	-9.263900	28.477652	1.006574E-6	20.726159
2475.702127	-3.001000	3.089000	-9.268700	28.533000	1.336598E-6	20.733061
2476.704321	-3.030500	3.088400	-9.358900	28.526084	1.666623E-6	20.724673
2477.703591	-3.015500	3.085700	-9.304100	28.556931	3.052725E-6	20.732031
2478.705709	-2.992400	3.086700	-9.235600	28.590805	1.666623E-6	20.738171
2479.704511	-3.018400	3.083800	-9.307000	28.504475	1.798632E-6	20.719032
2480.704106	-3.010100	3.084400	-9.283500	28.446480	-1.650122E-8	20.738866
2481.708109	-3.008800	3.083700	-9.277600	28.495797	1.930642E-6	20.724518
2482.704909	-3.014300	3.082000	-9.288900	28.485512	1.815134E-7	20.738817
2483.706300	-2.991900	3.081300	-9.216600	28.471160	-1.006574E-6	20.748072
2484.703144	-2.994700	3.080900	-9.225600	28.452967	-6.435474E-7	20.745399
2485.706284	-2.998700	3.078200	-9.230100	28.443372	-4.950365E-8	20.747591
2486.703279	-2.999800	3.077500	-9.230100	28.418416	-1.369601E-6	20.727201
2487.705677	-3.018700	3.076600	-9.286300	28.405751	8.415620E-7	20.726776
2488.703619	-2.990400	3.074100	-9.191500	28.476315	-2.788705E-6	20.725761
2489.707330	-2.986500	3.075400	-9.183600	28.581259	-6.765498E-7	20.719074
2490.707401	-2.985600	3.072900	-9.173100	28.634426	-1.138584E-6	20.744173
2491.706635	-2.961400	3.072400	-9.097600	28.643127	-8.415620E-7	20.734918
2492.709434	-2.976600	3.071500	-9.141500	28.621813	-1.072579E-6	20.728149
2493.707545	-2.968500	3.070500	-9.113000	28.607470	-1.402603E-6	20.760172
2494.708714	-2.990800	3.068600	-9.176700	28.590148	-1.468608E-6	20.755529
2495.706385	-2.990000	3.068700	-9.175000	28.588126	-1.237591E-6	20.741164
2496.707186	-2.998800	3.066900	-9.195400	28.581162	-1.435606E-6	20.739839
2497.706930	-3.011200	3.064100	-9.226300	28.628516	-1.237591E-6	20.723995
2498.706811	-3.029400	3.062000	-9.275100	28.620611	-1.369601E-6	20.749699
2499.705611	-3.000900	3.064000	-9.194000	28.610895	-7.755571E-7	20.744181
2500.708285	-3.007400	3.062100	-9.207600	28.604311	-1.303596E-6	20.737550
2501.706635	-3.005200	3.060400	-9.195700	28.565357	-1.237591E-6	20.738147
2502.720557	-3.016100	3.057800	-9.221700	28.552572	-8.415620E-7	20.764152
2503.708947	-3.018800	3.057700	-9.229500	28.513145	-1.105581E-6	20.727764
2504.708652	-2.996800	3.057900	-9.161700	28.587955	-1.435606E-6	20.742888
2505.709565	-2.980400	3.056600	-9.108500	28.640188	-4.125304E-7	20.753770
2506.708626	-3.001700	3.053100	-9.163900	28.577995	-2.590691E-6	20.749927
2507.710431	-2.977600	3.052900	-9.089200	28.528560	-4.455328E-7	20.745185
2508.712425	-2.998700	3.051600	-9.148900	28.506407	-2.161659E-6	20.749428
2509.711763	-2.988200	3.050300	-9.114200	28.513770	-9.405693E-7	20.749731
2510.711796	-2.998200	3.048700	-9.139900	28.506975	-2.557688E-6	20.752372
2511.709975	-3.007000	3.049300	-9.168200	28.519151	-2.475182E-7	20.765582
2512.717053	-2.991700	3.048100	-9.118600	28.493768	-4.372822E-6	20.736699
2513.711689	-3.001400	3.045600	-9.140100	28.535581	-1.039577E-6	20.739454
2514.711008	-2.992600	3.043500	-9.106500	28.544105	-2.854710E-6	20.757996
2515.714044	-2.999900	3.043600	-9.129600	28.531937	-3.052725E-6	20.747163
2516.713494	-2.988800	3.041700	-9.090300	28.495358	-1.468608E-6	20.771019
2517.712175	-2.979000	3.042100	-9.061700	28.584960	-9.075668E-7	20.752674
2518.712727	-2.980400	3.039400	-9.057800	28.637566	-8.745644E-7	20.748758
2519.712904	-2.992800	3.037300	-9.089100	28.696889	-2.293669E-6	20.775319
2520.715370	-3.024000	3.036200	-9.180400	28.790271	-2.755703E-6	20.754635
2521.713993	-3.013100	3.034700	-9.142600	28.809092	-2.788705E-6	20.758895
2522.713825	-2.993800	3.035100	-9.084300	28.775347	-2.755703E-6	20.756671
2523.713414	-2.978000	3.033000	-9.031700	28.726741	-2.524686E-6	20.772196
2524.712597	-3.005300	3.032000	-9.111400	28.750187	-4.504832E-6	20.771631
2525.715101	-3.002800	3.030700	-9.099500	28.708267	-3.712773E-6	20.747898
2526.716309	-3.005800	3.028000	-9.100800	28.757004	-2.953718E-6	20.786084
2527.715907	-2.997300	3.028200	-9.076000	28.808506	-2.557688E-6	20.753089
2528.718217	-3.000600	3.027400	-9.082800	28.824322	-2.887713E-6	20.778979
2529.717802	-2.969500	3.026600	-8.986900	28.791325	-4.471829E-6	20.793155
2530.717627	-3.001100	3.024700	-9.076100	28.769745	-3.085727E-6	20.779952
2531.718863	-2.993000	3.022800	-9.046600	28.822018	-3.547761E-6	20.783296
2532.719761	-2.966700	3.021700	-8.963400	28.840082	-3.184735E-6	20.774940
2533.718213	-2.966600	3.019800	-8.957200	28.811792	-3.118730E-6	20.763511
2534.718432	-2.988300	3.019200	-9.021600	28.780879	-5.131878E-6	20.763192
2535.718621	-3.017900	3.017000	-9.103300	28.787444	-4.768851E-6	20.767909
2536.719671	-2.980800	3.017100	-8.992700	28.854161	-1.864637E-6	20.762096
2537.718911	-3.000200	3.014800	-9.044200	28.925011	-3.943790E-6	20.743382
2538.719311	-2.983900	3.014000	-8.992100	28.936039	-2.260666E-6	20.783416
2539.719610	-3.013800	3.012300	-9.077600	28.939682	-5.362895E-6	20.768595
2540.721389	-2.988000	3.011200	-8.996600	28.979710	-4.174807E-6	20.758188
2541.719196	-2.993900	3.010800	-9.011800	28.910007	-4.174807E-6	20.780424
2542.718878	-3.011400	3.008400	-9.058500	28.912879	-2.722700E-6	20.772412
2543.720960	-3.011500	3.005500	-9.050400	28.921578	-2.425679E-6	20.784021
2544.720073	-2.984000	3.006500	-8.970200	28.908724	-2.062652E-6	20.766804
2545.719762	-2.988000	3.004300	-8.975800	28.943357	-5.527907E-6	20.770875
2546.721121	-3.028700	3.002700	-9.093200	28.911507	-5.824929E-6	20.784780
2547.722939	-3.024300	3.001900	-9.077300	28.886310	-3.877786E-6	20.770776
2548.720407	-2.991200	3.000100	-8.972400	28.817965	-5.263888E-6	20.762617
2549.720613	-3.011700	2.997800	-9.027300	28.798025	-3.514759E-6	20.762445
2550.721912	-2.983000	2.998300	-8.942100	28.782547	-5.659917E-6	20.780046
2551.721162	-2.988000	2.994500	-8.945900	28.751027	-3.679771E-6	20.779115
2552.722644	-3.011700	2.994200	-9.016400	28.782216	-4.339820E-6	20.790143
2553.722612	-3.002700	2.992700	-8.984500	28.810636	-4.603839E-6	20.788426
2554.722962	-3.014400	2.991100	-9.015800	28.864399	-5.065873E-6	20.777152
2555.723849	-3.008500	2.989700	-8.994200	28.850774	-4.306817E-6	20.785237
2556.725399	-2.988600	2.988000	-8.928700	28.847698	-3.415752E-6	20.787355
2557.724214	-2.969500	2.987400	-8.869600	28.812729	-5.296890E-6	20.791957
2558.723951	-3.038500	2.984400	-9.067000	28.761763	-2.986720E-6	20.778076
2559.725847	-3.004600	2.984500	-8.966500	28.796003	-1.996647E-6	20.785539
2560.723537	-3.002300	2.982500	-8.953300	28.855002	-5.857931E-6	20.811782
2561.725315	-3.001000	2.980900	-8.944400	28.849703	-5.098876E-6	20.792693
2562.728640	-3.040400	2.979000	-9.056000	28.812470	-4.141805E-6	20.787429
2563.725129	-3.001400	2.978400	-8.938100	28.869301	-3.580764E-6	20.805798
2564.730562	-3.012000	2.977700	-8.968000	28.834471	-6.451975E-6	20.794892
2565.729517	-3.015100	2.975800	-8.971000	28.777687	-4.042798E-6	20.788426
2566.730366	-3.001500	2.973800	-8.925100	28.831541	-3.316744E-6	20.793838
2567.731021	-2.987900	2.972000	-8.879500	28.789698	-4.999868E-6	20.781559
2568.730913	-3.017800	2.971700	-8.967300	28.849501	-4.075800E-6	20.804343
2569.732112	-3.023200	2.970500	-8.979100	28.831088	-4.933863E-6	20.807132
2570.731320	-2.990900	2.968900	-8.878900	28.764597	-7.409046E-6	20.794207
2571.732257	-2.983600	2.966800	-8.850900	28.789593	-6.451975E-6	20.805635
2572.730771	-2.995600	2.964600	-8.879800	28.702429	-6.748997E-6	20.796071
2573.732512	-2.998400	2.963200	-8.884300	28.751734	-5.098876E-6	20.790259
2574.730805	-2.992900	2.962400	-8.864300	28.776933	-4.669844E-6	20.794779
2575.734437	-2.992300	2.961600	-8.861300	28.718929	-4.141805E-6	20.791828
2576.729780	-3.015200	2.959700	-8.921700	28.814582	-5.923936E-6	20.818005
2577.732674	-2.985000	2.957900	-8.828600	28.851766	-6.715995E-6	20.799987
2578.729728	-2.991700	2.956700	-8.844400	28.825927	-3.976793E-6	20.787234
2579.735167	-3.008700	2.955500	-8.891400	28.882579	-5.989941E-6	20.795467
2580.735498	-3.022500	2.953300	-8.925300	28.901925	-5.758924E-6	20.801680
2581.731785	-2.994600	2.950700	-8.835100	28.901730	-1.996647E-6	20.799587
2582.735310	-3.006500	2.951000	-8.871800	28.900140	-4.966866E-6	20.804623
2583.736506	-3.008200	2.948800	-8.870000	28.937370	-5.527907E-6	20.799931
2584.738084	-3.011500	2.946700	-8.872400	28.861148	-4.933863E-6	20.792843
2585.735443	-3.002100	2.946200	-8.843000	28.829215	-6.782000E-6	20.814254
2586.738257	-2.982400	2.944000	-8.779400	28.833597	-4.603839E-6	20.813927
2587.734953	-2.987200	2.942900	-8.789500	28.857002	-5.956939E-6	20.821857
2588.738519	-2.987700	2.942000	-8.788500	28.898891	-4.966866E-6	20.798624
2589.736006	-3.008300	2.939400	-8.841700	28.922773	-4.933863E-6	20.805139
2590.736805	-3.011400	2.937300	-8.843900	29.018748	-4.966866E-6	20.813168
2591.735204	-2.990900	2.937800	-8.785600	29.001141	-5.890934E-6	20.803962
2592.742230	-2.999900	2.934300	-8.801700	29.041247	-4.636841E-6	20.821137
2593.738988	-3.003600	2.932500	-8.806800	29.028136	-4.801854E-6	20.819781
2594.735338	-3.044700	2.930100	-8.919100	29.043098	-4.735849E-6	20.821579
2595.740908	-2.996400	2.929800	-8.778400	29.099543	-5.857931E-6	20.817287
2596.735661	-2.985600	2.928800	-8.743800	29.088956	-4.900861E-6	20.818948
2597.741221	-3.025200	2.924900	-8.847700	29.091787	-4.570837E-6	20.810895
2598.737985	-2.966300	2.925500	-8.676800	29.154005	-5.197883E-6	20.821432
2599.738310	-2.994300	2.922300	-8.749200	29.111129	-5.659917E-6	20.834651
2600.742011	-3.018500	2.920500	-8.814800	29.133701	-4.966866E-6	20.809981
2601.739255	-2.984300	2.921000	-8.716300	29.129846	-4.966866E-6	20.821744
2602.738610	-2.978500	2.918600	-8.691400	29.066417	-4.471829E-6	20.833221
2603.740350	-2.976200	2.916900	-8.680300	29.034783	-4.174807E-6	20.826952
2604.738309	-2.951000	2.915200	-8.601400	29.060738	-6.187956E-6	20.834612
2605.737477	-3.006500	2.911900	-8.754200	29.031691	-4.075800E-6	20.821466
2606.736522	-2.996800	2.910500	-8.721300	29.045906	-4.438827E-6	20.810659
2607.741518	-2.968700	2.910100	-8.638000	29.039238	-6.583985E-6	20.847087
2608.740397	-2.987900	2.907100	-8.684600	29.087635	-5.032871E-6	20.842746
2609.742880	-3.001600	2.905600	-8.720100	29.148013	-5.296890E-6	20.832936
2610.745557	-3.021400	2.903100	-8.770100	29.131414	-5.131878E-6	20.833754
2611.740501	-3.019800	2.901400	-8.760600	29.161683	-4.669844E-6	20.825849
2612.742053	-3.022200	2.900400	-8.764600	29.180399	-4.966866E-6	20.836174
2613.740382	-3.027700	2.896800	-8.769100	29.093511	-3.151732E-6	20.831597
2614.743411	-3.027500	2.896100	-8.766700	29.077811	-3.349747E-6	20.852762
2615.742799	-2.982500	2.894600	-8.632300	29.034046	-4.801854E-6	20.848020
2616.743508	-2.984100	2.893900	-8.634400	29.072788	-4.966866E-6	20.840589
2617.742982	-2.994600	2.890400	-8.655100	29.094549	-6.187956E-6	20.842127
2618.743941	-2.997400	2.888500	-8.657000	29.064781	-6.484978E-6	20.832047
2619.744357	-2.992400	2.888100	-8.641500	29.164386	-3.943790E-6	20.843272
2620.742239	-2.994000	2.885100	-8.637400	29.211334	-2.887713E-6	20.833209
2621.743270	-3.004200	2.882800	-8.659800	29.246922	-5.164880E-6	20.850106
2622.744830	-3.009200	2.882100	-8.671000	29.283272	-7.079021E-6	20.849755
2623.746176	-2.993600	2.882000	-8.627000	29.222853	-4.372822E-6	20.821110
2624.744904	-3.008500	2.877800	-8.656900	29.244602	-5.560910E-6	20.853931
2625.746356	-3.000700	2.876500	-8.630900	29.297662	-6.550982E-6	20.831067
2626.749763	-3.017900	2.873900	-8.671900	29.292333	-5.494905E-6	20.835653
2627.748846	-2.979500	2.873000	-8.559100	29.286810	-1.072579E-6	20.852371
2628.751218	-2.985500	2.872500	-8.574400	29.289413	-4.471829E-6	20.862107
2629.750474	-2.993100	2.867700	-8.582100	29.309497	-6.286963E-6	20.861959
2630.749418	-2.984800	2.866900	-8.556000	29.318802	-4.801854E-6	20.859009
2631.749258	-3.039100	2.863600	-8.701700	29.257834	-5.824929E-6	20.849723
2632.747901	-2.968100	2.863400	-8.497700	29.190015	-7.178029E-6	20.868621
2633.747797	-2.972100	2.861000	-8.502000	29.131148	-4.141805E-6	20.850081
2634.751474	-3.008200	2.859000	-8.599400	29.045528	-4.174807E-6	20.861011
2635.747393	-3.011500	2.856600	-8.601400	28.992504	-6.649990E-6	20.832244
2636.746252	-2.960700	2.855300	-8.452000	29.065764	-5.758924E-6	20.838253
2637.751545	-3.009200	2.852200	-8.581700	29.122678	-4.438827E-6	20.839176
2638.747111	-3.022900	2.850500	-8.616100	29.214701	-4.207810E-6	20.847033
2639.750713	-3.027900	2.847800	-8.622000	29.228402	-4.867859E-6	20.855624
2640.747587	-3.009700	2.845900	-8.563700	29.203465	-6.682992E-6	20.843296
2641.750872	-3.032500	2.844100	-8.624300	29.197648	-7.013017E-6	20.857822
2642.748335	-3.008100	2.842000	-8.547400	29.143909	-6.286963E-6	20.838759
2643.752801	-2.992500	2.839900	-8.498100	29.171225	-4.504832E-6	20.858697
2644.750825	-2.970400	2.837800	-8.428800	29.189081	-5.593912E-6	20.843974
2645.748371	-2.983000	2.835800	-8.458200	29.255374	-5.131878E-6	20.855778
2646.756516	-2.989500	2.835200	-8.475000	29.345950	-6.352968E-6	20.855076
2647.752246	-3.000100	2.831500	-8.494000	29.301458	-4.108803E-6	20.841056
2648.750893	-2.993700	2.831100	-8.474800	29.275038	-5.824929E-6	20.828654
2649.753968	-3.015400	2.827500	-8.524900	29.225140	-4.999868E-6	20.843328
2650.750579	-2.999900	2.825100	-8.473800	29.225781	-3.481756E-6	20.829276
2651.749377	-3.002600	2.823400	-8.476900	29.266310	-4.207810E-6	20.834084
2652.752984	-2.987000	2.822100	-8.428800	29.289713	-4.768851E-6	20.813573
2653.752645	-3.054900	2.815400	-8.600200	29.355635	-5.824929E-6	20.814103
2654.755542	-2.981200	2.815200	-8.391700	29.358433	-4.603839E-6	20.827355
2655.755127	-3.019300	2.812200	-8.489400	29.330595	-6.748997E-6	20.839127
2656.750405	-2.974000	2.811100	-8.359400	29.339039	-5.626914E-6	20.821559
2657.754250	-2.978100	2.807300	-8.358900	29.368142	-4.801854E-6	20.821493
2658.756925	-3.001000	2.804200	-8.414800	29.451920	-5.923936E-6	20.817742
2659.754122	-2.996500	2.802200	-8.395900	29.517775	-4.702846E-6	20.831018
2660.752242	-3.011800	2.798800	-8.428500	29.424489	-6.055946E-6	20.828974
2661.755667	-3.018400	2.796300	-8.439400	29.340256	-7.343041E-6	20.818044
2662.751253	-2.979400	2.795700	-8.327200	29.301141	-7.310038E-6	20.822719
2663.752636	-3.007800	2.790100	-8.391300	29.359771	-6.980014E-6	20.814005
2664.766357	-2.992700	2.788900	-8.344400	29.375749	-4.966866E-6	20.832479
2665.749786	-3.011100	2.786800	-8.388800	29.442146	-7.541055E-6	20.828753
2666.752595	-2.996700	2.782900	-8.338500	29.431870	-5.923936E-6	20.808912
2667.756710	-2.994200	2.780000	-8.323200	29.403352	-7.409046E-6	20.815730
2668.754383	-2.996000	2.777700	-8.321100	29.342655	-5.857931E-6	20.794857
2669.754025	-2.982800	2.774700	-8.275400	29.350669	-7.772072E-6	20.825220
2670.755900	-2.993900	2.771500	-8.297200	29.348171	-5.890934E-6	20.812745
2671.752683	-2.982900	2.769600	-8.260300	29.338981	-8.531128E-6	20.817707
2672.755863	-2.990700	2.766100	-8.271800	29.262949	-6.881007E-6	20.792764
2673.754430	-2.984900	2.762300	-8.243900	29.309454	-8.135099E-6	20.801699
2674.758346	-2.990300	2.760000	-8.252300	29.399262	-6.319965E-6	20.811133
2675.755050	-2.988600	2.757800	-8.240100	29.399813	-8.135099E-6	20.805525
2676.755522	-2.996400	2.754000	-8.250600	29.458291	-6.649990E-6	20.809465
2677.759908	-3.011900	2.749900	-8.281600	29.508307	-7.541055E-6	20.794447
2678.760860	-3.005100	2.747300	-8.255000	29.476669	-5.098876E-6	20.801911
2679.762033	-2.997000	2.744700	-8.224700	29.465752	-5.527907E-6	20.796597
2680.761173	-3.011200	2.739800	-8.248900	29.478136	-6.451975E-6	20.810976
2681.760413	-2.996900	2.735500	-8.197300	29.513917	-5.362895E-6	20.792042
2682.759738	-3.009600	2.734100	-8.227900	29.575017	-7.211031E-6	20.809062
2683.762783	-2.992600	2.729900	-8.168900	29.669781	-5.527907E-6	20.802653
2684.762314	-3.003200	2.727700	-8.191200	29.680549	-6.484978E-6	20.791224
2685.758287	-3.015600	2.724400	-8.214700	29.667843	-8.201104E-6	20.799751
2686.761334	-3.013900	2.720400	-8.197400	29.620940	-6.682992E-6	20.802252
2687.760728	-2.996200	2.716200	-8.136500	29.583766	-6.815002E-6	20.782321
2688.760938	-2.981400	2.713100	-8.088100	29.630037	-5.197883E-6	20.798621
2689.767143	-2.958800	2.709900	-8.017300	29.622617	-5.428900E-6	20.798727
2690.760221	-3.013900	2.704700	-8.150700	29.618189	-3.514759E-6	20.795686
2691.761311	-2.984600	2.701600	-8.062400	29.666040	-5.758924E-6	20.802201
2692.760370	-2.990600	2.697600	-8.066300	29.704476	-6.055946E-6	20.805864
2693.758758	-3.011700	2.693400	-8.110100	29.682501	-5.791927E-6	20.801727
2694.760548	-2.993600	2.690100	-8.051800	29.697025	-5.593912E-6	20.774169
2695.763124	-3.027700	2.684900	-8.127600	29.684132	-5.560910E-6	20.778714
2696.761602	-3.011100	2.680900	-8.071900	29.720686	-5.164880E-6	20.787593
2697.761812	-3.002300	2.676200	-8.034200	29.785867	-4.207810E-6	20.794991
2698.761864	-2.996600	2.671800	-8.005100	29.731429	-5.329893E-6	20.791787
2699.765434	-3.020800	2.667000	-8.055700	29.759970	-5.857931E-6	20.792114
2700.763890	-3.028100	2.662900	-8.063000	29.834741	-5.824929E-6	20.794010
2701.766786	-2.990700	2.659900	-7.953600	29.847657	-5.428900E-6	20.792809
2702.763094	-3.011300	2.654100	-7.991400	29.868493	-5.857931E-6	20.788215
2703.768687	-2.987800	2.650700	-7.919100	29.879454	-5.725922E-6	20.782672
2704.764349	-2.994400	2.644400	-7.917700	29.839955	-7.970087E-6	20.784569
2705.763944	-2.986500	2.641500	-7.887900	29.805084	-6.187956E-6	20.796823
2706.766606	-2.982400	2.635700	-7.860200	29.692266	-9.356189E-6	20.786441
2707.764092	-2.992000	2.630700	-7.870100	29.641050	-6.881007E-6	20.783171
2708.769186	-2.988200	2.625800	-7.845100	29.624069	-7.145026E-6	20.782648
2709.766172	-2.983900	2.620600	-7.819200	29.636581	-7.706068E-6	20.785778
2710.768966	-3.004400	2.616000	-7.858700	29.668263	-8.366116E-6	20.784527
2711.768250	-3.008700	2.611500	-7.855100	29.655313	-6.220958E-6	20.791386
2712.766742	-2.967100	2.605600	-7.730400	29.740024	-6.815002E-6	20.781486
2713.767219	-3.037600	2.597700	-7.889900	29.814026	-7.178029E-6	20.784502
2714.766162	-3.005400	2.593600	-7.794100	29.774904	-5.725922E-6	20.801481
2715.768311	-3.033100	2.587100	-7.845200	29.766983	-6.088948E-6	20.780692
2716.766402	-3.036300	2.581400	-7.836700	29.707362	-6.022944E-6	20.812566
2717.768956	-2.992600	2.576500	-7.708500	29.691574	-5.329893E-6	20.785743
2718.766285	-3.016400	2.571400	-7.755300	29.755631	-5.263888E-6	20.787264
2719.767894	-3.004800	2.564800	-7.706000	29.814689	-4.141805E-6	20.777110
2720.768842	-3.014200	2.558400	-7.710500	29.860010	-4.966866E-6	20.759271
2721.775593	-3.001600	2.552800	-7.661300	29.878899	-4.702846E-6	20.771681
2722.767737	-2.998400	2.545900	-7.633100	29.911320	-5.263888E-6	20.773079
2723.770739	-2.967000	2.541800	-7.540400	29.951496	-5.791927E-6	20.761910
2724.780793	-2.993700	2.535000	-7.588400	29.906803	-4.174807E-6	20.787490
2725.795856	-2.977300	2.528400	-7.527200	29.932347	-3.712773E-6	20.772472
2726.770706	-2.979600	2.522900	-7.516600	30.001586	-3.910788E-6	20.778285
2727.768955	-3.011600	2.516100	-7.577000	30.001367	-6.385970E-6	20.790866
2728.771270	-2.980700	2.510200	-7.481700	29.972742	-5.098876E-6	20.764370
2729.771349	-2.993200	2.503200	-7.491000	29.966905	-4.471829E-6	20.784088
2730.782815	-3.006900	2.497300	-7.508300	29.983369	-6.947012E-6	20.778880
