LabVIEW Measurement	
Writer_Version	2
Reader_Version	2
Separator	Tab
Decimal_Separator	.
Multi_Headings	No
X_Columns	One
Time_Pref	Absolute
Operator	admin
Description	Clolumns are: time, Current, Voltage, Power, Battery Temp, and Chamber Temp
Date	2024/08/16
Time	13:07:17.8513970375061035156
***End_of_Header***	
	
Channels	6						
Samples	1	1	1	1	1	1	
Date	2024/09/09	2024/09/09	2024/09/09	2024/09/09	2024/09/09	2024/09/09	
Time	20:13:11.2384281158447265625	20:13:11.2484607696533203125	20:13:11.2572784423828125	20:13:11.2198638916015625	20:13:11.2198638916015625	20:13:11.2198638916015625	
X_Dimension	Time	Time	Time	Time	Time	Time	
X0	0.0000000000000000E+0	0.0000000000000000E+0	0.0000000000000000E+0	0.0000000000000000E+0	0.0000000000000000E+0	0.0000000000000000E+0	
Delta_X	1.000000	1.000000	1.000000	1.000000	1.000000	1.000000	
***End_of_Header***							
X_Value	Untitled	Untitled 1	Untitled 2	Untitled 3	Untitled 4	Untitled 5	Comment
0.000000	-0.002708	4.089000	-0.010986	20.844422	0.000465	20.847267
0.998385	-2.984300	3.921100	-11.701000	20.832618	0.000464	20.866282
1.997160	-3.004300	3.913900	-11.757000	20.862839	0.000462	20.876588
2.999293	-3.003100	3.910600	-11.743000	20.852860	0.000464	20.877515
4.000556	-3.009900	3.906300	-11.756000	20.853133	0.000461	20.862616
5.002739	-3.011000	3.903700	-11.753000	20.858401	0.000460	20.851763
5.999946	-3.015200	3.900100	-11.759000	20.886697	0.000460	20.854456
7.003802	-2.994700	3.898400	-11.674000	20.885705	0.000459	20.866266
8.005439	-3.000900	3.896800	-11.693000	20.877567	0.000459	20.880886
9.001400	-2.994800	3.894500	-11.662000	20.910708	0.000460	20.877046
10.003314	-2.993900	3.893500	-11.656000	20.892546	0.000460	20.872159
11.000408	-2.979500	3.892500	-11.597000	20.902952	0.000459	20.871186
12.005188	-3.000700	3.891100	-11.675000	20.907597	0.000456	20.871090
13.003391	-3.000000	3.888900	-11.666000	20.935668	0.000455	20.876404
14.003065	-3.000100	3.888500	-11.664000	20.940437	0.000456	20.869320
15.006301	-3.010600	3.888600	-11.706000	20.938091	0.000453	20.903956
16.006675	-3.020500	3.886200	-11.737000	20.944260	0.000454	20.870299
17.008518	-3.017700	3.884300	-11.721000	20.954340	0.000454	20.860941
18.006886	-3.004100	3.885100	-11.670000	20.970236	0.000453	20.881579
19.003414	-3.008500	3.882700	-11.681000	20.955096	0.000452	20.850317
20.007154	-2.983500	3.883200	-11.584000	20.993598	0.000455	20.862747
21.014070	-2.988800	3.882300	-11.602000	20.986413	0.000453	20.879267
22.004720	-2.998600	3.882000	-11.640000	20.976237	0.000453	20.883313
23.008713	-2.992300	3.880700	-11.610000	21.006131	0.000450	20.875755
24.010983	-2.981900	3.881000	-11.572000	21.015687	0.000452	20.876778
25.008918	-2.992800	3.879700	-11.610000	21.025121	0.000451	20.875783
26.008113	-2.999700	3.878900	-11.634000	21.023052	0.000451	20.866601
27.006805	-2.984100	3.878100	-11.572000	21.053741	0.000450	20.868373
28.007185	-2.975300	3.878800	-11.540000	21.030714	0.000449	20.879480
29.012221	-3.016700	3.876500	-11.694000	21.064449	0.000451	20.862014
30.008113	-2.990500	3.876800	-11.592000	21.061103	0.000450	20.889011
31.005633	-2.985400	3.877400	-11.574000	21.079464	0.000448	20.901211
32.010353	-3.009400	3.875000	-11.660000	21.074076	0.000448	20.892978
33.010140	-3.004600	3.875400	-11.642000	21.071860	0.000450	20.889340
34.012325	-2.989700	3.875600	-11.586000	21.119335	0.000451	20.860016
35.011906	-3.004600	3.874200	-11.639000	21.110579	0.000448	20.872594
36.016866	-2.992300	3.874600	-11.593000	21.108333	0.000449	20.892157
37.010769	-2.978600	3.874400	-11.540000	21.116565	0.000448	20.880477
38.016664	-3.003200	3.873600	-11.633000	21.165438	0.000447	20.884320
39.010651	-2.990100	3.873500	-11.580000	21.145130	0.000447	20.892928
40.011805	-2.998000	3.872400	-11.609000	21.152466	0.000447	20.890784
41.015028	-2.969200	3.873200	-11.499000	21.169629	0.000446	20.897995
42.015744	-2.988500	3.872500	-11.572000	21.162519	0.000447	20.890409
43.010746	-2.997100	3.872600	-11.606000	21.176287	0.000448	20.891853
44.008765	-2.975300	3.871900	-11.519000	21.192006	0.000446	20.898094
45.013643	-2.996600	3.870500	-11.598000	21.184720	0.000445	20.879901
46.018078	-2.999000	3.871300	-11.609000	21.193698	0.000448	20.896467
47.014941	-3.022900	3.868700	-11.694000	21.210542	0.000446	20.893402
48.015053	-3.006000	3.870700	-11.635000	21.197642	0.000447	20.882396
49.019994	-2.997200	3.870600	-11.600000	21.238503	0.000445	20.894822
50.014687	-3.027000	3.869000	-11.710000	21.236685	0.000445	20.893003
51.014134	-3.007300	3.869700	-11.636000	21.253423	0.000446	20.868971
52.016159	-3.004600	3.869200	-11.624000	21.233637	0.000446	20.888057
53.014929	-3.008100	3.868200	-11.635000	21.251502	0.000445	20.881748
54.015965	-3.013200	3.868100	-11.655000	21.272477	0.000446	20.865275
55.015940	-3.010000	3.869700	-11.646000	21.267087	0.000446	20.858935
56.012059	-3.016400	3.867300	-11.664000	21.278214	0.000445	20.885712
57.012581	-2.985900	3.869000	-11.551000	21.297247	0.000443	20.879148
58.014687	-3.023500	3.866700	-11.690000	21.291160	0.000444	20.881119
59.014822	-3.018000	3.866700	-11.669000	21.319147	0.000443	20.877825
60.019705	-3.000400	3.866300	-11.600000	21.323336	0.000444	20.857835
61.015237	-2.990500	3.868300	-11.567000	21.327375	0.000445	20.879418
62.017573	-3.025700	3.866800	-11.699000	21.356814	0.000446	20.889904
63.016316	-3.020600	3.865600	-11.675000	21.348206	0.000446	20.868017
64.019959	-3.013600	3.866400	-11.651000	21.348903	0.000446	20.857336
65.022077	-2.993800	3.865600	-11.571000	21.367956	0.000445	20.878293
66.018476	-2.987400	3.867800	-11.554000	21.373396	0.000443	20.879942
67.020302	-2.993500	3.865700	-11.571000	21.394443	0.000443	20.864966
68.020941	-3.008400	3.865300	-11.627000	21.400880	0.000442	20.862871
69.020745	-2.995800	3.866400	-11.582000	21.420811	0.000445	20.856735
70.017508	-3.013400	3.864200	-11.643000	21.403398	0.000444	20.890993
71.022483	-2.997600	3.865800	-11.587000	21.423481	0.000444	20.879319
72.017986	-2.992800	3.863700	-11.562000	21.432782	0.000446	20.852591
73.021300	-2.983200	3.865700	-11.531000	21.417968	0.000445	20.860528
74.018094	-3.012700	3.863900	-11.640000	21.458824	0.000445	20.883388
75.018801	-2.998900	3.864000	-11.587000	21.460469	0.000446	20.860379
76.022007	-3.001600	3.864200	-11.598000	21.473041	0.000445	20.848302
77.021170	-2.995100	3.863600	-11.571000	21.482769	0.000447	20.864674
78.020351	-3.004100	3.863100	-11.604000	21.479102	0.000446	20.868591
79.023410	-2.993600	3.863100	-11.564000	21.516243	0.000447	20.864503
80.021070	-3.009700	3.862900	-11.625000	21.489282	0.000445	20.859811
81.023886	-3.005000	3.863800	-11.609000	21.522329	0.000447	20.852575
82.021721	-2.992200	3.862100	-11.555000	21.517420	0.000445	20.855724
83.020932	-2.986800	3.864100	-11.541000	21.541884	0.000446	20.853651
84.021458	-3.005400	3.862000	-11.606000	21.525054	0.000446	20.862414
85.023235	-3.005500	3.861800	-11.606000	21.552463	0.000447	20.866133
86.021453	-3.005100	3.861900	-11.604000	21.552361	0.000448	20.856548
87.018709	-2.992900	3.862600	-11.560000	21.561190	0.000448	20.842625
88.021888	-2.993000	3.862200	-11.559000	21.537402	0.000447	20.852485
89.020940	-3.014800	3.861200	-11.640000	21.564039	0.000446	20.855906
90.021657	-2.997200	3.861700	-11.573000	21.557752	0.000447	20.847245
91.023081	-2.980000	3.862600	-11.509000	21.578304	0.000447	20.860223
92.016782	-2.994100	3.860600	-11.558000	21.575838	0.000448	20.853489
93.021406	-2.988400	3.861100	-11.538000	21.578855	0.000447	20.864093
94.020321	-3.015900	3.859900	-11.640000	21.587359	0.000448	20.849845
95.020976	-3.008500	3.859500	-11.611000	21.613147	0.000449	20.842460
96.024781	-2.986800	3.859900	-11.529000	21.607511	0.000448	20.870009
97.020565	-2.998500	3.859700	-11.573000	21.643895	0.000449	20.847626
98.024722	-3.030900	3.858600	-11.694000	21.641003	0.000448	20.854214
99.026407	-3.025100	3.859300	-11.674000	21.652101	0.000447	20.846355
100.022519	-2.993900	3.860800	-11.558000	21.651878	0.000450	20.836649
101.025476	-3.008800	3.859000	-11.610000	21.664321	0.000448	20.834877
102.026068	-2.995900	3.859500	-11.562000	21.666541	0.000448	20.845159
103.025002	-2.988400	3.858700	-11.530000	21.702277	0.000451	20.844412
104.026826	-2.987200	3.858500	-11.525000	21.703726	0.000451	20.834483
105.035259	-2.983600	3.859500	-11.513000	21.724247	0.000451	20.847433
106.028309	-2.991300	3.858700	-11.540000	21.720333	0.000450	20.830240
107.029034	-3.004200	3.859200	-11.592000	21.731406	0.000448	20.839425
108.033457	-2.993300	3.858300	-11.548000	21.740510	0.000451	20.851855
109.024399	-2.988300	3.858600	-11.529000	21.741733	0.000451	20.836959
110.025975	-3.004600	3.858300	-11.592000	21.736800	0.000451	20.837237
111.030703	-2.987800	3.859600	-11.530000	21.737772	0.000449	20.842952
112.030036	-3.014400	3.857800	-11.628000	21.756475	0.000451	20.828480
113.025701	-2.984100	3.858000	-11.511000	21.766622	0.000451	20.825833
114.029705	-3.001900	3.856900	-11.577000	21.760367	0.000453	20.835694
115.026949	-3.005500	3.857400	-11.592000	21.786374	0.000452	20.835170
116.037768	-3.010600	3.857500	-11.613000	21.790789	0.000453	20.819675
117.033483	-3.012100	3.857100	-11.617000	21.818591	0.000452	20.827587
118.031600	-3.005000	3.855800	-11.586000	21.823827	0.000453	20.850844
119.034022	-3.006100	3.857600	-11.595000	21.819040	0.000456	20.840364
120.034149	-2.992800	3.856400	-11.540000	21.843076	0.000452	20.833602
121.032070	-2.995400	3.856300	-11.550000	21.818470	0.000453	20.852595
122.032990	-2.984400	3.856700	-11.509000	21.839339	0.000453	20.839818
123.034649	-3.005000	3.855900	-11.587000	21.850637	0.000453	20.835480
124.033217	-2.982000	3.856000	-11.498000	21.867713	0.000452	20.831234
125.032975	-2.993800	3.854800	-11.538000	21.874596	0.000453	20.835278
126.035772	-3.002400	3.856400	-11.577000	21.881252	0.000454	20.820605
127.032996	-3.009500	3.854900	-11.600000	21.876667	0.000452	20.812696
128.032377	-2.981600	3.855800	-11.495000	21.878137	0.000456	20.834556
129.037583	-3.002200	3.855400	-11.574000	21.893123	0.000455	20.829167
130.034317	-3.003100	3.854300	-11.573000	21.910702	0.000454	20.831590
131.037652	-2.998100	3.854400	-11.555000	21.933962	0.000457	20.830692
132.036618	-3.007000	3.853800	-11.587000	21.907411	0.000454	20.815494
133.036198	-2.989100	3.854500	-11.521000	21.917411	0.000453	20.822185
134.032525	-2.988000	3.855400	-11.519000	21.931770	0.000455	20.802894
135.033107	-3.000900	3.853700	-11.563000	21.949198	0.000456	20.830295
136.041622	-3.003600	3.852900	-11.571000	21.942018	0.000459	20.823108
137.035196	-2.996500	3.852300	-11.542000	21.947452	0.000457	20.850357
138.033890	-3.038800	3.850600	-11.699000	21.959622	0.000456	20.814651
139.037564	-3.017100	3.854400	-11.627000	21.945733	0.000457	20.824931
140.034259	-2.987200	3.853600	-11.511000	21.969494	0.000460	20.817422
141.033885	-3.012500	3.854500	-11.609000	21.961095	0.000458	20.805695
142.034850	-3.019000	3.852300	-11.629000	21.979844	0.000457	20.818773
143.035985	-2.993000	3.851900	-11.528000	21.983460	0.000458	20.811961
144.038929	-3.001700	3.852700	-11.563000	22.013926	0.000460	20.812113
145.036969	-3.011000	3.852600	-11.599000	22.010235	0.000458	20.829755
146.036004	-2.995200	3.852900	-11.539000	22.016544	0.000461	20.819476
147.041589	-2.999800	3.852800	-11.557000	22.024597	0.000461	20.816157
148.039137	-3.004800	3.851200	-11.571000	22.041499	0.000460	20.819802
149.036433	-3.016800	3.851700	-11.617000	22.041100	0.000461	20.814186
150.038552	-3.006200	3.850600	-11.574000	22.058850	0.000459	20.821999
151.043654	-3.012900	3.851200	-11.603000	22.079962	0.000462	20.816108
152.043172	-3.004100	3.850900	-11.567000	22.087268	0.000462	20.800188
153.048380	-2.996800	3.851000	-11.539000	22.084699	0.000461	20.814685
154.044098	-2.998900	3.851100	-11.548000	22.092326	0.000461	20.817580
155.039270	-2.993700	3.851500	-11.530000	22.096564	0.000462	20.812339
156.038953	-3.001600	3.850000	-11.555000	22.105040	0.000462	20.815134
157.044939	-2.991300	3.849700	-11.515000	22.086417	0.000462	20.800284
158.041982	-3.026800	3.849600	-11.651000	22.104761	0.000462	20.800631
159.045447	-3.017700	3.849500	-11.616000	22.127123	0.000464	20.811165
160.041377	-3.009100	3.849200	-11.581000	22.127448	0.000464	20.799162
161.044814	-2.988100	3.849200	-11.501000	22.136493	0.000462	20.810588
162.044930	-3.008900	3.848100	-11.576000	22.166803	0.000465	20.802528
163.049697	-3.000300	3.849700	-11.549000	22.165481	0.000463	20.810687
164.045781	-3.006700	3.849600	-11.573000	22.163339	0.000465	20.798586
165.042787	-2.995600	3.849900	-11.532000	22.160470	0.000467	20.803299
166.046521	-2.980900	3.849100	-11.473000	22.182927	0.000466	20.800653
167.044763	-3.006700	3.848000	-11.568000	22.173978	0.000465	20.799280
168.051394	-3.006100	3.847800	-11.566000	22.207131	0.000466	20.824413
169.042066	-2.987000	3.847300	-11.492000	22.201845	0.000467	20.813430
170.048585	-3.007600	3.848200	-11.573000	22.190377	0.000467	20.820914
171.047192	-3.015200	3.848000	-11.602000	22.219113	0.000468	20.806538
172.051386	-2.991600	3.848900	-11.513000	22.212833	0.000467	20.798828
173.049910	-3.002300	3.847000	-11.549000	22.240451	0.000470	20.788548
174.051418	-2.982500	3.848600	-11.477000	22.245110	0.000469	20.798428
175.047497	-2.992500	3.847500	-11.513000	22.245357	0.000470	20.813375
176.050848	-2.992400	3.848400	-11.515000	22.228257	0.000468	20.816167
177.051663	-2.976500	3.846300	-11.448000	22.236459	0.000469	20.812525
178.049610	-3.003300	3.846100	-11.550000	22.258193	0.000471	20.778337
179.052493	-3.008600	3.846500	-11.571000	22.276559	0.000467	20.785821
180.051223	-3.010200	3.846000	-11.576000	22.278230	0.000469	20.804564
181.056334	-2.999700	3.846400	-11.537000	22.283885	0.000469	20.808804
182.050166	-2.989500	3.845200	-11.495000	22.290165	0.000471	20.804660
183.057669	-3.020100	3.845100	-11.611000	22.295720	0.000469	20.797421
184.054479	-3.016700	3.844600	-11.597000	22.303919	0.000471	20.786190
185.055911	-2.995000	3.845500	-11.516000	22.312068	0.000469	20.793876
186.051064	-3.005900	3.844600	-11.555000	22.321864	0.000475	20.785666
187.053368	-3.010600	3.845200	-11.575000	22.327595	0.000471	20.785716
188.056310	-3.009400	3.844200	-11.568000	22.338059	0.000472	20.816108
189.049419	-2.996800	3.845000	-11.521000	22.356177	0.000473	20.805327
190.053762	-2.986500	3.844500	-11.481000	22.390043	0.000473	20.782341
191.052721	-2.961100	3.844200	-11.381000	22.383064	0.000471	20.790052
192.056000	-2.995400	3.844400	-11.515000	22.401528	0.000473	20.812334
193.056640	-2.993300	3.842500	-11.500000	22.416605	0.000471	20.799932
194.058383	-3.021800	3.842600	-11.611000	22.410948	0.000472	20.803275
195.049958	-2.997200	3.844000	-11.520000	22.421637	0.000475	20.805445
196.050416	-2.999100	3.843000	-11.525000	22.421909	0.000475	20.786277
197.056890	-3.013200	3.843400	-11.580000	22.430506	0.000473	20.804844
198.059489	-3.013100	3.843200	-11.579000	22.442888	0.000474	20.791165
199.054554	-3.007500	3.841000	-11.551000	22.418119	0.000474	20.788171
200.054287	-2.996500	3.842000	-11.512000	22.461650	0.000475	20.801420
201.058577	-2.990300	3.843300	-11.491000	22.457538	0.000475	20.788292
202.051906	-3.004500	3.841300	-11.541000	22.460125	0.000473	20.795625
203.057064	-2.997400	3.842000	-11.515000	22.465237	0.000477	20.795054
204.053222	-3.028500	3.841100	-11.631000	22.471439	0.000475	20.794152
205.056153	-2.989700	3.841200	-11.483000	22.467549	0.000476	20.787886
206.056910	-3.005700	3.841100	-11.544000	22.485141	0.000476	20.787012
207.058562	-3.015300	3.840300	-11.578000	22.495282	0.000477	20.781995
208.057518	-3.005200	3.840800	-11.542000	22.481527	0.000476	20.800936
209.055130	-2.971200	3.841900	-11.414000	22.481948	0.000476	20.795194
210.059837	-2.993200	3.840200	-11.494000	22.502207	0.000475	20.789879
211.056470	-2.999700	3.839800	-11.517000	22.505995	0.000475	20.809794
212.058972	-2.997200	3.839700	-11.507000	22.521937	0.000479	20.792095
213.057962	-3.002100	3.838700	-11.523000	22.515637	0.000476	20.771086
214.053321	-3.005300	3.839100	-11.536000	22.510030	0.000477	20.783963
215.057460	-2.996700	3.838900	-11.503000	22.537759	0.000477	20.769060
216.055513	-2.964500	3.841300	-11.387000	22.552212	0.000478	20.788751
217.057229	-3.017800	3.838600	-11.583000	22.531261	0.000479	20.792424
218.055022	-2.975700	3.839500	-11.424000	22.551692	0.000478	20.775428
219.058024	-2.997100	3.839500	-11.505000	22.548951	0.000477	20.787856
220.054650	-2.982700	3.839300	-11.451000	22.551445	0.000479	20.796517
221.057834	-3.013200	3.837300	-11.562000	22.537913	0.000479	20.772060
222.057008	-3.003800	3.838300	-11.529000	22.563856	0.000481	20.797568
223.063533	-2.994700	3.838300	-11.493000	22.584436	0.000480	20.775506
224.055937	-3.012800	3.838000	-11.563000	22.603845	0.000480	20.774083
225.059198	-2.991900	3.837600	-11.481000	22.617648	0.000482	20.772261
226.062806	-2.991900	3.836500	-11.476000	22.614539	0.000481	20.784793
227.056378	-3.022900	3.836200	-11.596000	22.646457	0.000483	20.782150
228.064501	-3.013200	3.835800	-11.557000	22.626924	0.000483	20.776336
229.062240	-3.001600	3.835400	-11.511000	22.636643	0.000483	20.757620
230.058050	-2.988600	3.836200	-11.464000	22.640609	0.000483	20.786250
231.056466	-2.995800	3.835100	-11.489000	22.639786	0.000481	20.756027
232.064505	-2.991200	3.837000	-11.476000	22.653415	0.000484	20.782007
233.057828	-2.983900	3.835500	-11.444000	22.631119	0.000484	20.769632
234.065688	-3.009400	3.835100	-11.541000	22.664928	0.000487	20.770779
235.064750	-3.000700	3.835800	-11.509000	22.649133	0.000484	20.770605
236.060374	-2.982500	3.836100	-11.440000	22.671063	0.000484	20.768389
237.059046	-3.025500	3.832100	-11.593000	22.659479	0.000484	20.757734
238.058415	-2.994200	3.833900	-11.479000	22.683921	0.000485	20.760880
239.058469	-2.997300	3.834700	-11.493000	22.709062	0.000485	20.774683
240.059443	-3.024700	3.834700	-11.598000	22.724337	0.000486	20.763904
241.060972	-2.993900	3.833800	-11.477000	22.744545	0.000486	20.749534
242.059932	-3.006100	3.834200	-11.525000	22.772472	0.000487	20.769449
243.060380	-3.003000	3.833900	-11.512000	22.744570	0.000485	20.767103
244.061533	-2.993300	3.834600	-11.477000	22.740161	0.000485	20.757470
245.061468	-2.994600	3.832300	-11.474000	22.760193	0.000487	20.767580
246.062148	-2.991900	3.832300	-11.465000	22.750055	0.000488	20.756001
247.063689	-2.999400	3.831800	-11.492000	22.759874	0.000487	20.765364
248.067701	-2.982200	3.832900	-11.429000	22.760051	0.000487	20.782136
249.070665	-2.998300	3.831800	-11.488000	22.773505	0.000489	20.757681
250.067192	-3.010000	3.832300	-11.534000	22.758584	0.000488	20.770710
251.064649	-3.020900	3.831400	-11.573000	22.785768	0.000490	20.778026
252.067927	-2.992800	3.832400	-11.469000	22.784125	0.000492	20.778752
253.063737	-2.977500	3.831500	-11.407000	22.817258	0.000489	20.748405
254.065159	-3.004500	3.831900	-11.511000	22.808794	0.000488	20.782126
255.068398	-2.987500	3.830800	-11.443000	22.772772	0.000489	20.746514
256.068852	-3.018100	3.831100	-11.561000	22.782390	0.000490	20.757572
257.067898	-3.012000	3.829900	-11.535000	22.829177	0.000489	20.757501
258.070829	-2.999100	3.829100	-11.483000	22.842554	0.000491	20.741029
259.069057	-2.998400	3.830400	-11.483000	22.845471	0.000491	20.760073
260.073233	-3.009400	3.829500	-11.524000	22.836107	0.000491	20.782461
261.070722	-2.995600	3.829000	-11.469000	22.861319	0.000492	20.779743
262.068624	-3.013900	3.828800	-11.539000	22.839398	0.000492	20.758731
263.072284	-3.000900	3.829500	-11.491000	22.872879	0.000490	20.771410
264.069372	-2.996600	3.829600	-11.475000	22.875149	0.000492	20.749502
265.072163	-3.019600	3.827300	-11.556000	22.870893	0.000492	20.771791
266.071100	-3.002300	3.828600	-11.494000	22.894412	0.000494	20.758843
267.069808	-2.989400	3.828300	-11.443000	22.910602	0.000493	20.755148
268.073358	-2.995600	3.828200	-11.467000	22.940771	0.000492	20.767830
269.075020	-3.007700	3.827100	-11.510000	22.947322	0.000494	20.765385
270.073420	-2.982500	3.827100	-11.413000	22.921370	0.000493	20.738434
271.074908	-3.023200	3.827200	-11.568000	22.933950	0.000497	20.780911
272.077132	-3.001200	3.826900	-11.483000	22.933430	0.000493	20.772330
273.076501	-3.002500	3.827400	-11.492000	22.927129	0.000494	20.776449
274.081986	-2.991600	3.827400	-11.449000	22.946663	0.000495	20.774208
275.071100	-2.987400	3.826000	-11.429000	22.936004	0.000494	20.751674
276.074710	-2.994200	3.826500	-11.456000	22.930656	0.000496	20.754377
277.078970	-3.014100	3.823900	-11.525000	22.927689	0.000495	20.769897
278.075436	-3.021300	3.825500	-11.557000	22.929335	0.000497	20.779607
279.076918	-2.990300	3.826500	-11.442000	22.976240	0.000497	20.751684
280.077607	-2.997700	3.826900	-11.472000	22.988399	0.000498	20.763866
281.079254	-3.003800	3.824500	-11.487000	22.987205	0.000498	20.780688
282.077021	-3.008200	3.824600	-11.504000	22.970892	0.000497	20.752015
283.078753	-2.990200	3.825500	-11.438000	22.942450	0.000497	20.760504
284.080509	-2.976400	3.824100	-11.381000	22.930671	0.000498	20.750599
285.082323	-2.977900	3.824100	-11.386000	22.968634	0.000498	20.736476
286.082758	-3.007300	3.823400	-11.497000	22.948680	0.000499	20.730234
287.081182	-2.984200	3.823800	-11.409000	22.991428	0.000498	20.765004
288.076589	-3.002600	3.823500	-11.480000	23.004106	0.000500	20.772966
289.075839	-3.010600	3.823100	-11.509000	23.000892	0.000499	20.759788
290.082414	-2.992700	3.824200	-11.444000	23.017706	0.000500	20.757668
291.079974	-2.983000	3.824400	-11.407000	23.016608	0.000499	20.758939
292.079315	-2.996500	3.822700	-11.453000	23.042339	0.000501	20.757219
293.077258	-2.984300	3.822900	-11.408000	23.065851	0.000501	20.758967
294.085501	-2.987600	3.822900	-11.420000	23.065127	0.000502	20.762509
295.080188	-3.004300	3.822100	-11.481000	23.053544	0.000502	20.767025
296.082918	-2.999900	3.823200	-11.467000	23.069739	0.000504	20.773768
297.085234	-3.010900	3.820500	-11.501000	23.090804	0.000504	20.781125
298.087545	-3.008700	3.820500	-11.494000	23.110230	0.000502	20.770244
299.083454	-3.022000	3.819800	-11.543000	23.103905	0.000502	20.761536
300.084756	-3.026000	3.820200	-11.559000	23.128634	0.000501	20.767350
301.088504	-3.021300	3.819800	-11.540000	23.123355	0.000504	20.769646
302.088624	-3.015600	3.820300	-11.520000	23.111127	0.000502	20.768772
303.086765	-3.012300	3.820100	-11.507000	23.078550	0.000502	20.781175
304.086936	-2.994300	3.821200	-11.441000	23.068910	0.000507	20.753023
305.086701	-2.992600	3.820800	-11.433000	23.080987	0.000503	20.767496
306.080743	-3.004000	3.820100	-11.475000	23.091175	0.000503	20.770117
307.086196	-3.035900	3.818800	-11.592000	23.112695	0.000505	20.729565
308.086569	-3.006400	3.818500	-11.479000	23.135132	0.000506	20.755843
309.090854	-2.993300	3.819600	-11.432000	23.149154	0.000506	20.744763
310.085254	-2.995200	3.819800	-11.439000	23.157869	0.000507	20.771989
311.082950	-2.992400	3.818400	-11.426000	23.164293	0.000508	20.767994
312.092199	-3.001200	3.818200	-11.458000	23.173805	0.000506	20.780846
313.090514	-3.001200	3.817900	-11.457000	23.202668	0.000508	20.763777
314.088644	-2.977600	3.817900	-11.367000	23.211534	0.000510	20.777878
315.086628	-3.009900	3.816900	-11.488000	23.229486	0.000508	20.778798
316.086671	-2.984600	3.818200	-11.395000	23.216962	0.000509	20.759134
317.090374	-2.995300	3.815900	-11.430000	23.188548	0.000507	20.770489
318.093582	-3.013600	3.816600	-11.500000	23.180003	0.000510	20.781367
319.088119	-2.992500	3.816300	-11.419000	23.182693	0.000509	20.773632
320.094985	-3.015000	3.815700	-11.503000	23.218505	0.000509	20.775854
321.089286	-3.017900	3.816600	-11.517000	23.234465	0.000510	20.763398
322.093384	-3.015400	3.815500	-11.504000	23.253514	0.000512	20.783911
323.092765	-2.998900	3.817700	-11.448000	23.276502	0.000509	20.778026
324.091251	-3.016200	3.814300	-11.504000	23.269977	0.000510	20.771961
325.092353	-3.009300	3.816000	-11.482000	23.249559	0.000511	20.785163
326.090816	-3.020500	3.814200	-11.520000	23.262182	0.000511	20.766045
327.091314	-3.009100	3.814700	-11.477000	23.271672	0.000512	20.765599
328.097181	-2.977000	3.815700	-11.358000	23.253644	0.000509	20.785938
329.096422	-2.999800	3.816000	-11.446000	23.300807	0.000513	20.777729
330.089932	-2.982500	3.812800	-11.370000	23.264402	0.000511	20.778228
331.098562	-2.994000	3.814000	-11.418000	23.280364	0.000511	20.765301
332.091660	-2.979500	3.813500	-11.360000	23.278200	0.000513	20.763132
333.093746	-3.002100	3.813300	-11.446000	23.322323	0.000514	20.782222
334.093609	-2.995000	3.813300	-11.420000	23.353448	0.000512	20.789236
335.095285	-3.026300	3.811600	-11.533000	23.371824	0.000512	20.774462
336.089789	-2.994700	3.813300	-11.419000	23.352184	0.000513	20.785123
337.094597	-2.991400	3.812800	-11.404000	23.323671	0.000513	20.810600
338.095397	-3.019200	3.813400	-11.512000	23.332416	0.000512	20.784752
339.092688	-2.983100	3.812700	-11.373000	23.335678	0.000514	20.787547
340.098894	-3.008500	3.811500	-11.466000	23.339064	0.000513	20.770551
341.108285	-2.987200	3.811900	-11.386000	23.341482	0.000514	20.789571
342.095000	-3.003500	3.810600	-11.445000	23.354531	0.000513	20.781786
343.097478	-3.000600	3.810900	-11.434000	23.384359	0.000513	20.780862
344.096893	-3.008100	3.809000	-11.457000	23.376246	0.000513	20.785533
345.095315	-3.012700	3.809700	-11.477000	23.361281	0.000515	20.804198
346.092030	-3.003200	3.810800	-11.444000	23.415264	0.000515	20.786233
347.098333	-2.987200	3.811700	-11.385000	23.396616	0.000514	20.782716
348.097945	-3.000900	3.810100	-11.432000	23.424901	0.000515	20.791151
349.091300	-3.015400	3.809500	-11.486000	23.426818	0.000517	20.793073
350.094126	-2.994600	3.809500	-11.407000	23.430803	0.000515	20.775730
351.094033	-2.998700	3.809300	-11.422000	23.418606	0.000516	20.787687
352.092745	-3.002000	3.809300	-11.435000	23.394356	0.000516	20.797994
353.095093	-3.021200	3.807400	-11.503000	23.420826	0.000516	20.774739
354.092627	-3.000500	3.809100	-11.428000	23.437909	0.000515	20.800870
355.096503	-2.998700	3.808300	-11.419000	23.437411	0.000517	20.791837
356.094247	-3.023500	3.807800	-11.512000	23.423148	0.000517	20.791291
357.092889	-3.008200	3.806700	-11.450000	23.388766	0.000519	20.805668
358.092946	-2.986300	3.806800	-11.367000	23.406418	0.000518	20.800127
359.097911	-2.992400	3.807900	-11.395000	23.443196	0.000519	20.781988
360.098240	-2.979600	3.807300	-11.343000	23.445113	0.000518	20.786754
361.097312	-3.008000	3.806700	-11.450000	23.444145	0.000520	20.786733
362.098790	-3.032700	3.805000	-11.539000	23.450224	0.000518	20.787610
363.098280	-2.999200	3.806400	-11.415000	23.489112	0.000517	20.792925
364.100125	-3.012200	3.805200	-11.460000	23.494043	0.000518	20.794075
365.098616	-3.000200	3.805000	-11.415000	23.493397	0.000519	20.792953
366.100441	-3.004500	3.806100	-11.433000	23.509755	0.000519	20.802712
367.100400	-3.013400	3.805000	-11.465000	23.505276	0.000519	20.811023
368.095684	-2.991000	3.804600	-11.378000	23.498953	0.000520	20.805634
369.100607	-3.018300	3.803500	-11.478000	23.484741	0.000521	20.792811
370.099295	-2.997900	3.804400	-11.404000	23.492909	0.000521	20.775394
371.099703	-3.014700	3.804300	-11.468000	23.499881	0.000519	20.819366
372.096369	-2.997300	3.804400	-11.401000	23.520623	0.000521	20.798907
373.101489	-2.992000	3.804800	-11.383000	23.530034	0.000520	20.794590
374.100687	-3.002300	3.803800	-11.420000	23.534637	0.000521	20.789721
375.102894	-3.000800	3.802400	-11.409000	23.569244	0.000523	20.803075
376.102368	-3.001300	3.801900	-11.410000	23.545322	0.000522	20.800906
377.098908	-2.999900	3.803400	-11.409000	23.567704	0.000522	20.788256
378.101508	-2.989500	3.801700	-11.364000	23.567732	0.000525	20.805353
379.099672	-2.959900	3.803200	-11.256000	23.594718	0.000521	20.796843
380.102170	-2.991700	3.801800	-11.373000	23.558872	0.000522	20.793152
381.102004	-2.998400	3.802000	-11.399000	23.562180	0.000523	20.800261
382.106897	-3.024300	3.799900	-11.491000	23.543316	0.000522	20.803162
383.104176	-2.993600	3.802300	-11.381000	23.535596	0.000523	20.801588
384.104478	-3.010400	3.800100	-11.439000	23.522479	0.000524	20.837276
385.109279	-2.993500	3.802200	-11.381000	23.545780	0.000523	20.803262
386.104100	-2.995600	3.800000	-11.383000	23.520089	0.000524	20.822553
387.107414	-3.008900	3.800300	-11.434000	23.536295	0.000524	20.810349
388.121862	-2.998600	3.798700	-11.389000	23.540654	0.000525	20.812822
389.108532	-2.989400	3.800900	-11.360000	23.584226	0.000526	20.791067
390.106552	-2.955200	3.800000	-11.229000	23.614070	0.000524	20.821933
391.108950	-2.980900	3.800000	-11.326000	23.615316	0.000527	20.795207
392.106363	-2.984500	3.799600	-11.339000	23.644146	0.000525	20.800402
393.103755	-2.997100	3.798700	-11.384000	23.677923	0.000526	20.811505
394.103869	-2.977900	3.799000	-11.312000	23.687954	0.000527	20.818717
395.106674	-3.008500	3.797500	-11.423000	23.678770	0.000526	20.802397
396.110350	-2.998600	3.798000	-11.388000	23.701147	0.000527	20.827202
397.103685	-2.990400	3.797500	-11.355000	23.741124	0.000527	20.810384
398.109384	-3.000900	3.796800	-11.394000	23.726989	0.000526	20.813281
399.108853	-3.000800	3.797800	-11.396000	23.748044	0.000527	20.821115
400.107141	-2.995600	3.797100	-11.373000	23.746453	0.000527	20.813356
401.108299	-3.003400	3.795700	-11.399000	23.759549	0.000527	20.831702
402.109234	-3.015200	3.796300	-11.445000	23.736796	0.000529	20.815054
403.107500	-3.006500	3.796500	-11.413000	23.758480	0.000529	20.828733
404.107937	-3.001200	3.795400	-11.390000	23.755766	0.000525	20.824116
405.107448	-2.979200	3.795100	-11.305000	23.721419	0.000526	20.822870
406.108430	-3.007000	3.795700	-11.413000	23.738024	0.000528	20.836199
407.113910	-3.003600	3.795600	-11.400000	23.735088	0.000530	20.828987
408.111802	-2.979400	3.795700	-11.308000	23.778917	0.000530	20.811766
409.107533	-2.992300	3.795400	-11.356000	23.810531	0.000529	20.820230
410.110940	-2.991900	3.793600	-11.349000	23.793407	0.000528	20.824398
411.112357	-2.983500	3.794300	-11.319000	23.762919	0.000530	20.818959
412.109972	-3.014100	3.794400	-11.436000	23.751127	0.000528	20.829422
413.113948	-3.000800	3.792000	-11.378000	23.799509	0.000527	20.825774
414.110057	-3.013200	3.792600	-11.427000	23.757173	0.000530	20.834061
415.111180	-2.981000	3.793200	-11.306000	23.784630	0.000531	20.808011
416.110201	-2.990400	3.791800	-11.338000	23.799339	0.000530	20.827975
417.109174	-2.989400	3.792200	-11.336000	23.810643	0.000529	20.805170
418.112482	-3.007100	3.792300	-11.402000	23.814083	0.000530	20.855559
419.113886	-3.008100	3.790400	-11.400000	23.782819	0.000529	20.831325
420.112362	-3.002900	3.790600	-11.383000	23.789193	0.000530	20.835345
421.113178	-3.022900	3.790700	-11.458000	23.771176	0.000530	20.836721
422.112680	-3.006800	3.790800	-11.398000	23.815332	0.000530	20.815087
423.108803	-3.017100	3.790200	-11.435000	23.833030	0.000531	20.807228
424.115897	-3.009700	3.790300	-11.407000	23.834078	0.000531	20.853796
425.110725	-2.993400	3.790500	-11.346000	23.811259	0.000530	20.833762
426.110132	-3.032000	3.790200	-11.491000	23.805884	0.000531	20.844494
427.115602	-2.998700	3.789900	-11.363000	23.787540	0.000533	20.845541
428.111653	-3.000300	3.789500	-11.369000	23.789064	0.000532	20.832371
429.113831	-2.971600	3.789100	-11.259000	23.813454	0.000533	20.840230
430.115605	-3.007300	3.789400	-11.395000	23.866247	0.000533	20.855706
431.115328	-3.003100	3.789400	-11.378000	23.853257	0.000530	20.855483
432.115190	-3.011500	3.788600	-11.408000	23.854700	0.000532	20.827060
433.116737	-2.990300	3.789400	-11.331000	23.873844	0.000533	20.844359
434.111121	-2.993700	3.789200	-11.342000	23.869669	0.000533	20.840172
435.115094	-2.998300	3.788100	-11.357000	23.878301	0.000533	20.831758
436.115348	-2.994800	3.788200	-11.344000	23.880047	0.000533	20.838251
437.113892	-3.025000	3.787600	-11.457000	23.887913	0.000534	20.846612
438.114945	-2.995600	3.787300	-11.344000	23.909142	0.000532	20.824752
439.121537	-3.011300	3.785900	-11.399000	23.908570	0.000534	20.864006
440.120773	-3.006700	3.786900	-11.385000	23.908246	0.000534	20.839500
441.118163	-2.989800	3.785700	-11.317000	23.899840	0.000533	20.845296
442.123891	-2.999500	3.786700	-11.358000	23.909022	0.000533	20.856399
443.116642	-2.986600	3.786000	-11.307000	23.913680	0.000532	20.850164
444.118974	-3.020400	3.785800	-11.434000	23.946507	0.000533	20.840409
445.118805	-3.026900	3.784700	-11.456000	23.889762	0.000534	20.860319
446.123365	-3.001100	3.785200	-11.358000	23.892253	0.000533	20.844326
447.117700	-3.000700	3.785300	-11.356000	23.901361	0.000534	20.840657
448.118368	-2.986700	3.784100	-11.301000	23.935236	0.000533	20.844754
449.119234	-3.014800	3.783500	-11.406000	23.945663	0.000534	20.857580
450.121728	-2.971100	3.785300	-11.245000	23.966468	0.000535	20.854261
451.120649	-2.988100	3.784700	-11.308000	23.965222	0.000534	20.855383
452.119639	-3.003500	3.783700	-11.363000	23.962410	0.000535	20.838813
453.121530	-3.013300	3.783600	-11.401000	23.983962	0.000533	20.847149
454.121869	-2.999600	3.783900	-11.349000	23.994763	0.000534	20.855135
455.123788	-3.004300	3.781800	-11.361000	23.993644	0.000534	20.861125
456.117292	-2.992000	3.782600	-11.317000	23.988719	0.000534	20.833902
457.121195	-2.997400	3.782600	-11.338000	23.989791	0.000535	20.841141
458.120242	-2.973800	3.782300	-11.247000	23.970031	0.000534	20.871110
459.119013	-3.002000	3.781600	-11.351000	23.972868	0.000535	20.851671
460.120264	-2.988100	3.782500	-11.301000	23.996089	0.000535	20.846983
461.120804	-3.009100	3.780400	-11.375000	24.013481	0.000534	20.855889
462.120469	-3.021100	3.779100	-11.416000	24.005023	0.000536	20.862579
463.120838	-3.013400	3.782000	-11.395000	24.025029	0.000533	20.849927
464.123089	-2.986500	3.779900	-11.288000	24.054618	0.000534	20.853521
465.127630	-2.991600	3.780400	-11.309000	23.992060	0.000535	20.867597
466.123598	-3.000600	3.780800	-11.344000	24.010178	0.000534	20.874386
467.125971	-3.007300	3.779000	-11.363000	24.016028	0.000537	20.848486
468.128461	-3.010800	3.778600	-11.376000	24.004208	0.000535	20.860814
469.130282	-3.011900	3.778500	-11.379000	24.034841	0.000537	20.873516
470.127104	-3.001900	3.778900	-11.342000	24.018569	0.000537	20.859094
471.129555	-2.989300	3.779500	-11.297000	24.041563	0.000539	20.859395
472.126254	-3.022000	3.778100	-11.417000	24.017351	0.000535	20.861666
473.127175	-2.989300	3.778000	-11.293000	24.005908	0.000536	20.874372
474.128481	-3.000100	3.778200	-11.333000	24.028102	0.000536	20.869128
475.128865	-3.005500	3.778100	-11.354000	24.047416	0.000537	20.886126
476.125889	-3.015300	3.776100	-11.384000	24.090933	0.000536	20.883302
477.125602	-2.998500	3.777200	-11.325000	24.087010	0.000537	20.867515
478.129668	-3.005500	3.776400	-11.349000	24.098328	0.000535	20.869857
479.129942	-2.997500	3.776200	-11.318000	24.084445	0.000536	20.868735
480.135641	-3.010300	3.776000	-11.366000	24.076411	0.000539	20.894341
481.133690	-2.989900	3.776300	-11.290000	24.075264	0.000536	20.874701
482.131641	-2.987600	3.776900	-11.283000	24.070864	0.000537	20.872185
483.131232	-3.004100	3.776100	-11.343000	24.087415	0.000536	20.889731
484.135948	-3.012000	3.774700	-11.369000	24.060767	0.000536	20.884816
485.134649	-3.002000	3.775100	-11.332000	24.057605	0.000537	20.880698
486.138850	-3.011100	3.775100	-11.366000	24.080179	0.000537	20.880577
487.133358	-3.003700	3.773900	-11.335000	24.115037	0.000536	20.873338
488.129316	-3.018500	3.773500	-11.389000	24.090481	0.000537	20.893280
489.138754	-2.995500	3.773800	-11.304000	24.121733	0.000539	20.885743
490.134696	-2.992300	3.773300	-11.289000	24.147163	0.000541	20.880903
491.133365	-2.967400	3.773100	-11.195000	24.143257	0.000540	20.875090
492.133863	-3.016400	3.771800	-11.376000	24.149131	0.000540	20.877662
493.134333	-2.995100	3.772000	-11.297000	24.188414	0.000541	20.884820
494.136569	-3.005500	3.771800	-11.334000	24.207203	0.000541	20.882329
495.138411	-3.007400	3.771900	-11.343000	24.182594	0.000540	20.886568
496.136252	-3.009200	3.772000	-11.350000	24.185310	0.000538	20.878861
497.137781	-3.002400	3.772100	-11.325000	24.154106	0.000540	20.897822
498.136384	-2.994300	3.773000	-11.297000	24.143783	0.000542	20.896004
499.139949	-2.993700	3.772300	-11.293000	24.176773	0.000539	20.898746
500.142540	-3.009800	3.770500	-11.348000	24.163486	0.000540	20.905808
501.139838	-2.996800	3.770700	-11.299000	24.158533	0.000539	20.893729
502.139561	-2.996000	3.770300	-11.295000	24.164058	0.000542	20.896899
503.146190	-2.990600	3.770400	-11.274000	24.159503	0.000541	20.914614
504.142495	-2.982200	3.771100	-11.245000	24.166940	0.000541	20.886515
505.140759	-2.981200	3.770200	-11.238000	24.176025	0.000540	20.900366
506.143131	-3.003200	3.769000	-11.318000	24.201199	0.000541	20.916132
507.141309	-3.002700	3.769200	-11.317000	24.204307	0.000541	20.896492
508.142359	-3.011200	3.770000	-11.351000	24.219858	0.000540	20.885538
509.142474	-3.022400	3.766600	-11.384000	24.221025	0.000539	20.881968
510.138667	-3.020900	3.767200	-11.378000	24.222990	0.000539	20.905748
511.146844	-2.974700	3.768800	-11.210000	24.225403	0.000541	20.900108
512.141908	-2.997300	3.768000	-11.292000	24.222789	0.000539	20.882789
513.141136	-3.013700	3.767000	-11.352000	24.216542	0.000540	20.919193
514.146060	-2.997500	3.766200	-11.288000	24.195396	0.000539	20.883762
515.138529	-2.978700	3.767200	-11.220000	24.207437	0.000538	20.882563
516.143204	-3.010000	3.766300	-11.336000	24.224903	0.000540	20.893443
517.138821	-2.974000	3.767500	-11.203000	24.240752	0.000539	20.883737
518.154302	-2.993700	3.765900	-11.273000	24.198900	0.000541	20.892965
519.143005	-2.985300	3.765500	-11.240000	24.241271	0.000539	20.891369
520.153091	-2.998300	3.765700	-11.290000	24.254256	0.000540	20.898704
521.150426	-3.004200	3.766100	-11.313000	24.303021	0.000540	20.901152
522.142653	-2.996900	3.767100	-11.289000	24.325808	0.000540	20.862374
523.147433	-2.990300	3.766300	-11.262000	24.322129	0.000541	20.901354
524.143621	-2.980800	3.764800	-11.221000	24.287126	0.000541	20.896114
525.144902	-3.000900	3.764900	-11.297000	24.325836	0.000540	20.899857
526.145157	-3.005400	3.765800	-11.317000	24.352479	0.000539	20.888652
527.144069	-3.011300	3.764400	-11.335000	24.349840	0.000539	20.872256
528.142563	-3.004200	3.763200	-11.305000	24.376210	0.000539	20.870734
529.143301	-3.002000	3.763300	-11.296000	24.389522	0.000540	20.864174
530.144250	-2.994000	3.763000	-11.265000	24.347382	0.000539	20.893021
531.147604	-2.995100	3.763700	-11.271000	24.342782	0.000540	20.881770
532.149913	-2.982200	3.763400	-11.222000	24.329748	0.000539	20.852576
533.147013	-2.991100	3.763300	-11.255000	24.334972	0.000538	20.864928
534.146786	-2.964500	3.763800	-11.156000	24.349477	0.000538	20.883270
535.146723	-3.004100	3.762800	-11.302000	24.369455	0.000540	20.854476
536.147117	-2.982900	3.763400	-11.225000	24.350503	0.000539	20.880032
537.144180	-3.005700	3.761400	-11.305000	24.318488	0.000536	20.871626
538.147340	-3.001400	3.760500	-11.286000	24.304157	0.000538	20.874318
539.150295	-3.011000	3.760600	-11.322000	24.308467	0.000538	20.872952
540.145541	-2.996200	3.761200	-11.268000	24.300163	0.000538	20.860356
541.152211	-3.020300	3.759000	-11.352000	24.345737	0.000539	20.875252
542.146262	-3.023900	3.760600	-11.371000	24.361963	0.000541	20.859762
543.150000	-3.021800	3.760000	-11.361000	24.332732	0.000539	20.873111
544.155094	-2.986700	3.758600	-11.225000	24.325970	0.000538	20.883871
545.148772	-2.989900	3.758600	-11.237000	24.361049	0.000540	20.858371
546.150971	-3.000000	3.759100	-11.277000	24.359687	0.000538	20.825238
547.148218	-3.022400	3.757700	-11.357000	24.370862	0.000538	20.853042
548.147415	-3.006000	3.757600	-11.294000	24.356210	0.000540	20.842137
549.144608	-2.986300	3.758700	-11.224000	24.383528	0.000539	20.853421
550.148854	-3.003100	3.757600	-11.284000	24.378407	0.000538	20.877679
551.148193	-2.990000	3.757800	-11.235000	24.389284	0.000537	20.835488
552.149234	-2.998300	3.757000	-11.264000	24.397027	0.000541	20.856057
553.148722	-2.983900	3.758600	-11.214000	24.367204	0.000539	20.841787
554.148001	-2.999200	3.757900	-11.270000	24.408797	0.000539	20.851743
555.149213	-2.988200	3.756900	-11.225000	24.407932	0.000539	20.851351
556.148270	-2.981600	3.757800	-11.204000	24.370548	0.000538	20.866951
557.147802	-2.989900	3.756400	-11.231000	24.392741	0.000537	20.850335
558.155854	-3.008000	3.757000	-11.300000	24.368068	0.000537	20.839335
559.152253	-2.989700	3.755500	-11.227000	24.406726	0.000538	20.851089
560.151319	-2.983400	3.755900	-11.205000	24.444247	0.000538	20.837997
561.149734	-3.016000	3.754000	-11.322000	24.431737	0.000538	20.843938
562.150651	-2.999500	3.754800	-11.261000	24.406666	0.000537	20.849607
563.158794	-2.990500	3.754900	-11.228000	24.374357	0.000541	20.837583
564.151385	-2.975000	3.755900	-11.173000	24.353864	0.000538	20.833621
565.153964	-2.993400	3.754300	-11.237000	24.353868	0.000541	20.835521
566.155781	-2.997200	3.754800	-11.253000	24.328693	0.000541	20.827337
567.157685	-3.002500	3.753400	-11.268000	24.349995	0.000540	20.838748
568.152865	-3.019800	3.752900	-11.332000	24.375991	0.000540	20.842541
569.156252	-3.000500	3.752500	-11.258000	24.393757	0.000541	20.826226
570.161645	-2.990800	3.753700	-11.226000	24.429184	0.000540	20.842325
571.156024	-3.003300	3.752300	-11.268000	24.444509	0.000540	20.820717
572.160026	-2.985100	3.753300	-11.203000	24.450135	0.000541	20.850541
573.164720	-2.989800	3.752400	-11.219000	24.451182	0.000540	20.821722
574.156079	-3.012800	3.751100	-11.300000	24.424991	0.000540	20.813463
575.161241	-2.998900	3.751800	-11.251000	24.386661	0.000539	20.840443
576.160960	-3.007200	3.752100	-11.282000	24.415122	0.000540	20.833434
577.160090	-3.010500	3.750500	-11.290000	24.388608	0.000537	20.834810
578.162633	-2.997600	3.751000	-11.243000	24.415228	0.000539	20.829273
579.157736	-3.004400	3.751300	-11.270000	24.472620	0.000537	20.804349
580.160208	-3.015700	3.749500	-11.306000	24.465456	0.000539	20.814706
581.160579	-2.998300	3.751500	-11.246000	24.477847	0.000539	20.824765
582.164229	-2.993100	3.750100	-11.224000	24.486579	0.000538	20.819302
583.164624	-2.985400	3.749500	-11.193000	24.496631	0.000537	20.816111
584.163900	-3.000200	3.749700	-11.249000	24.459553	0.000540	20.823007
585.162330	-2.991800	3.748700	-11.214000	24.440920	0.000539	20.815219
586.165244	-2.990000	3.748500	-11.207000	24.473982	0.000537	20.839854
587.158534	-2.982600	3.747800	-11.177000	24.506694	0.000539	20.810085
588.162589	-2.986100	3.748000	-11.192000	24.548030	0.000540	20.800351
589.164348	-3.005400	3.747400	-11.261000	24.569949	0.000540	20.816179
590.163150	-2.997500	3.748500	-11.235000	24.513091	0.000540	20.812711
591.170318	-2.986100	3.747900	-11.191000	24.492005	0.000539	20.829013
592.166194	-3.001300	3.746700	-11.245000	24.482853	0.000540	20.817934
593.160223	-3.012700	3.746400	-11.285000	24.476758	0.000540	20.833630
594.165214	-3.017400	3.745200	-11.300000	24.458108	0.000539	20.811601
595.165405	-3.001400	3.746800	-11.244000	24.471165	0.000538	20.810001
596.168812	-3.014500	3.745900	-11.291000	24.461839	0.000538	20.791163
597.164994	-3.018400	3.747100	-11.310000	24.472191	0.000539	20.819566
598.164701	-3.015700	3.745500	-11.294000	24.485629	0.000537	20.808392
599.165985	-3.000300	3.745400	-11.236000	24.498213	0.000538	20.829551
600.164697	-3.014700	3.744000	-11.286000	24.544727	0.000539	20.819322
601.166722	-3.004100	3.745700	-11.251000	24.557043	0.000538	20.808919
602.168390	-2.991800	3.745200	-11.204000	24.566794	0.000536	20.813013
603.167547	-3.002800	3.743800	-11.241000	24.576273	0.000537	20.814938
604.165664	-2.991600	3.742500	-11.195000	24.596392	0.000536	20.812366
605.170129	-2.998700	3.744100	-11.226000	24.606669	0.000538	20.793280
606.168058	-2.986000	3.744300	-11.180000	24.580329	0.000538	20.802412
607.164491	-2.981400	3.744000	-11.161000	24.535611	0.000539	20.812546
608.165724	-3.017000	3.742700	-11.291000	24.547105	0.000537	20.801793
609.171177	-3.011900	3.741200	-11.267000	24.526163	0.000538	20.800696
610.169902	-3.000000	3.742500	-11.225000	24.517213	0.000537	20.804518
611.172490	-2.982200	3.742400	-11.160000	24.526294	0.000538	20.806043
612.174910	-3.014100	3.742100	-11.278000	24.544922	0.000536	20.798655
613.168300	-2.995600	3.742200	-11.209000	24.577833	0.000537	20.787106
614.171058	-2.980200	3.741600	-11.150000	24.584474	0.000537	20.799459
615.172040	-2.991500	3.741900	-11.193000	24.567811	0.000539	20.818301
616.172349	-2.990100	3.740800	-11.184000	24.582411	0.000536	20.796440
617.168608	-2.983700	3.742600	-11.166000	24.559382	0.000538	20.803680
618.171369	-2.995600	3.739300	-11.200000	24.577414	0.000540	20.777202
619.168408	-2.982100	3.740300	-11.152000	24.546849	0.000538	20.793950
620.171434	-2.982400	3.740400	-11.155000	24.526030	0.000537	20.787761
621.171881	-3.003500	3.740800	-11.234000	24.565184	0.000537	20.787216
622.173297	-3.014700	3.738600	-11.269000	24.570974	0.000537	20.811044
623.174406	-2.999700	3.739600	-11.217000	24.588262	0.000538	20.795673
624.171393	-2.999900	3.739100	-11.216000	24.622655	0.000536	20.801260
625.175224	-3.009000	3.737800	-11.246000	24.581025	0.000537	20.783196
626.173534	-3.008400	3.739100	-11.248000	24.567395	0.000534	20.797021
627.170078	-2.997800	3.739600	-11.209000	24.604328	0.000538	20.805156
628.170939	-3.008800	3.739000	-11.249000	24.612859	0.000536	20.788111
629.176879	-3.005800	3.737900	-11.235000	24.562345	0.000538	20.784842
630.177151	-2.994000	3.738900	-11.193000	24.617983	0.000534	20.809848
631.175019	-3.011600	3.737300	-11.254000	24.594430	0.000537	20.794275
632.174394	-2.983300	3.738400	-11.152000	24.568591	0.000536	20.783996
633.172380	-2.980600	3.736100	-11.135000	24.594680	0.000536	20.770819
634.176600	-3.019900	3.737200	-11.285000	24.589231	0.000534	20.794749
635.173191	-3.001500	3.737300	-11.217000	24.593111	0.000538	20.798642
636.171314	-2.965100	3.736500	-11.078000	24.647330	0.000534	20.779077
637.171373	-2.988900	3.736200	-11.166000	24.683312	0.000535	20.800959
638.177564	-3.000700	3.736500	-11.211000	24.686619	0.000534	20.791476
639.175766	-3.005500	3.734900	-11.225000	24.696320	0.000535	20.774183
640.175832	-2.992600	3.734200	-11.174000	24.652820	0.000533	20.779845
641.177848	-3.003000	3.735400	-11.216000	24.676446	0.000536	20.780319
642.179548	-3.019400	3.733800	-11.273000	24.682018	0.000534	20.791600
643.177926	-3.003100	3.734100	-11.213000	24.659682	0.000534	20.789576
644.177825	-3.014500	3.733900	-11.255000	24.688382	0.000535	20.792771
645.180728	-3.003300	3.733700	-11.212000	24.714370	0.000536	20.786607
646.179778	-2.998100	3.734000	-11.194000	24.672711	0.000534	20.774675
647.179583	-2.992500	3.732400	-11.168000	24.670518	0.000536	20.773422
648.177944	-2.986300	3.733100	-11.147000	24.675941	0.000535	20.783606
649.182841	-2.993000	3.734300	-11.175000	24.689024	0.000534	20.801949
650.181123	-3.006800	3.732500	-11.222000	24.707251	0.000534	20.769031
651.176950	-2.987900	3.732600	-11.151000	24.697628	0.000534	20.778815
652.180865	-3.002900	3.732000	-11.206000	24.698869	0.000534	20.779586
653.181685	-2.999000	3.733000	-11.194000	24.688696	0.000534	20.788818
654.185220	-3.007600	3.732900	-11.226000	24.705381	0.000533	20.753404
655.178387	-3.008400	3.731200	-11.224000	24.681805	0.000533	20.788068
656.184817	-2.996400	3.730600	-11.178000	24.710871	0.000533	20.777406
657.187695	-2.989000	3.731300	-11.152000	24.746510	0.000533	20.764805
658.183527	-3.003500	3.730900	-11.205000	24.720170	0.000535	20.773934
659.183352	-2.990400	3.730500	-11.154000	24.729916	0.000533	20.784663
660.183911	-2.983700	3.731000	-11.131000	24.724644	0.000533	20.804029
661.181153	-2.994400	3.730800	-11.170000	24.721111	0.000531	20.774879
662.182240	-2.987100	3.730200	-11.142000	24.716587	0.000532	20.776029
663.184547	-2.998300	3.730300	-11.183000	24.739686	0.000533	20.786407
664.181068	-2.988500	3.729900	-11.146000	24.776787	0.000532	20.784284
665.182065	-2.985400	3.729100	-11.132000	24.776956	0.000533	20.770703
666.182464	-3.002300	3.728800	-11.194000	24.761590	0.000532	20.769507
667.183455	-2.998400	3.729400	-11.181000	24.726424	0.000532	20.772625
668.183525	-3.020100	3.728100	-11.258000	24.685168	0.000531	20.764415
669.182700	-3.005800	3.727800	-11.204000	24.728290	0.000532	20.780186
670.186693	-2.987700	3.727200	-11.135000	24.727563	0.000531	20.769500
671.185212	-3.012900	3.726500	-11.226000	24.741660	0.000530	20.766577
672.186208	-2.990200	3.726600	-11.142000	24.722538	0.000532	20.782950
673.185066	-2.988600	3.727000	-11.138000	24.715677	0.000532	20.789340
674.186917	-2.994300	3.726200	-11.156000	24.753398	0.000531	20.780727
675.183279	-2.992100	3.727100	-11.151000	24.782018	0.000530	20.781948
676.189879	-2.994300	3.726500	-11.158000	24.819096	0.000531	20.768424
677.187525	-3.014500	3.725100	-11.228000	24.778514	0.000530	20.768948
678.189281	-3.032300	3.725300	-11.296000	24.774064	0.000530	20.781078
679.185355	-3.007100	3.725700	-11.203000	24.754047	0.000529	20.765257
680.189687	-2.995300	3.724300	-11.155000	24.760313	0.000528	20.749259
681.190954	-2.991500	3.724600	-11.140000	24.753776	0.000526	20.777313
682.192301	-2.986800	3.725600	-11.127000	24.742613	0.000529	20.777016
683.192170	-3.004800	3.723700	-11.188000	24.725476	0.000527	20.771198
684.190442	-2.996900	3.724800	-11.162000	24.744178	0.000528	20.771474
685.192905	-2.988700	3.724700	-11.132000	24.736347	0.000528	20.762193
686.192183	-2.992100	3.723800	-11.141000	24.753660	0.000528	20.776248
687.191425	-3.008100	3.723600	-11.200000	24.771663	0.000528	20.761599
688.187792	-2.999200	3.722300	-11.163000	24.795534	0.000527	20.739560
689.192116	-2.984000	3.724300	-11.113000	24.806203	0.000529	20.772080
690.191765	-3.012400	3.723300	-11.215000	24.834653	0.000526	20.751319
691.195179	-2.993600	3.724400	-11.148000	24.818963	0.000527	20.768290
692.194695	-3.003900	3.722600	-11.182000	24.826473	0.000527	20.763025
693.195829	-2.990800	3.721800	-11.130000	24.820631	0.000527	20.766645
694.196905	-3.018800	3.721500	-11.233000	24.820088	0.000525	20.751875
695.205984	-3.016200	3.720400	-11.220000	24.841666	0.000528	20.759306
696.198506	-3.016200	3.721500	-11.224000	24.812254	0.000526	20.775307
697.198172	-3.010500	3.719900	-11.198000	24.813971	0.000528	20.760909
698.198905	-2.986900	3.721500	-11.115000	24.774838	0.000525	20.765258
699.194057	-2.999800	3.721200	-11.162000	24.786025	0.000527	20.762735
700.202076	-2.986100	3.721300	-11.111000	24.797689	0.000527	20.776812
701.200500	-3.009300	3.720400	-11.195000	24.775458	0.000527	20.755924
702.196093	-2.986600	3.720300	-11.110000	24.746164	0.000526	20.770623
703.195179	-2.991300	3.719600	-11.126000	24.746415	0.000525	20.747640
704.196214	-3.004700	3.720300	-11.178000	24.764020	0.000525	20.752979
705.204352	-3.020800	3.718700	-11.233000	24.734380	0.000526	20.767332
706.199018	-3.001400	3.720000	-11.164000	24.750117	0.000524	20.728595
707.196270	-3.001700	3.719700	-11.164000	24.741365	0.000524	20.764858
708.199329	-3.008600	3.717800	-11.184000	24.786473	0.000526	20.753227
709.199498	-2.993500	3.718800	-11.131000	24.815720	0.000526	20.765984
710.199352	-2.987200	3.718600	-11.107000	24.826657	0.000524	20.768899
711.204706	-2.999200	3.718100	-11.150000	24.788063	0.000525	20.757194
712.201558	-3.002300	3.717100	-11.159000	24.776604	0.000525	20.760393
713.199196	-2.983500	3.717100	-11.089000	24.798211	0.000525	20.760739
714.205427	-3.004400	3.716900	-11.166000	24.847371	0.000525	20.753178
715.200817	-3.015300	3.715600	-11.203000	24.879521	0.000524	20.766479
716.199361	-3.000100	3.716300	-11.148000	24.904461	0.000525	20.757845
717.203102	-3.011900	3.715700	-11.190000	24.905378	0.000522	20.759713
718.201048	-3.012600	3.715700	-11.194000	24.864699	0.000525	20.751603
719.199857	-3.026300	3.715300	-11.243000	24.844857	0.000523	20.762509
720.203548	-2.987300	3.715800	-11.100000	24.805216	0.000521	20.747855
721.210378	-2.992700	3.714800	-11.116000	24.796814	0.000523	20.767873
722.199349	-2.996800	3.715000	-11.132000	24.806884	0.000522	20.761383
723.202295	-3.017600	3.714100	-11.205000	24.819517	0.000523	20.761734
724.203729	-2.994100	3.715400	-11.124000	24.801588	0.000523	20.752275
725.204607	-2.978200	3.714900	-11.063000	24.815483	0.000521	20.758634
726.203479	-2.990300	3.714400	-11.106000	24.846415	0.000525	20.760753
727.200309	-2.995100	3.714500	-11.124000	24.844201	0.000521	20.740038
728.205197	-2.991400	3.714800	-11.112000	24.868443	0.000523	20.753938
729.200900	-2.993000	3.712900	-11.112000	24.883208	0.000521	20.753584
730.202603	-2.986600	3.713900	-11.090000	24.898798	0.000519	20.738410
731.199386	-2.979400	3.712200	-11.059000	24.894222	0.000521	20.759896
732.203210	-2.994700	3.713500	-11.120000	24.895886	0.000521	20.734539
733.202294	-3.019300	3.712500	-11.208000	24.899884	0.000520	20.759415
734.201618	-3.004400	3.713300	-11.156000	24.860175	0.000520	20.734733
735.203406	-2.988500	3.712200	-11.092000	24.857760	0.000518	20.763130
736.205969	-3.003400	3.711300	-11.145000	24.853035	0.000519	20.756966
737.204159	-3.021200	3.711100	-11.211000	24.824187	0.000519	20.754567
738.201905	-3.006700	3.712600	-11.162000	24.867205	0.000520	20.761704
739.202393	-3.019000	3.711600	-11.204000	24.901960	0.000520	20.760550
740.203249	-2.990600	3.712100	-11.100000	24.904071	0.000521	20.762195
741.206919	-2.978200	3.712300	-11.055000	24.937609	0.000519	20.765985
742.208043	-2.975600	3.711800	-11.043000	24.976539	0.000519	20.748161
743.207463	-3.014400	3.709700	-11.181000	24.974523	0.000517	20.764629
744.215334	-3.014000	3.709600	-11.179000	24.926638	0.000519	20.754973
745.208661	-2.987700	3.709900	-11.083000	24.906920	0.000520	20.768847
746.214012	-3.009100	3.709100	-11.159000	24.922502	0.000518	20.742287
747.209481	-3.007000	3.709300	-11.153000	24.934834	0.000518	20.773157
748.213957	-2.998000	3.710300	-11.122000	24.915761	0.000516	20.761600
749.207286	-2.992800	3.709000	-11.100000	24.934231	0.000519	20.752637
750.206706	-3.001300	3.708600	-11.130000	24.889401	0.000515	20.758850
751.209591	-2.995900	3.707900	-11.108000	24.877089	0.000516	20.764512
752.209094	-3.020700	3.707900	-11.200000	24.878531	0.000516	20.761692
753.209742	-3.005600	3.706700	-11.140000	24.915327	0.000516	20.757371
754.209191	-3.004700	3.707300	-11.138000	24.893620	0.000515	20.773518
755.209538	-3.029300	3.705900	-11.225000	24.887951	0.000516	20.775888
756.209742	-3.004700	3.707200	-11.137000	24.878154	0.000515	20.759891
757.211444	-3.000200	3.706200	-11.118000	24.876211	0.000517	20.768372
758.210548	-3.008800	3.706000	-11.150000	24.898464	0.000514	20.770793
759.211525	-2.985900	3.706600	-11.067000	24.880213	0.000516	20.756267
760.209044	-3.013300	3.706200	-11.167000	24.879095	0.000517	20.761784
761.211256	-3.013400	3.705500	-11.165000	24.882222	0.000514	20.746430
762.210934	-2.988500	3.704700	-11.071000	24.907856	0.000515	20.774055
763.210649	-3.010300	3.704100	-11.149000	24.954025	0.000514	20.781988
764.212897	-2.988600	3.704000	-11.070000	24.952559	0.000514	20.759653
765.212939	-3.005700	3.704100	-11.131000	24.935253	0.000515	20.777845
766.213250	-3.000800	3.704200	-11.115000	24.898672	0.000514	20.772898
767.220006	-3.015700	3.704500	-11.171000	24.864858	0.000515	20.766461
768.215527	-2.988400	3.703600	-11.067000	24.881168	0.000512	20.765761
769.210330	-3.029900	3.702800	-11.218000	24.919804	0.000513	20.773719
770.212832	-3.002200	3.705000	-11.121000	24.928106	0.000514	20.763559
771.210873	-3.004800	3.703700	-11.128000	24.901031	0.000513	20.793757
772.216181	-2.997600	3.703300	-11.100000	24.891476	0.000516	20.804082
773.217805	-2.995200	3.702700	-11.089000	24.880385	0.000514	20.779674
774.219967	-3.020600	3.702900	-11.184000	24.907063	0.000513	20.787009
775.214821	-2.996900	3.703800	-11.099000	24.951342	0.000513	20.782140
776.218383	-2.981400	3.704000	-11.043000	24.963949	0.000513	20.784836
777.224667	-3.008500	3.701800	-11.135000	25.018565	0.000513	20.786552
778.216858	-2.988300	3.702200	-11.062000	25.012897	0.000510	20.785604
779.214062	-3.000500	3.702600	-11.109000	25.005885	0.000513	20.789472
780.215224	-2.997400	3.702000	-11.095000	24.953774	0.000510	20.778892
781.220285	-2.993000	3.701600	-11.078000	24.946734	0.000510	20.770403
782.230090	-2.990600	3.700700	-11.067000	24.962993	0.000510	20.799524
783.218061	-2.982000	3.699700	-11.031000	24.992207	0.000510	20.772423
784.222373	-3.028000	3.700000	-11.203000	24.992556	0.000512	20.787472
785.219627	-2.986400	3.701000	-11.052000	25.008613	0.000511	20.794581
786.224481	-2.994800	3.700200	-11.080000	25.008067	0.000509	20.772696
787.219372	-2.987200	3.699900	-11.052000	24.978254	0.000510	20.789712
788.216349	-3.006700	3.700100	-11.124000	24.928353	0.000509	20.783247
789.217671	-3.008300	3.701200	-11.133000	24.931462	0.000511	20.778782
790.221306	-3.008700	3.699000	-11.129000	24.946526	0.000510	20.764978
791.217382	-3.009600	3.698300	-11.130000	24.929840	0.000509	20.779051
792.220535	-2.998800	3.698500	-11.090000	24.979618	0.000508	20.801987
793.219794	-2.996100	3.700100	-11.085000	24.971457	0.000508	20.794744
794.225186	-2.988300	3.699200	-11.053000	24.966088	0.000509	20.784613
795.223106	-3.013000	3.698000	-11.141000	24.990977	0.000507	20.772611
796.224954	-3.003600	3.696600	-11.102000	25.006618	0.000508	20.785466
797.223338	-3.001500	3.696700	-11.094000	24.997319	0.000507	20.778502
798.221385	-3.005500	3.697200	-11.111000	24.967978	0.000508	20.795519
799.223518	-3.004300	3.697700	-11.107000	24.973569	0.000507	20.806821
800.233309	-3.003100	3.697700	-11.104000	25.034932	0.000505	20.807723
801.222775	-2.967400	3.698600	-10.974000	25.063270	0.000509	20.796340
802.226285	-3.003000	3.696300	-11.099000	25.015040	0.000507	20.801506
803.227917	-2.969800	3.696300	-10.977000	25.048828	0.000504	20.787532
804.223894	-2.991500	3.697200	-11.060000	25.021551	0.000506	20.793343
805.227541	-3.016500	3.695300	-11.146000	25.006266	0.000506	20.773732
806.227736	-2.997800	3.694700	-11.075000	25.012875	0.000505	20.815454
807.223084	-3.002200	3.695300	-11.093000	25.025777	0.000507	20.805646
808.221923	-3.017500	3.693600	-11.144000	25.030053	0.000505	20.802351
809.223598	-3.013200	3.694900	-11.132000	25.063566	0.000508	20.784309
810.223569	-3.001500	3.693900	-11.086000	25.070676	0.000505	20.791446
811.221470	-3.009900	3.694100	-11.119000	25.064634	0.000506	20.800554
812.222886	-3.030300	3.694400	-11.195000	25.041859	0.000507	20.801400
813.223876	-3.011200	3.694800	-11.125000	25.050157	0.000506	20.812100
814.226538	-3.002200	3.693000	-11.086000	25.053319	0.000504	20.809584
815.223037	-3.002200	3.693800	-11.089000	25.098678	0.000505	20.790158
816.223765	-2.988700	3.694000	-11.040000	25.090507	0.000506	20.802344
817.222854	-2.999100	3.692400	-11.073000	25.101367	0.000504	20.803289
818.226530	-3.006400	3.692700	-11.101000	25.079784	0.000504	20.793477
819.225363	-3.001000	3.693000	-11.082000	25.096983	0.000502	20.809319
820.228635	-3.006600	3.691100	-11.097000	25.119760	0.000502	20.829813
821.222142	-2.995300	3.692400	-11.059000	25.127910	0.000503	20.800536
822.233794	-3.006900	3.691600	-11.100000	25.087737	0.000502	20.798615
823.224001	-2.976600	3.691600	-10.987000	25.074730	0.000502	20.803102
824.231232	-2.999900	3.690800	-11.070000	25.035923	0.000501	20.804924
825.226126	-2.996700	3.690100	-11.057000	25.013869	0.000502	20.819297
826.225575	-3.027000	3.689400	-11.166000	25.011331	0.000501	20.793042
827.227734	-2.999000	3.691100	-11.068000	25.020105	0.000502	20.830772
828.232986	-3.010300	3.690300	-11.108000	25.066122	0.000502	20.801099
829.225387	-3.019200	3.688800	-11.136000	25.091575	0.000501	20.815744
830.231750	-3.011400	3.688900	-11.108000	25.052194	0.000500	20.825050
831.229589	-3.015500	3.688800	-11.123000	25.028375	0.000498	20.812521
832.228176	-3.014000	3.688500	-11.115000	25.034266	0.000499	20.807528
833.226403	-3.001800	3.689000	-11.072000	25.035436	0.000499	20.812970
834.231462	-2.986200	3.689400	-11.016000	25.026680	0.000498	20.815086
835.229159	-3.004700	3.687900	-11.080000	24.994357	0.000501	20.809669
836.231915	-3.010700	3.687300	-11.100000	25.020884	0.000500	20.826813
837.231764	-3.003100	3.687900	-11.074000	25.025259	0.000497	20.817454
838.236671	-2.986500	3.688700	-11.015000	25.052628	0.000498	20.825960
839.233761	-2.996500	3.688300	-11.050000	25.073182	0.000500	20.809135
840.234898	-2.998100	3.686800	-11.053000	25.056999	0.000498	20.810433
841.232509	-2.987900	3.687800	-11.018000	25.075886	0.000498	20.826073
842.233980	-3.015900	3.685900	-11.115000	25.094311	0.000498	20.854525
843.229479	-3.010000	3.685500	-11.093000	25.132316	0.000499	20.814917
844.232518	-2.992600	3.687000	-11.033000	25.117973	0.000496	20.832287
845.235798	-3.000800	3.686500	-11.061000	25.141512	0.000499	20.814191
846.235370	-3.007500	3.687100	-11.088000	25.180439	0.000496	20.828614
847.229712	-3.000800	3.686600	-11.062000	25.199179	0.000497	20.822298
848.236710	-2.996500	3.685100	-11.042000	25.225775	0.000497	20.827188
849.229384	-3.028300	3.684700	-11.157000	25.217077	0.000498	20.822248
850.232210	-2.983400	3.685400	-10.993000	25.157786	0.000496	20.826735
851.233343	-2.988300	3.685300	-11.011000	25.125922	0.000496	20.828412
852.230345	-2.996700	3.684700	-11.041000	25.086888	0.000495	20.827634
853.238499	-3.019700	3.682600	-11.119000	25.086542	0.000494	20.822546
854.233657	-2.995600	3.684800	-11.036000	25.072795	0.000494	20.838617
855.233605	-2.992500	3.682900	-11.020000	25.079429	0.000493	20.832000
856.233965	-2.992400	3.682600	-11.019000	25.091315	0.000495	20.832078
857.236389	-3.019500	3.682100	-11.117000	25.086595	0.000494	20.827340
858.243229	-2.988900	3.682900	-11.007000	25.096514	0.000494	20.824021
859.241508	-2.985900	3.683400	-10.997000	25.094924	0.000493	20.824796
860.239836	-2.975500	3.682800	-10.957000	25.114731	0.000495	20.829506
861.241500	-2.988100	3.682600	-11.003000	25.102704	0.000491	20.833079
862.236930	-2.986500	3.683200	-10.999000	25.128555	0.000493	20.841486
863.243129	-2.987300	3.682600	-11.000000	25.113864	0.000491	20.840963
864.239933	-3.013600	3.681300	-11.093000	25.111523	0.000492	20.844777
865.242477	-2.995900	3.680100	-11.024000	25.105658	0.000492	20.846475
866.240860	-3.007300	3.681300	-11.069000	25.085795	0.000490	20.828908
867.247228	-2.998100	3.681200	-11.035000	25.056957	0.000490	20.838366
868.241919	-2.993500	3.680000	-11.014000	25.086666	0.000491	20.840687
869.245849	-3.004600	3.680900	-11.058000	25.076993	0.000491	20.845676
870.247514	-3.012400	3.680700	-11.087000	25.085224	0.000493	20.825490
871.241167	-2.997000	3.680000	-11.026000	25.100141	0.000489	20.841886
872.247076	-2.987300	3.680600	-10.994000	25.134174	0.000491	20.845704
873.247327	-2.969500	3.680000	-10.927000	25.149563	0.000489	20.835549
874.247402	-3.001500	3.679700	-11.044000	25.149883	0.000489	20.855785
875.250671	-2.998600	3.678600	-11.030000	25.105365	0.000487	20.840492
876.251714	-2.974000	3.679600	-10.942000	25.125051	0.000487	20.849349
877.248222	-2.984900	3.678200	-10.978000	25.169502	0.000488	20.846557
878.253135	-3.009200	3.678000	-11.067000	25.165226	0.000488	20.857437
879.248122	-3.008500	3.678800	-11.067000	25.133257	0.000488	20.848103
880.248962	-2.995400	3.677800	-11.014000	25.117127	0.000487	20.847084
881.266811	-2.990900	3.678500	-11.001000	25.104202	0.000488	20.847385
882.250064	-2.972300	3.677200	-10.928000	25.158318	0.000487	20.844338
883.250476	-3.001100	3.677000	-11.035000	25.141417	0.000485	20.841122
884.247373	-3.000000	3.676800	-11.029000	25.195682	0.000485	20.874735
885.253413	-2.997900	3.676300	-11.019000	25.225211	0.000487	20.829941
886.249969	-2.993300	3.676700	-11.005000	25.193617	0.000486	20.856542
887.251826	-2.975800	3.675900	-10.937000	25.159114	0.000487	20.866948
888.252071	-2.991000	3.675400	-10.993000	25.150613	0.000486	20.860784
889.252361	-2.990200	3.675300	-10.989000	25.113923	0.000486	20.867574
890.249591	-2.997300	3.673900	-11.011000	25.113254	0.000485	20.849833
891.253205	-3.009800	3.674100	-11.058000	25.129810	0.000487	20.842272
892.251361	-2.999800	3.674700	-11.022000	25.155438	0.000482	20.845240
893.249298	-3.010400	3.674900	-11.062000	25.149844	0.000486	20.854323
894.251877	-3.004200	3.674900	-11.040000	25.158103	0.000482	20.852657
895.250644	-3.012200	3.673400	-11.064000	25.204480	0.000483	20.860809
896.256425	-3.001800	3.674100	-11.028000	25.242241	0.000481	20.865529
897.253349	-2.987700	3.674000	-10.976000	25.197202	0.000481	20.869148
898.253406	-3.015900	3.672500	-11.075000	25.176047	0.000484	20.852179
899.252374	-3.006100	3.674100	-11.044000	25.205851	0.000483	20.872142
900.253946	-3.011600	3.673800	-11.063000	25.197378	0.000481	20.854153
901.259430	-2.987200	3.673000	-10.971000	25.187932	0.000482	20.871222
902.254010	-2.987500	3.672000	-10.969000	25.189973	0.000481	20.869477
903.259063	-2.999800	3.672700	-11.016000	25.163918	0.000480	20.862288
904.256696	-2.989800	3.673600	-10.982000	25.204589	0.000480	20.850488
905.256432	-3.008600	3.670100	-11.041000	25.191115	0.000480	20.865409
906.259689	-3.029800	3.672000	-11.124000	25.168268	0.000480	20.871395
907.260423	-3.000700	3.671800	-11.017000	25.150722	0.000480	20.862316
908.257205	-2.996900	3.671700	-11.002000	25.156294	0.000478	20.875496
909.260484	-2.984400	3.670400	-10.952000	25.217520	0.000478	20.856832
910.256708	-3.025100	3.670300	-11.102000	25.204423	0.000478	20.854588
911.254230	-3.015100	3.668800	-11.061000	25.244296	0.000480	20.888453
912.254723	-2.997400	3.670100	-11.000000	25.255753	0.000478	20.871982
913.257542	-3.018100	3.670700	-11.078000	25.225856	0.000478	20.869467
914.259835	-2.991000	3.670200	-10.976000	25.255637	0.000478	20.888934
915.255901	-2.985700	3.669200	-10.954000	25.226902	0.000478	20.889482
916.261940	-3.009900	3.668600	-11.040000	25.190885	0.000478	20.856644
917.260593	-3.000100	3.669400	-11.007000	25.199961	0.000476	20.877608
918.256793	-3.012900	3.667100	-11.048000	25.177915	0.000476	20.896251
919.257489	-3.011200	3.669400	-11.048000	25.176924	0.000475	20.877240
920.257601	-3.017200	3.668700	-11.068000	25.195171	0.000477	20.869007
921.265582	-3.000700	3.667800	-11.004000	25.211405	0.000475	20.886252
922.264771	-2.998500	3.667800	-10.997000	25.259704	0.000476	20.870259
923.265010	-3.013600	3.666900	-11.049000	25.292692	0.000478	20.873507
924.268353	-3.019300	3.666300	-11.069000	25.260501	0.000476	20.878171
925.261439	-2.974400	3.666500	-10.905000	25.242361	0.000474	20.881769
926.268606	-3.003800	3.667000	-11.015000	25.232746	0.000475	20.864531
927.262607	-3.002100	3.665400	-11.003000	25.260141	0.000473	20.894404
928.261469	-3.012300	3.664700	-11.038000	25.273911	0.000473	20.880255
929.275590	-3.003600	3.666300	-11.011000	25.290493	0.000473	20.890264
930.262643	-2.995100	3.664500	-10.975000	25.310704	0.000475	20.875471
931.260994	-2.991600	3.665700	-10.965000	25.229972	0.000475	20.868384
932.263120	-2.983500	3.665600	-10.936000	25.262390	0.000474	20.860628
933.266826	-3.040800	3.663200	-11.138000	25.255211	0.000472	20.880446
934.263679	-2.991600	3.663800	-10.960000	25.272061	0.000472	20.880768
935.269776	-2.989600	3.663900	-10.953000	25.265132	0.000472	20.880924
936.270072	-3.004800	3.664500	-11.010000	25.328413	0.000472	20.886613
937.268474	-2.992300	3.664000	-10.963000	25.319370	0.000472	20.890335
938.269571	-3.006400	3.664200	-11.015000	25.309954	0.000473	20.875192
939.272268	-2.996600	3.663600	-10.977000	25.280079	0.000470	20.880283
940.264997	-3.009000	3.662200	-11.018000	25.255074	0.000472	20.893583
941.271894	-2.984600	3.663100	-10.932000	25.267303	0.000470	20.881681
942.273726	-2.978200	3.662600	-10.907000	25.197582	0.000472	20.885177
943.274106	-2.993200	3.662000	-10.961000	25.239249	0.000471	20.879119
944.269617	-2.985200	3.662000	-10.931000	25.268357	0.000471	20.880368
945.265634	-2.988800	3.661500	-10.943000	25.283720	0.000471	20.870663
946.272898	-3.000500	3.661000	-10.984000	25.300351	0.000469	20.897791
947.269805	-3.021700	3.661100	-11.062000	25.317647	0.000470	20.877701
948.271070	-3.015900	3.660100	-11.037000	25.332586	0.000471	20.861881
949.270785	-3.026800	3.659200	-11.075000	25.303561	0.000471	20.889635
950.272034	-2.984300	3.660500	-10.922000	25.280643	0.000468	20.899814
951.269363	-2.996500	3.660500	-10.968000	25.261654	0.000468	20.888337
952.273180	-3.000400	3.659500	-10.980000	25.224443	0.000470	20.868523
953.277351	-3.001600	3.659600	-10.984000	25.221983	0.000470	20.882173
954.271404	-3.005200	3.660000	-10.998000	25.238812	0.000469	20.877733
955.276438	-2.996200	3.658900	-10.962000	25.222230	0.000467	20.882895
956.272197	-3.030500	3.658400	-11.086000	25.231404	0.000467	20.879778
957.273368	-3.027000	3.656500	-11.068000	25.259987	0.000468	20.877181
958.275871	-2.984000	3.658900	-10.917000	25.297623	0.000467	20.865657
959.277653	-3.014300	3.657500	-11.024000	25.337460	0.000466	20.897118
960.269370	-3.035700	3.655800	-11.097000	25.332963	0.000464	20.874587
961.275662	-2.996600	3.657000	-10.957000	25.267522	0.000467	20.881427
962.276653	-3.000800	3.657300	-10.974000	25.260759	0.000463	20.890283
963.270148	-2.997700	3.655900	-10.959000	25.239958	0.000466	20.868452
964.273091	-2.969700	3.657400	-10.860000	25.285094	0.000465	20.863035
965.284091	-2.997900	3.657100	-10.962000	25.314201	0.000462	20.860491
966.273484	-2.996600	3.656300	-10.956000	25.312090	0.000464	20.881604
967.271975	-2.978500	3.656100	-10.887000	25.258697	0.000462	20.857395
968.282536	-2.974400	3.657300	-10.878000	25.227608	0.000461	20.865537
969.270065	-2.992400	3.655600	-10.937000	25.272897	0.000462	20.882555
970.275131	-3.006700	3.653600	-10.983000	25.256938	0.000462	20.858948
971.277997	-2.987900	3.655800	-10.923000	25.233994	0.000460	20.870525
972.282168	-2.992900	3.653800	-10.934000	25.216175	0.000463	20.847421
973.278067	-2.967200	3.655200	-10.845000	25.215156	0.000460	20.853984
974.274852	-2.989900	3.654400	-10.925000	25.240984	0.000459	20.868059
975.275660	-3.020600	3.652400	-11.032000	25.262539	0.000460	20.854140
976.278484	-3.000500	3.653800	-10.963000	25.260699	0.000459	20.868413
977.277913	-2.997500	3.653800	-10.951000	25.275167	0.000459	20.850697
978.271144	-2.989900	3.652700	-10.920000	25.282649	0.000458	20.825968
979.272302	-2.994700	3.652700	-10.938000	25.280788	0.000457	20.853496
980.275648	-3.003300	3.651300	-10.964000	25.255212	0.000459	20.852948
981.271470	-3.016200	3.650700	-11.010000	25.225462	0.000457	20.860063
982.272394	-2.990300	3.653200	-10.924000	25.235458	0.000458	20.861564
983.274416	-3.023100	3.651300	-11.038000	25.247043	0.000459	20.827677
984.276057	-3.012600	3.650500	-10.997000	25.302297	0.000457	20.840005
985.274332	-2.983700	3.650800	-10.892000	25.350472	0.000458	20.860874
986.275662	-2.991800	3.650900	-10.922000	25.366975	0.000457	20.830505
987.279096	-2.995500	3.650400	-10.934000	25.339512	0.000454	20.848922
988.275649	-2.988500	3.649900	-10.907000	25.326893	0.000455	20.850001
989.275972	-3.001300	3.648400	-10.948000	25.298283	0.000457	20.842613
990.281626	-2.991600	3.649200	-10.916000	25.318868	0.000453	20.840996
991.281290	-3.006100	3.649500	-10.969000	25.337412	0.000455	20.848236
992.279597	-3.019900	3.647800	-11.014000	25.308141	0.000454	20.836864
993.276452	-2.994900	3.649500	-10.929000	25.325938	0.000452	20.844776
994.277044	-3.010300	3.648000	-10.980000	25.295415	0.000455	20.854432
995.279408	-3.010600	3.647600	-10.979000	25.320747	0.000455	20.838616
996.276516	-3.006500	3.646600	-10.963000	25.320229	0.000452	20.837621
997.280598	-3.002500	3.648300	-10.953000	25.294305	0.000453	20.845257
998.278097	-3.023800	3.646000	-11.024000	25.254463	0.000451	20.843187
999.277540	-2.997900	3.648000	-10.936000	25.235872	0.000452	20.834954
1000.282873	-2.990100	3.646700	-10.903000	25.235555	0.000451	20.829420
1001.278733	-3.003000	3.646200	-10.948000	25.271451	0.000449	20.835587
1002.276052	-3.004700	3.645600	-10.953000	25.327599	0.000451	20.845021
1003.278490	-2.986900	3.645700	-10.889000	25.324022	0.000453	20.843326
1004.280082	-2.991100	3.644600	-10.900000	25.358868	0.000450	20.817149
1005.278870	-2.990900	3.646200	-10.904000	25.369881	0.000451	20.824414
1006.274848	-2.976000	3.645900	-10.849000	25.341474	0.000451	20.829081
1007.276779	-3.008800	3.644200	-10.964000	25.384376	0.000450	20.812415
1008.279857	-3.001600	3.646000	-10.943000	25.328378	0.000450	20.821148
1009.276931	-2.987300	3.644900	-10.888000	25.303973	0.000450	20.816559
1010.280240	-3.021600	3.645000	-11.012000	25.326468	0.000449	20.818756
1011.277624	-3.006600	3.643900	-10.955000	25.333379	0.000449	20.825221
1012.281706	-2.975100	3.645600	-10.845000	25.267215	0.000449	20.802412
1013.282358	-2.979400	3.643700	-10.855000	25.269552	0.000447	20.825621
1014.281143	-2.983600	3.643100	-10.869000	25.321746	0.000449	20.802635
1015.284897	-2.980600	3.642000	-10.855000	25.355274	0.000449	20.846256
1016.279301	-2.978000	3.642600	-10.847000	25.334299	0.000449	20.811920
1017.283017	-3.011900	3.642800	-10.971000	25.348318	0.000446	20.818410
1018.282281	-3.009400	3.642100	-10.960000	25.318687	0.000445	20.809521
1019.285570	-2.985800	3.641900	-10.874000	25.322891	0.000446	20.827493
1020.285499	-3.024900	3.640200	-11.010000	25.288118	0.000448	20.808226
1021.283281	-2.982300	3.640900	-10.858000	25.280907	0.000443	20.818530
1022.283440	-3.012900	3.640800	-10.969000	25.341527	0.000447	20.816806
1023.284388	-2.979700	3.641700	-10.851000	25.341379	0.000445	20.810020
1024.287441	-3.004600	3.639200	-10.934000	25.391180	0.000444	20.811661
1025.284693	-2.989000	3.639700	-10.878000	25.401991	0.000443	20.813508
1026.280801	-2.998900	3.639800	-10.915000	25.478412	0.000444	20.804425
1027.283807	-2.996000	3.638600	-10.900000	25.472918	0.000443	20.795115
1028.290300	-3.004500	3.639100	-10.933000	25.497791	0.000444	20.812981
1029.285427	-2.999000	3.639200	-10.913000	25.459673	0.000443	20.813583
1030.285260	-3.021800	3.637900	-10.992000	25.431144	0.000443	20.835669
1031.291269	-3.021200	3.636500	-10.986000	25.439246	0.000442	20.791648
1032.286628	-3.006000	3.637500	-10.933000	25.411932	0.000441	20.798360
1033.287039	-2.998300	3.637800	-10.907000	25.413973	0.000441	20.792823
1034.290301	-3.006200	3.636400	-10.931000	25.410224	0.000441	20.811817
1035.301353	-2.992500	3.637800	-10.886000	25.392699	0.000440	20.806074
1036.288266	-3.014100	3.635800	-10.958000	25.386613	0.000441	20.817507
1037.293772	-2.977700	3.637200	-10.830000	25.352984	0.000440	20.810766
1038.291667	-2.998800	3.635600	-10.901000	25.335835	0.000438	20.830532
1039.291358	-3.004900	3.635500	-10.924000	25.306211	0.000437	20.789408
1040.293029	-3.008800	3.634300	-10.934000	25.330398	0.000436	20.789511
1041.296653	-2.973100	3.636800	-10.811000	25.307632	0.000440	20.782300
1042.288953	-2.977500	3.637300	-10.829000	25.360473	0.000438	20.807855
1043.294508	-3.000500	3.635400	-10.907000	25.375489	0.000437	20.792112
1044.288476	-2.986800	3.635900	-10.858000	25.392065	0.000437	20.789317
1045.294205	-2.993300	3.634700	-10.878000	25.419133	0.000437	20.799900
1046.290592	-3.010700	3.633400	-10.938000	25.412871	0.000438	20.785078
1047.289662	-3.001600	3.633500	-10.905000	25.373480	0.000436	20.788199
1048.294907	-3.002000	3.632700	-10.904000	25.352756	0.000437	20.808167
1049.289968	-3.010900	3.633800	-10.940000	25.359740	0.000432	20.795265
1050.295362	-2.985900	3.632300	-10.845000	25.322586	0.000434	20.803004
1051.296780	-2.991500	3.632300	-10.864000	25.354352	0.000436	20.792226
1052.295382	-3.011600	3.631600	-10.936000	25.363529	0.000434	20.813294
1053.297512	-2.999700	3.633100	-10.897000	25.371783	0.000433	20.803090
1054.296789	-2.995300	3.631900	-10.877000	25.370465	0.000433	20.773791
1055.298576	-3.012100	3.630300	-10.934000	25.408418	0.000434	20.790090
1056.295475	-2.992400	3.632100	-10.868000	25.412668	0.000432	20.801943
1057.295422	-2.986200	3.629400	-10.837000	25.436901	0.000434	20.776017
1058.297908	-3.008700	3.629400	-10.919000	25.410762	0.000431	20.774425
1059.298024	-3.013400	3.630300	-10.938000	25.398160	0.000431	20.792592
1060.299914	-3.007300	3.629100	-10.913000	25.357976	0.000432	20.795865
1061.299522	-3.017300	3.628500	-10.947000	25.405966	0.000433	20.771980
1062.297497	-2.998400	3.628900	-10.880000	25.435989	0.000431	20.777472
1063.296795	-3.023100	3.628500	-10.968000	25.474588	0.000431	20.794422
1064.296938	-3.009800	3.628500	-10.920000	25.513031	0.000431	20.799835
1065.300500	-3.021100	3.629100	-10.962000	25.527593	0.000430	20.762777
1066.303610	-3.005300	3.627700	-10.901000	25.469021	0.000429	20.796891
1067.297138	-3.006500	3.627600	-10.906000	25.461597	0.000429	20.796549
1068.297577	-2.986700	3.628000	-10.835000	25.425584	0.000428	20.770342
1069.302414	-2.998300	3.627100	-10.873000	25.382740	0.000427	20.758616
1070.298615	-2.978000	3.627200	-10.800000	25.402306	0.000428	20.774469
1071.299716	-2.993000	3.625800	-10.851000	25.382991	0.000428	20.760764
1072.303592	-3.028200	3.625700	-10.978000	25.373324	0.000429	20.766231
1073.302824	-2.992200	3.626700	-10.851000	25.390849	0.000428	20.791415
1074.300377	-2.987900	3.626200	-10.834000	25.385458	0.000426	20.787898
1075.307990	-2.980400	3.627500	-10.810000	25.386924	0.000427	20.769929
1076.303179	-3.006800	3.623600	-10.894000	25.421197	0.000428	20.778740
1077.304518	-2.994100	3.624100	-10.850000	25.404145	0.000427	20.780583
1078.305440	-2.998600	3.625300	-10.870000	25.400843	0.000424	20.759724
1079.304645	-3.009700	3.624200	-10.907000	25.408078	0.000423	20.775998
1080.306348	-3.003900	3.625300	-10.888000	25.416602	0.000426	20.779342
1081.304065	-2.999000	3.623900	-10.867000	25.437182	0.000424	20.772980
1082.304483	-3.007500	3.622500	-10.894000	25.447693	0.000424	20.771207
1083.305287	-3.021800	3.623500	-10.949000	25.414319	0.000423	20.762350
1084.301332	-3.002000	3.623700	-10.878000	25.455646	0.000424	20.773503
1085.304242	-3.027500	3.622100	-10.965000	25.449635	0.000424	20.768415
1086.307114	-3.001500	3.623100	-10.873000	25.475732	0.000421	20.763327
1087.309463	-3.006500	3.622100	-10.889000	25.458508	0.000421	20.756936
1088.306529	-2.989300	3.621200	-10.823000	25.442831	0.000423	20.755419
1089.307251	-3.009900	3.620700	-10.895000	25.427696	0.000421	20.763929
1090.304894	-2.988600	3.620500	-10.818000	25.443504	0.000420	20.768423
1091.304942	-3.016100	3.620200	-10.918000	25.458642	0.000419	20.760865
1092.304654	-2.981500	3.620800	-10.794000	25.420022	0.000419	20.773292
1093.306204	-3.004700	3.619700	-10.876000	25.413214	0.000420	20.752705
1094.305974	-3.012200	3.619800	-10.903000	25.398378	0.000421	20.763887
1095.307250	-2.983900	3.620800	-10.803000	25.429995	0.000420	20.760073
1096.303905	-3.000000	3.619700	-10.859000	25.433924	0.000421	20.770657
1097.305444	-3.021900	3.617300	-10.930000	25.476621	0.000417	20.766117
1098.303324	-3.010500	3.617700	-10.890000	25.519140	0.000419	20.759978
1099.304364	-3.007900	3.616900	-10.879000	25.495959	0.000420	20.760406
1100.304914	-3.022900	3.616200	-10.930000	25.543552	0.000420	20.753198
1101.307272	-3.000500	3.617600	-10.854000	25.538654	0.000418	20.749702
1102.304801	-3.018100	3.617900	-10.918000	25.524243	0.000416	20.757041
1103.311450	-3.003700	3.617400	-10.865000	25.523352	0.000416	20.764207
1104.304925	-3.034500	3.614700	-10.968000	25.507151	0.000417	20.775439
1105.304544	-3.019800	3.616200	-10.919000	25.492017	0.000417	20.766405
1106.308072	-3.003600	3.616500	-10.861000	25.517838	0.000413	20.754402
1107.304762	-3.008200	3.616200	-10.877000	25.530167	0.000417	20.757775
1108.308711	-2.990800	3.615100	-10.811000	25.507282	0.000414	20.747120
1109.312068	-2.983700	3.616300	-10.788000	25.468539	0.000417	20.756104
1110.311611	-2.979800	3.615600	-10.772000	25.471323	0.000416	20.735191
1111.313604	-3.000800	3.615400	-10.848000	25.479748	0.000414	20.742704
1112.307718	-2.996400	3.613700	-10.828000	25.503381	0.000412	20.743677
1113.309154	-2.995300	3.614500	-10.825000	25.485964	0.000412	20.747524
1114.311129	-2.998400	3.613200	-10.833000	25.465041	0.000414	20.760178
1115.311163	-2.967300	3.614900	-10.726000	25.466880	0.000413	20.749222
1116.309012	-2.984900	3.612600	-10.782000	25.406218	0.000414	20.742361
1117.316598	-3.024400	3.611500	-10.922000	25.372269	0.000410	20.752843
1118.312655	-3.023100	3.612000	-10.918000	25.409002	0.000412	20.751321
1119.314329	-2.999300	3.611700	-10.830000	25.450879	0.000413	20.748802
1120.315774	-2.998300	3.613000	-10.832000	25.478964	0.000410	20.755193
1121.313532	-2.997400	3.612900	-10.828000	25.460922	0.000410	20.762206
1122.314361	-3.012600	3.610600	-10.875000	25.482498	0.000409	20.740724
1123.311026	-3.007100	3.610800	-10.857000	25.467315	0.000412	20.747762
1124.317314	-2.991800	3.611200	-10.803000	25.514059	0.000409	20.749185
1125.316252	-3.014500	3.609800	-10.881000	25.534838	0.000412	20.727376
1126.314293	-2.992600	3.609700	-10.801000	25.528372	0.000409	20.743643
1127.313623	-3.005200	3.608100	-10.841000	25.474648	0.000407	20.748488
1128.311226	-3.007700	3.609600	-10.856000	25.439041	0.000407	20.762993
1129.315494	-2.992600	3.609500	-10.801000	25.412997	0.000409	20.743003
1130.313924	-2.999500	3.608700	-10.823000	25.430291	0.000407	20.738084
1131.312421	-3.004700	3.608600	-10.842000	25.440881	0.000408	20.735441
1132.313916	-2.974100	3.610400	-10.737000	25.444485	0.000409	20.750442
1133.316926	-3.006400	3.608400	-10.847000	25.428780	0.000405	20.710961
1134.315867	-3.005300	3.607500	-10.841000	25.373113	0.000403	20.720024
1135.316639	-3.021700	3.606400	-10.896000	25.390162	0.000406	20.755163
1136.317873	-2.998500	3.607600	-10.816000	25.444066	0.000406	20.733899
1137.315771	-3.004600	3.607200	-10.837000	25.476721	0.000404	20.733499
1138.318075	-3.009500	3.606200	-10.852000	25.469691	0.000404	20.740191
1139.320186	-3.014900	3.605500	-10.869000	25.455247	0.000403	20.743230
1140.320613	-2.994600	3.605500	-10.796000	25.454750	0.000404	20.747473
1141.319473	-2.997200	3.606200	-10.807000	25.423639	0.000404	20.722395
1142.319734	-3.015600	3.604400	-10.869000	25.469642	0.000404	20.740616
1143.315703	-3.011800	3.603900	-10.853000	25.488077	0.000402	20.753913
1144.318929	-2.997300	3.605500	-10.806000	25.534279	0.000401	20.724444
1145.322986	-2.991700	3.604600	-10.783000	25.536935	0.000402	20.729957
1146.320009	-2.992900	3.603600	-10.784000	25.514374	0.000401	20.725318
1147.321585	-3.002600	3.602600	-10.816000	25.509452	0.000401	20.738867
1148.321067	-3.014100	3.602900	-10.859000	25.495340	0.000401	20.736550
1149.319193	-3.007700	3.602900	-10.835000	25.500583	0.000400	20.726642
1150.318978	-2.991900	3.603600	-10.781000	25.472976	0.000399	20.736851
1151.323260	-3.009500	3.602100	-10.840000	25.439377	0.000400	20.750528
1152.323212	-3.000200	3.602200	-10.806000	25.431424	0.000399	20.741593
1153.325202	-2.995300	3.601000	-10.785000	25.463257	0.000398	20.724720
1154.323092	-2.989900	3.601900	-10.769000	25.496412	0.000398	20.722926
1155.325572	-3.002700	3.601800	-10.814000	25.524367	0.000399	20.727767
1156.327096	-3.004400	3.600300	-10.815000	25.510379	0.000396	20.729841
1157.325766	-3.007600	3.599500	-10.825000	25.505231	0.000397	20.735577
1158.322548	-3.022600	3.598700	-10.877000	25.487966	0.000397	20.737205
1159.325075	-2.999000	3.599800	-10.795000	25.465101	0.000398	20.733684
1160.326184	-3.000200	3.599100	-10.797000	25.437443	0.000394	20.750956
1161.320069	-3.002800	3.599400	-10.808000	25.415201	0.000395	20.749484
1162.327749	-3.010100	3.598400	-10.830000	25.459459	0.000396	20.730390
1163.323590	-2.957000	3.600300	-10.645000	25.506060	0.000397	20.716494
1164.329320	-3.003900	3.599300	-10.810000	25.536844	0.000396	20.732237
1165.327477	-3.007400	3.597700	-10.820000	25.558345	0.000396	20.727750
1166.326938	-3.012900	3.597000	-10.837000	25.513713	0.000394	20.747414
1167.328325	-3.014300	3.597100	-10.841000	25.495426	0.000394	20.730946
1168.330571	-2.990800	3.597000	-10.757000	25.473600	0.000393	20.732261
1169.331967	-3.015500	3.596200	-10.844000	25.475693	0.000392	20.753331
1170.326122	-2.991900	3.596600	-10.760000	25.507948	0.000391	20.745893
1171.325276	-2.994000	3.596500	-10.767000	25.498206	0.000393	20.755549
1172.326114	-3.014800	3.595400	-10.838000	25.526715	0.000392	20.750041
1173.326189	-3.001700	3.595100	-10.791000	25.526666	0.000391	20.740033
1174.328534	-3.004700	3.595200	-10.802000	25.484693	0.000392	20.732496
1175.331113	-2.996900	3.595000	-10.773000	25.440859	0.000392	20.756757
1176.328043	-3.010100	3.594900	-10.820000	25.434568	0.000390	20.742854
1177.329417	-3.002700	3.594500	-10.791000	25.480723	0.000389	20.724241
1178.324595	-3.010400	3.594500	-10.820000	25.532036	0.000390	20.753962
1179.329960	-2.986100	3.594500	-10.733000	25.516582	0.000392	20.736545
1180.330306	-3.010000	3.592000	-10.810000	25.543971	0.000390	20.758361
1181.326101	-2.992700	3.593200	-10.752000	25.527294	0.000389	20.732129
1182.328061	-3.025300	3.592700	-10.868000	25.501572	0.000389	20.748498
1183.333459	-3.025800	3.593000	-10.871000	25.530451	0.000389	20.745257
1184.331490	-2.997500	3.591600	-10.765000	25.554058	0.000387	20.736722
1185.327869	-2.994500	3.593300	-10.759000	25.581470	0.000388	20.750976
1186.335749	-2.985500	3.590700	-10.720000	25.588380	0.000387	20.753648
1187.338456	-2.990500	3.591700	-10.740000	25.590913	0.000386	20.759985
1188.332721	-2.994800	3.590400	-10.752000	25.560696	0.000387	20.753821
1189.332570	-3.006900	3.590400	-10.796000	25.537020	0.000386	20.737629
1190.333141	-2.990600	3.590500	-10.737000	25.499793	0.000385	20.739126
1191.333509	-2.992400	3.590900	-10.745000	25.531797	0.000386	20.734755
1192.333406	-3.006200	3.590500	-10.793000	25.493483	0.000384	20.730891
1193.332846	-3.015800	3.589500	-10.825000	25.471266	0.000384	20.761688
1194.335221	-2.998100	3.590200	-10.763000	25.471443	0.000384	20.730570
1195.335138	-2.992000	3.589500	-10.740000	25.494205	0.000384	20.752006
1196.334292	-2.998400	3.588300	-10.758000	25.522366	0.000384	20.755156
1197.333929	-3.005000	3.587600	-10.780000	25.536403	0.000383	20.752184
1198.340802	-3.007600	3.587400	-10.788000	25.578974	0.000385	20.757004
1199.338468	-3.009100	3.586500	-10.792000	25.591844	0.000385	20.757127
1200.340628	-3.022100	3.586500	-10.837000	25.608421	0.000382	20.757181
1201.335730	-2.990600	3.587600	-10.728000	25.582036	0.000382	20.755338
1202.341391	-3.018100	3.586100	-10.823000	25.509675	0.000382	20.759956
1203.336315	-2.980000	3.586400	-10.686000	25.514693	0.000381	20.757882
1204.335552	-2.993600	3.586400	-10.735000	25.533036	0.000380	20.768717
1205.337594	-2.986900	3.586600	-10.712000	25.520416	0.000381	20.742766
1206.339751	-2.992900	3.585700	-10.731000	25.525630	0.000379	20.748951
1207.338252	-3.006300	3.584500	-10.776000	25.512143	0.000379	20.746312
1208.345922	-3.002600	3.585600	-10.765000	25.557493	0.000381	20.749181
1209.339269	-2.984200	3.584800	-10.697000	25.543604	0.000380	20.745664
1210.339742	-2.989100	3.585800	-10.717000	25.621533	0.000380	20.757547
1211.351486	-3.034100	3.584600	-10.875000	25.621406	0.000378	20.750781
1212.337839	-2.984000	3.583000	-10.691000	25.637884	0.000378	20.732243
1213.341244	-2.992000	3.581700	-10.715000	25.643898	0.000379	20.782855
1214.340524	-2.981300	3.583700	-10.682000	25.637589	0.000379	20.761344
1215.337194	-2.984900	3.583500	-10.696000	25.603026	0.000379	20.769780
1216.337753	-2.985600	3.582800	-10.696000	25.591794	0.000376	20.755654
1217.340220	-2.992300	3.582400	-10.719000	25.619230	0.000376	20.764243
1218.342062	-3.023700	3.580600	-10.826000	25.633766	0.000377	20.763670
1219.349007	-3.003500	3.582100	-10.757000	25.569784	0.000376	20.769587
1220.340981	-3.019300	3.580500	-10.808000	25.541259	0.000377	20.759905
1221.339623	-3.004900	3.580200	-10.758000	25.574210	0.000375	20.738943
1222.345688	-3.001500	3.580100	-10.745000	25.605296	0.000375	20.769215
1223.342895	-2.997000	3.578900	-10.725000	25.598662	0.000373	20.781993
1224.339744	-2.985200	3.580800	-10.689000	25.566282	0.000373	20.757060
1225.341982	-3.029700	3.580000	-10.845000	25.532888	0.000375	20.764300
1226.341926	-2.953300	3.581000	-10.575000	25.558038	0.000375	20.782921
1227.341835	-2.997800	3.578800	-10.728000	25.602242	0.000373	20.758561
1228.340796	-3.005800	3.579000	-10.757000	25.597303	0.000371	20.768774
1229.343162	-2.982300	3.578700	-10.672000	25.595143	0.000370	20.751432
1230.342390	-3.016000	3.577900	-10.790000	25.588858	0.000373	20.778785
1231.343431	-2.965200	3.578700	-10.610000	25.604294	0.000370	20.779589
1232.340248	-3.013600	3.576100	-10.776000	25.611577	0.000370	20.762721
1233.342234	-2.998900	3.576600	-10.725000	25.564537	0.000370	20.762894
1234.341687	-2.988700	3.576400	-10.688000	25.503634	0.000371	20.781390
1235.340374	-2.977200	3.577000	-10.648000	25.550701	0.000368	20.766543
1236.339238	-2.995700	3.576200	-10.712000	25.597890	0.000368	20.763673
1237.341277	-3.013000	3.575500	-10.772000	25.628035	0.000370	20.777828
1238.342049	-2.992800	3.575500	-10.700000	25.622497	0.000368	20.773688
1239.340656	-3.005400	3.574900	-10.743000	25.599318	0.000369	20.760840
1240.340927	-2.979700	3.574600	-10.651000	25.565994	0.000368	20.794230
1241.340418	-2.997700	3.574400	-10.715000	25.551235	0.000367	20.783200
1242.344242	-2.979100	3.574900	-10.649000	25.526536	0.000367	20.761240
1243.337707	-2.997200	3.574100	-10.711000	25.490307	0.000366	20.777964
1244.344283	-3.005600	3.572600	-10.736000	25.537103	0.000366	20.771853
1245.346536	-2.989600	3.573000	-10.681000	25.538643	0.000366	20.780986
1246.342017	-2.989500	3.572900	-10.680000	25.518768	0.000367	20.770035
1247.345545	-3.014300	3.572700	-10.769000	25.517651	0.000365	20.768439
1248.347964	-3.000200	3.572800	-10.718000	25.465043	0.000364	20.773931
1249.343984	-2.995900	3.571200	-10.698000	25.511192	0.000363	20.780446
1250.341506	-2.996600	3.571600	-10.702000	25.531721	0.000364	20.760283
1251.346342	-2.980600	3.571200	-10.643000	25.530452	0.000365	20.766596
1252.347160	-3.012800	3.571600	-10.760000	25.529857	0.000361	20.787810
1253.346788	-3.004100	3.569900	-10.724000	25.579431	0.000362	20.768369
1254.352736	-3.002500	3.569900	-10.717000	25.598862	0.000363	20.774607
1255.345709	-2.990200	3.570900	-10.676000	25.660609	0.000364	20.811967
1256.352644	-3.006300	3.569700	-10.731000	25.688589	0.000361	20.772740
1257.347783	-2.992700	3.570800	-10.685000	25.672538	0.000362	20.779378
1258.351460	-2.991200	3.570600	-10.679000	25.655145	0.000361	20.801737
1259.350394	-3.004800	3.567000	-10.717000	25.647641	0.000361	20.773337
1260.352485	-2.987400	3.569100	-10.662000	25.649209	0.000361	20.782025
1261.347553	-3.024700	3.566900	-10.789000	25.615739	0.000360	20.775910
1262.353582	-2.996700	3.568800	-10.693000	25.613354	0.000361	20.763083
1263.352679	-3.004200	3.567200	-10.716000	25.608978	0.000360	20.790457
1264.352711	-3.014500	3.565700	-10.747000	25.551559	0.000360	20.787793
1265.357409	-3.003100	3.567000	-10.711000	25.576877	0.000359	20.792357
1266.350305	-3.011000	3.567000	-10.740000	25.605106	0.000359	20.780404
1267.356566	-3.014600	3.566300	-10.749000	25.646204	0.000358	20.791809
1268.352700	-3.027700	3.564900	-10.793000	25.694406	0.000359	20.776211
1269.351977	-2.984500	3.565500	-10.640000	25.696721	0.000357	20.791813
1270.353733	-3.010300	3.565800	-10.733000	25.686311	0.000358	20.794633
1271.357678	-2.985800	3.565100	-10.644000	25.626979	0.000357	20.795734
1272.352645	-2.998500	3.564700	-10.688000	25.590302	0.000356	20.785925
1273.359309	-2.965500	3.566200	-10.575000	25.608390	0.000355	20.805988
1274.358292	-2.995700	3.565100	-10.679000	25.601785	0.000354	20.784655
1275.354602	-2.985900	3.564700	-10.643000	25.586505	0.000355	20.784956
1276.360716	-2.982900	3.564400	-10.630000	25.549580	0.000356	20.801453
1277.356649	-3.007900	3.562900	-10.716000	25.573141	0.000354	20.796666
1278.357881	-3.007700	3.563400	-10.717000	25.602811	0.000353	20.785212
1279.357681	-3.019100	3.562900	-10.755000	25.567028	0.000356	20.795268
1280.359671	-2.985000	3.564400	-10.639000	25.621523	0.000354	20.803056
1281.356225	-2.986300	3.562300	-10.636000	25.621876	0.000352	20.792980
1282.360182	-2.988200	3.562400	-10.644000	25.569643	0.000353	20.806429
1283.355817	-3.012600	3.560800	-10.727000	25.545716	0.000352	20.807530
1284.359361	-3.014600	3.561800	-10.736000	25.543257	0.000353	20.795103
1285.360456	-3.019900	3.559100	-10.747000	25.534139	0.000353	20.810127
1286.360843	-2.995500	3.561000	-10.666000	25.555763	0.000352	20.788696
1287.364434	-2.982700	3.560100	-10.618000	25.569155	0.000352	20.795033
1288.357971	-2.969100	3.559100	-10.567000	25.583347	0.000349	20.804071
1289.364202	-3.002800	3.559700	-10.688000	25.592445	0.000352	20.794241
1290.359985	-3.022600	3.559100	-10.757000	25.594756	0.000352	20.801304
1291.362119	-3.028400	3.557700	-10.773000	25.544591	0.000351	20.798340
1292.361113	-2.996900	3.557900	-10.661000	25.544493	0.000349	20.807724
1293.361888	-3.008200	3.558500	-10.703000	25.599560	0.000348	20.810395
1294.360959	-2.992700	3.556600	-10.642000	25.654603	0.000350	20.821107
1295.360490	-3.000700	3.556800	-10.672000	25.653983	0.000347	20.805312
1296.359596	-2.982000	3.557700	-10.608000	25.661988	0.000348	20.810033
1297.363114	-2.996800	3.556900	-10.659000	25.705891	0.000348	20.814774
1298.363096	-3.015000	3.557500	-10.725000	25.656573	0.000347	20.821189
1299.358281	-3.015500	3.556100	-10.723000	25.634290	0.000348	20.824414
1300.362111	-2.987200	3.557200	-10.625000	25.634463	0.000347	20.797086
1301.359698	-3.022000	3.555500	-10.744000	25.665527	0.000346	20.835397
1302.365967	-3.015600	3.555800	-10.721000	25.643470	0.000345	20.815615
1303.362885	-2.985300	3.554600	-10.610000	25.683150	0.000346	20.809002
1304.365241	-2.992800	3.554200	-10.636000	25.622599	0.000345	20.812671
1305.364412	-2.997700	3.554500	-10.654000	25.581081	0.000346	20.814597
1306.364369	-3.004200	3.553900	-10.675000	25.529996	0.000346	20.805968
1307.366348	-2.992500	3.554000	-10.634000	25.568313	0.000342	20.814102
1308.364969	-2.986500	3.553400	-10.612000	25.528087	0.000346	20.808792
1309.365226	-2.992700	3.553200	-10.633000	25.503585	0.000344	20.813583
1310.363433	-2.994100	3.552900	-10.637000	25.479730	0.000342	20.803378
1311.366191	-3.024700	3.551300	-10.741000	25.551177	0.000342	20.825342
1312.366997	-2.994400	3.552400	-10.636000	25.601354	0.000342	20.827844
1313.364529	-3.000500	3.550700	-10.653000	25.670580	0.000342	20.806809
1314.365865	-3.016000	3.551300	-10.710000	25.687280	0.000344	20.828797
1315.362765	-3.026300	3.551300	-10.746000	25.655207	0.000342	20.815076
1316.366831	-3.003900	3.549700	-10.662000	25.682962	0.000341	20.813080
1317.363943	-3.008400	3.550200	-10.680000	25.720637	0.000342	20.806352
1318.364697	-3.008700	3.549200	-10.678000	25.712362	0.000342	20.829807
1319.369195	-3.001200	3.550900	-10.656000	25.650749	0.000339	20.833831
1320.368680	-2.987500	3.551000	-10.607000	25.660515	0.000340	20.826571
1321.370925	-3.002300	3.550500	-10.659000	25.683725	0.000339	20.825701
1322.368522	-2.999200	3.549000	-10.643000	25.704723	0.000340	20.834936
1323.367364	-3.007500	3.549300	-10.674000	25.649719	0.000339	20.824736
1324.373155	-3.008300	3.548500	-10.674000	25.689846	0.000340	20.824736
1325.370339	-2.995100	3.547500	-10.624000	25.689978	0.000338	20.830558
1326.368567	-2.996600	3.548100	-10.631000	25.682076	0.000338	20.820725
1327.373526	-2.982500	3.547400	-10.580000	25.692617	0.000337	20.819459
1328.368044	-2.992800	3.546400	-10.613000	25.667548	0.000339	20.820832
1329.370986	-3.004900	3.546400	-10.656000	25.710885	0.000337	20.832591
1330.369723	-2.984600	3.546200	-10.583000	25.681345	0.000338	20.831845
1331.372806	-2.986500	3.547100	-10.593000	25.707564	0.000337	20.831627
1332.368598	-3.008500	3.544700	-10.663000	25.664658	0.000337	20.811766
1333.371441	-2.985400	3.545900	-10.585000	25.648538	0.000334	20.818809
1334.370986	-3.009000	3.544700	-10.664000	25.605630	0.000335	20.835931
1335.371572	-2.980000	3.543800	-10.559000	25.610449	0.000337	20.818487
1336.372792	-3.000800	3.544600	-10.636000	25.609062	0.000334	20.809982
1337.367851	-3.028300	3.543200	-10.728000	25.591971	0.000334	20.825534
1338.371366	-3.016000	3.542500	-10.683000	25.602063	0.000333	20.830927
1339.371525	-3.012100	3.542800	-10.671000	25.606287	0.000334	20.828531
1340.371842	-2.992900	3.543000	-10.603000	25.642122	0.000334	20.836072
1341.371677	-3.000700	3.543500	-10.632000	25.652738	0.000334	20.829191
1342.371911	-2.992900	3.542600	-10.601000	25.652217	0.000333	20.829616
1343.373181	-3.005000	3.542000	-10.643000	25.705813	0.000332	20.813747
1344.376150	-2.983100	3.542000	-10.565000	25.694434	0.000331	20.849732
1345.372412	-2.998400	3.541800	-10.619000	25.716153	0.000332	20.831245
1346.370409	-2.980500	3.540800	-10.553000	25.726888	0.000331	20.840130
1347.369385	-2.994000	3.540700	-10.601000	25.743964	0.000329	20.838790
1348.376349	-3.006100	3.540100	-10.641000	25.700489	0.000332	20.840642
1349.369713	-3.011400	3.540400	-10.660000	25.687546	0.000330	20.837599
1350.378486	-3.018600	3.539000	-10.683000	25.692542	0.000331	20.842143
1351.381247	-2.988100	3.539600	-10.576000	25.745865	0.000329	20.838803
1352.378260	-3.008400	3.539600	-10.648000	25.750939	0.000332	20.849589
1353.379927	-3.001300	3.538300	-10.618000	25.765371	0.000331	20.838956
1354.378389	-2.995300	3.538900	-10.599000	25.721101	0.000329	20.846171
1355.384446	-3.011300	3.538200	-10.653000	25.670918	0.000328	20.844605
1356.380041	-3.020500	3.538100	-10.686000	25.650146	0.000327	20.850768
1357.374917	-3.011300	3.537800	-10.652000	25.678594	0.000328	20.852789
1358.376444	-3.027700	3.537400	-10.709000	25.680979	0.000328	20.858029
1359.384365	-2.994200	3.538600	-10.594000	25.657630	0.000326	20.844535
1360.378813	-3.005300	3.537700	-10.632000	25.665085	0.000328	20.848703
1361.380512	-2.988300	3.537600	-10.571000	25.700220	0.000326	20.868345
1362.378857	-3.012200	3.535300	-10.648000	25.705487	0.000326	20.852773
1363.380109	-2.993600	3.536500	-10.586000	25.676271	0.000327	20.859938
1364.375972	-3.008200	3.536000	-10.635000	25.690832	0.000324	20.863183
1365.382814	-3.003300	3.535100	-10.616000	25.703956	0.000323	20.841279
1366.376884	-2.998700	3.535900	-10.602000	25.746240	0.000327	20.855300
1367.378973	-2.995000	3.534800	-10.585000	25.725277	0.000324	20.866486
1368.391921	-3.005200	3.535300	-10.624000	25.699584	0.000326	20.854431
1369.378171	-2.990800	3.534600	-10.570000	25.721127	0.000326	20.867059
1370.380685	-3.009700	3.533900	-10.635000	25.737112	0.000325	20.872209
1371.383954	-3.013600	3.533400	-10.648000	25.699966	0.000324	20.868564
1372.380844	-2.979500	3.533000	-10.526000	25.692939	0.000322	20.850601
1373.383549	-3.004600	3.531800	-10.611000	25.725635	0.000322	20.860207
1374.386193	-2.974000	3.533700	-10.509000	25.691330	0.000323	20.855623
1375.380305	-3.011700	3.530900	-10.633000	25.741817	0.000322	20.884520
1376.380808	-2.986500	3.530700	-10.544000	25.722167	0.000319	20.877112
1377.380600	-3.002600	3.531100	-10.602000	25.707336	0.000321	20.851311
1378.380548	-3.004100	3.529700	-10.603000	25.687361	0.000322	20.865387
1379.382062	-3.003500	3.531000	-10.605000	25.660678	0.000323	20.846174
1380.380994	-3.017100	3.529900	-10.649000	25.663810	0.000319	20.835096
1381.382304	-2.995800	3.530500	-10.575000	25.669431	0.000319	20.863025
1382.384775	-3.039000	3.527700	-10.719000	25.704467	0.000319	20.855068
1383.385703	-3.005700	3.528900	-10.606000	25.735923	0.000320	20.849205
1384.383757	-3.015600	3.527700	-10.637000	25.744691	0.000321	20.847106
1385.384218	-2.981200	3.528600	-10.519000	25.660170	0.000317	20.851827
1386.381644	-3.000400	3.528100	-10.585000	25.651303	0.000317	20.848138
1387.386506	-2.979000	3.528500	-10.510000	25.605932	0.000316	20.850933
1388.381782	-2.986700	3.527000	-10.533000	25.603591	0.000314	20.834833
1389.387015	-3.012100	3.526200	-10.620000	25.666336	0.000315	20.833365
1390.385259	-2.990900	3.527900	-10.550000	25.689070	0.000318	20.834388
1391.385625	-3.005400	3.526400	-10.597000	25.718018	0.000317	20.847816
1392.386786	-2.978800	3.527100	-10.506000	25.697173	0.000316	20.861018
1393.386506	-3.010600	3.525700	-10.613000	25.691882	0.000314	20.815876
1394.385128	-3.012600	3.526400	-10.622000	25.680257	0.000317	20.856355
1395.387330	-3.016600	3.524900	-10.632000	25.708257	0.000315	20.840857
1396.392169	-2.988500	3.525600	-10.535000	25.700285	0.000314	20.853713
1397.388394	-3.008000	3.523200	-10.597000	25.738478	0.000313	20.830435
1398.389205	-2.999000	3.523300	-10.566000	25.726681	0.000314	20.829491
1399.391418	-2.977500	3.524400	-10.493000	25.683595	0.000312	20.833156
1400.390512	-3.031600	3.522700	-10.678000	25.743178	0.000314	20.819983
1401.387263	-2.989800	3.523100	-10.533000	25.740719	0.000314	20.840273
1402.390384	-3.029300	3.522100	-10.668000	25.727005	0.000314	20.832188
1403.387207	-2.995000	3.522500	-10.549000	25.680328	0.000312	20.823711
1404.392517	-2.983700	3.523000	-10.511000	25.663781	0.000310	20.824635
1405.389537	-2.984700	3.521600	-10.510000	25.641941	0.000311	20.836365
1406.390092	-3.008000	3.521200	-10.591000	25.688707	0.000310	20.837342
1407.395329	-3.036400	3.519700	-10.686000	25.687541	0.000311	20.839490
1408.395465	-3.026200	3.520600	-10.653000	25.715939	0.000310	20.844306
1409.396185	-2.989600	3.521000	-10.526000	25.710053	0.000309	20.828437
1410.394883	-2.973400	3.519600	-10.464000	25.676914	0.000308	20.825498
1411.400878	-2.991400	3.520900	-10.531000	25.691474	0.000307	20.842493
1412.395971	-2.965000	3.520600	-10.438000	25.729323	0.000309	20.827403
1413.393533	-3.009600	3.518000	-10.586000	25.782340	0.000309	20.819017
1414.399238	-3.010700	3.518500	-10.591000	25.746493	0.000308	20.825684
1415.395216	-2.999900	3.517900	-10.552000	25.713076	0.000308	20.801602
1416.395813	-3.016000	3.518900	-10.611000	25.736511	0.000310	20.811864
1417.396319	-2.994600	3.517400	-10.532000	25.728909	0.000307	20.823194
1418.406571	-2.997300	3.517800	-10.543000	25.665980	0.000306	20.828266
1419.393937	-3.005700	3.517100	-10.571000	25.693808	0.000307	20.813069
1420.393981	-2.983700	3.517800	-10.495000	25.725864	0.000307	20.818713
1421.397902	-3.010500	3.517600	-10.589000	25.769223	0.000307	20.818170
1422.401882	-2.990200	3.516900	-10.515000	25.760726	0.000306	20.813428
1423.398948	-3.006400	3.515400	-10.567000	25.727088	0.000306	20.792442
1424.399822	-2.990800	3.516000	-10.514000	25.738146	0.000306	20.807343
1425.402837	-2.972400	3.517400	-10.453000	25.743393	0.000306	20.814509
1426.401514	-2.995200	3.514900	-10.526000	25.753301	0.000307	20.799806
1427.404355	-3.015900	3.515300	-10.601000	25.767069	0.000306	20.824540
1428.397647	-3.013900	3.514300	-10.591000	25.760682	0.000307	20.810538
1429.396700	-2.995500	3.514400	-10.527000	25.775098	0.000303	20.814114
1430.399943	-3.024400	3.513100	-10.624000	25.748191	0.000304	20.804157
1431.399185	-3.031500	3.513000	-10.649000	25.679742	0.000305	20.808898
1432.397728	-3.012800	3.512600	-10.581000	25.667644	0.000304	20.823774
1433.401758	-2.984900	3.512500	-10.484000	25.659422	0.000304	20.797024
1434.402324	-3.003400	3.511600	-10.545000	25.631219	0.000304	20.802363
1435.401218	-3.012800	3.511100	-10.578000	25.647271	0.000303	20.809476
1436.406603	-2.981000	3.512100	-10.469000	25.661261	0.000303	20.812147
1437.402183	-3.011500	3.510800	-10.571000	25.704520	0.000302	20.812923
1438.409269	-3.023300	3.510300	-10.612000	25.725714	0.000303	20.801020
1439.413932	-3.017900	3.510100	-10.593000	25.714483	0.000300	20.823403
1440.406641	-3.025900	3.508400	-10.615000	25.673786	0.000302	20.805761
1441.410955	-3.011700	3.509600	-10.569000	25.652394	0.000300	20.794233
1442.404458	-3.009900	3.509000	-10.561000	25.633083	0.000301	20.782898
1443.406188	-3.005000	3.509000	-10.544000	25.650481	0.000302	20.818390
1444.405394	-3.021600	3.508900	-10.601000	25.713141	0.000301	20.781278
1445.405844	-3.007300	3.509000	-10.552000	25.716745	0.000299	20.808132
1446.401873	-3.025700	3.507100	-10.610000	25.788467	0.000299	20.805732
1447.408365	-2.994200	3.508600	-10.505000	25.791000	0.000299	20.834353
1448.404542	-2.961200	3.508000	-10.386000	25.753212	0.000299	20.796397
1449.407937	-2.992100	3.508500	-10.496000	25.731423	0.000298	20.817185
1450.408410	-3.019000	3.505600	-10.583000	25.669582	0.000298	20.807703
1451.411950	-2.986600	3.508000	-10.476000	25.687919	0.000295	20.795775
1452.410773	-3.002400	3.506300	-10.526000	25.706901	0.000297	20.798244
1453.409184	-3.015500	3.506400	-10.573000	25.717660	0.000296	20.790559
1454.411888	-2.983400	3.506000	-10.459000	25.696766	0.000296	20.784271
1455.405672	-3.020600	3.504700	-10.586000	25.723497	0.000297	20.790732
1456.413345	-2.985000	3.506100	-10.464000	25.703198	0.000297	20.785516
1457.410532	-2.981000	3.506000	-10.451000	25.724072	0.000295	20.811698
1458.410299	-2.985100	3.503700	-10.458000	25.722709	0.000295	20.792786
1459.412386	-3.000800	3.504600	-10.516000	25.714011	0.000295	20.786420
1460.413606	-2.997700	3.503200	-10.500000	25.711478	0.000293	20.806635
1461.411514	-2.997600	3.501900	-10.496000	25.706831	0.000292	20.801020
1462.409007	-2.994500	3.503300	-10.490000	25.661988	0.000293	20.807662
1463.412991	-3.000200	3.503000	-10.508000	25.670761	0.000294	20.797981
1464.409729	-2.996800	3.503000	-10.497000	25.731929	0.000292	20.790667
1465.413056	-2.983800	3.502600	-10.449000	25.753693	0.000293	20.804941
1466.409049	-2.996100	3.502400	-10.493000	25.730291	0.000294	20.798505
1467.412294	-3.001300	3.502800	-10.512000	25.721774	0.000290	20.779518
1468.412625	-3.004200	3.500200	-10.515000	25.698967	0.000291	20.790276
1469.409389	-3.004500	3.501400	-10.519000	25.706914	0.000291	20.788301
1470.410825	-2.994700	3.501200	-10.483000	25.700187	0.000290	20.782017
1471.413832	-2.982700	3.499700	-10.437000	25.741498	0.000290	20.802649
1472.414246	-3.000600	3.498800	-10.497000	25.730994	0.000291	20.789728
1473.414411	-3.014300	3.498800	-10.545000	25.738822	0.000290	20.786685
1474.412695	-3.015100	3.499200	-10.549000	25.760015	0.000288	20.798963
1475.417330	-3.016600	3.499100	-10.555000	25.765109	0.000289	20.779424
1476.422738	-2.997000	3.499200	-10.486000	25.816635	0.000289	20.792301
1477.416698	-3.023800	3.496800	-10.573000	25.748937	0.000289	20.775507
1478.425597	-3.004900	3.496100	-10.504000	25.765660	0.000289	20.794202
1479.420541	-3.001600	3.497000	-10.496000	25.778060	0.000288	20.781528
1480.419132	-3.006700	3.496600	-10.511000	25.777367	0.000288	20.806435
1481.420246	-3.004900	3.497500	-10.508000	25.736053	0.000286	20.797653
1482.421050	-2.997700	3.495400	-10.478000	25.670041	0.000289	20.793939
1483.416428	-3.003000	3.495600	-10.497000	25.653891	0.000287	20.795263
1484.417417	-3.000300	3.495900	-10.488000	25.726419	0.000287	20.794615
1485.421883	-2.964800	3.497400	-10.368000	25.703814	0.000287	20.803678
1486.418773	-3.003700	3.495400	-10.498000	25.652155	0.000286	20.788303
1487.423943	-2.997300	3.496200	-10.478000	25.713682	0.000284	20.805056
1488.421353	-2.983500	3.495400	-10.427000	25.728395	0.000285	20.795651
1489.423428	-3.025300	3.494300	-10.570000	25.815300	0.000285	20.794278
1490.421738	-3.025900	3.493700	-10.570000	25.848370	0.000285	20.794782
1491.423699	-2.997400	3.493100	-10.469000	25.804427	0.000283	20.775297
1492.425581	-2.995500	3.492500	-10.461000	25.721475	0.000284	20.781115
1493.419656	-2.962700	3.492800	-10.347000	25.756727	0.000283	20.761047
1494.423381	-3.015100	3.491400	-10.526000	25.749577	0.000284	20.790375
1495.427156	-3.000200	3.493000	-10.479000	25.723786	0.000282	20.777272
1496.423342	-2.984000	3.491600	-10.418000	25.741257	0.000281	20.779173
1497.423777	-2.990600	3.492900	-10.444000	25.777584	0.000282	20.793378
1498.426489	-3.020400	3.491000	-10.543000	25.755329	0.000282	20.795679
1499.424631	-3.003700	3.490400	-10.483000	25.756155	0.000281	20.767585
1500.432192	-3.011300	3.489400	-10.507000	25.794041	0.000281	20.758699
1501.430884	-2.997000	3.489800	-10.459000	25.824850	0.000281	20.785380
1502.424280	-3.005900	3.489500	-10.488000	25.802744	0.000280	20.773131
1503.428733	-2.987500	3.489600	-10.424000	25.815739	0.000278	20.778124
1504.426763	-2.999400	3.488800	-10.464000	25.760289	0.000280	20.767944
1505.430463	-3.000700	3.487200	-10.463000	25.724885	0.000279	20.764625
1506.432244	-3.000800	3.488400	-10.467000	25.747795	0.000280	20.765825
1507.432205	-2.998300	3.488200	-10.457000	25.774927	0.000278	20.766527
1508.431395	-2.987900	3.487900	-10.421000	25.753690	0.000278	20.774118
1509.431279	-2.979000	3.488000	-10.390000	25.784865	0.000277	20.744739
1510.432158	-3.007800	3.486200	-10.485000	25.771907	0.000277	20.776770
1511.426992	-3.011600	3.486400	-10.499000	25.751084	0.000277	20.752059
1512.430524	-3.009000	3.486400	-10.489000	25.758990	0.000280	20.760475
1513.430880	-3.009800	3.485500	-10.490000	25.739784	0.000276	20.759201
1514.434698	-3.025200	3.485600	-10.543000	25.779165	0.000276	20.772680
1515.431943	-3.022000	3.486100	-10.534000	25.779662	0.000276	20.765118
1516.431158	-3.001100	3.484900	-10.458000	25.799290	0.000275	20.774878
1517.430741	-3.010000	3.484300	-10.487000	25.748015	0.000276	20.761779
1518.431143	-2.984100	3.484900	-10.399000	25.732933	0.000274	20.779822
1519.429358	-2.986700	3.483900	-10.403000	25.718004	0.000274	20.766248
1520.431808	-2.987200	3.484600	-10.408000	25.668835	0.000274	20.754320
1521.428456	-3.012200	3.482600	-10.489000	25.680784	0.000275	20.763952
1522.428679	-2.988700	3.483700	-10.411000	25.723615	0.000274	20.748176
1523.438211	-3.006900	3.481400	-10.467000	25.734383	0.000273	20.750931
1524.429128	-2.994200	3.481800	-10.425000	25.766483	0.000272	20.762786
1525.435018	-2.994800	3.481600	-10.426000	25.779203	0.000273	20.748536
1526.438310	-3.002700	3.481500	-10.452000	25.781416	0.000273	20.761190
1527.433603	-3.021700	3.479600	-10.513000	25.792774	0.000271	20.753633
1528.436033	-3.003300	3.481000	-10.453000	25.743706	0.000271	20.761244
1529.433545	-3.017900	3.479900	-10.501000	25.749617	0.000272	20.741102
1530.435415	-3.018800	3.480800	-10.507000	25.756230	0.000272	20.748219
1531.433972	-2.987700	3.480000	-10.396000	25.834086	0.000270	20.735861
1532.434143	-3.002900	3.478400	-10.445000	25.807156	0.000271	20.730146
1533.435704	-2.985600	3.480000	-10.388000	25.806816	0.000270	20.732650
1534.437487	-3.005600	3.479200	-10.456000	25.897884	0.000271	20.739734
1535.435818	-3.017600	3.477900	-10.493000	25.833073	0.000270	20.745750
1536.442938	-3.007000	3.479500	-10.462000	25.849077	0.000268	20.758033
1537.441530	-2.998400	3.479100	-10.431000	25.849347	0.000269	20.756408
1538.443229	-2.992700	3.477800	-10.407000	25.814393	0.000268	20.763970
1539.439366	-3.008100	3.478000	-10.461000	25.830442	0.000268	20.743581
1540.438571	-3.001700	3.477000	-10.436000	25.813002	0.000268	20.743132
1541.438385	-2.982000	3.476800	-10.367000	25.763016	0.000267	20.738439
1542.439134	-2.995000	3.476800	-10.412000	25.753349	0.000268	20.743902
1543.440390	-3.010600	3.474400	-10.459000	25.794170	0.000266	20.739862
1544.439444	-3.023900	3.474300	-10.505000	25.741773	0.000269	20.730852
1545.442792	-3.014000	3.475500	-10.474000	25.727144	0.000267	20.754566
1546.436771	-2.986300	3.474900	-10.376000	25.743066	0.000266	20.753015
1547.438940	-2.966800	3.475600	-10.310000	25.718967	0.000269	20.754413
1548.440978	-3.000900	3.473900	-10.424000	25.761255	0.000266	20.744732
1549.438100	-3.013500	3.473100	-10.465000	25.742697	0.000268	20.773034
1550.438622	-2.989000	3.473900	-10.383000	25.689821	0.000266	20.752640
1551.440876	-3.005600	3.474200	-10.441000	25.695511	0.000265	20.754087
1552.440829	-3.018800	3.471100	-10.478000	25.723265	0.000264	20.759204
1553.441071	-3.007100	3.472800	-10.442000	25.739536	0.000267	20.763694
1554.437610	-3.005900	3.473300	-10.439000	25.764486	0.000265	20.752718
1555.442557	-3.004500	3.472800	-10.433000	25.800110	0.000264	20.748673
1556.442790	-3.000000	3.472000	-10.415000	25.774615	0.000263	20.751040
1557.445834	-2.984100	3.472600	-10.362000	25.754642	0.000263	20.756581
1558.448284	-3.020300	3.471200	-10.483000	25.732775	0.000261	20.739358
1559.443482	-2.996400	3.470500	-10.398000	25.727007	0.000263	20.736410
1560.447933	-3.011200	3.470300	-10.449000	25.746489	0.000261	20.737486
1561.447925	-3.003600	3.471300	-10.426000	25.790434	0.000262	20.735160
1562.441693	-3.020200	3.470300	-10.480000	25.860941	0.000261	20.735338
1563.442068	-3.017300	3.469500	-10.468000	25.868218	0.000263	20.745493
1564.441370	-2.996700	3.469800	-10.397000	25.860715	0.000261	20.738430
1565.440184	-2.985900	3.469100	-10.357000	25.843920	0.000261	20.734834
1566.447075	-2.995000	3.467900	-10.385000	25.861733	0.000259	20.740401
1567.446986	-2.975600	3.469000	-10.321000	25.882476	0.000263	20.742747
1568.443827	-2.988400	3.469500	-10.367000	25.926116	0.000260	20.745810
1569.443457	-3.000100	3.467300	-10.401000	25.908456	0.000258	20.736603
1570.443525	-3.018300	3.466500	-10.462000	25.886921	0.000259	20.735358
1571.444478	-2.998300	3.467400	-10.395000	25.874030	0.000257	20.728097
1572.445701	-3.010000	3.465800	-10.431000	25.801684	0.000258	20.735081
1573.445333	-3.002200	3.466000	-10.405000	25.763881	0.000259	20.736938
1574.449345	-2.989700	3.466100	-10.362000	25.809742	0.000258	20.730848
1575.450566	-2.986600	3.466400	-10.352000	25.842980	0.000258	20.733890
1576.445457	-3.001800	3.464900	-10.401000	25.871654	0.000257	20.726659
1577.443356	-2.983800	3.464800	-10.338000	25.889093	0.000255	20.736592
1578.445939	-3.005600	3.464900	-10.413000	25.882407	0.000256	20.738884
1579.446200	-3.011600	3.464400	-10.433000	25.848354	0.000256	20.748298
1580.442650	-2.993800	3.465100	-10.372000	25.771763	0.000255	20.735846
1581.453514	-3.019700	3.463700	-10.458000	25.801058	0.000255	20.740617
1582.444975	-3.035900	3.462700	-10.512000	25.819118	0.000256	20.739792
1583.445740	-3.008600	3.464100	-10.421000	25.835147	0.000254	20.726969
1584.447430	-2.999900	3.463300	-10.388000	25.846106	0.000254	20.755523
1585.447761	-2.999000	3.462400	-10.382000	25.838180	0.000256	20.735233
1586.446071	-2.989500	3.463100	-10.352000	25.855251	0.000255	20.741950
1587.444018	-2.980600	3.463500	-10.321000	25.871697	0.000253	20.727176
1588.443820	-2.993800	3.462300	-10.364000	25.845840	0.000255	20.735341
1589.445058	-2.972100	3.462500	-10.289000	25.834964	0.000251	20.733898
1590.444679	-3.021300	3.462300	-10.460000	25.871013	0.000250	20.720325
1591.447802	-2.995900	3.460900	-10.367000	25.908531	0.000253	20.722927
1592.446925	-2.985500	3.461800	-10.335000	25.925498	0.000252	20.729541
1593.449758	-2.993900	3.460400	-10.359000	25.918000	0.000250	20.726750
1594.452682	-2.975500	3.460400	-10.295000	25.872316	0.000251	20.741549
1595.447294	-2.985600	3.460200	-10.330000	25.851995	0.000250	20.724454
1596.452262	-2.987600	3.459500	-10.335000	25.860992	0.000249	20.722586
1597.447434	-2.991300	3.458800	-10.346000	25.859729	0.000250	20.727007
1598.454728	-3.012100	3.458700	-10.416000	25.866887	0.000249	20.735621
1599.452380	-3.001600	3.457400	-10.377000	25.817626	0.000251	20.727861
1600.448505	-3.017200	3.456400	-10.427000	25.784712	0.000251	20.744111
1601.449529	-3.002900	3.457000	-10.380000	25.793931	0.000247	20.721128
1602.454902	-2.985500	3.456600	-10.319000	25.854428	0.000248	20.746813
1603.451162	-3.001200	3.456900	-10.374000	25.883170	0.000247	20.742496
1604.452361	-2.969100	3.456700	-10.262000	25.860564	0.000249	20.737329
1605.454721	-3.017500	3.455300	-10.425000	25.865190	0.000249	20.724907
1606.453444	-3.016300	3.456400	-10.425000	25.903869	0.000248	20.725830
1607.454499	-3.020800	3.455000	-10.437000	25.925683	0.000248	20.750117
1608.449671	-2.996800	3.455400	-10.353000	25.967314	0.000247	20.734094
1609.459047	-2.994800	3.454800	-10.345000	25.960736	0.000246	20.749771
1610.451401	-3.018200	3.453500	-10.423000	25.925914	0.000247	20.724269
1611.456520	-2.999900	3.454800	-10.363000	25.878961	0.000246	20.731155
1612.459328	-2.983000	3.455200	-10.306000	25.847966	0.000246	20.719458
1613.453727	-3.002100	3.455100	-10.372000	25.890348	0.000246	20.735481
1614.454624	-3.011600	3.454100	-10.401000	25.922167	0.000247	20.728566
1615.450482	-2.998100	3.452900	-10.351000	25.949871	0.000245	20.724155
1616.455794	-2.975700	3.454200	-10.278000	25.945574	0.000244	20.738331
1617.455122	-3.013600	3.452500	-10.404000	25.947063	0.000243	20.729396
1618.455187	-3.024400	3.451900	-10.439000	25.963464	0.000243	20.735915
1619.452943	-3.008800	3.450900	-10.382000	25.977770	0.000244	20.733218
1620.455542	-3.000500	3.451900	-10.357000	25.998737	0.000243	20.746224
1621.456778	-2.983000	3.452200	-10.297000	25.975066	0.000242	20.745675
1622.458859	-3.004400	3.450400	-10.365000	25.926552	0.000242	20.757628
1623.459760	-3.024600	3.449200	-10.432000	25.925436	0.000242	20.724263
1624.457853	-3.018700	3.449200	-10.411000	25.936866	0.000243	20.740015
1625.457241	-2.993300	3.450000	-10.327000	25.932142	0.000242	20.730526
1626.455668	-3.002100	3.450200	-10.357000	25.884698	0.000243	20.715105
1627.458921	-3.039400	3.446900	-10.475000	25.870120	0.000241	20.744559
1628.460522	-2.992100	3.449000	-10.319000	25.869722	0.000240	20.734675
1629.463545	-3.001300	3.447900	-10.347000	25.880750	0.000242	20.741487
1630.460066	-3.011100	3.448000	-10.381000	25.911409	0.000241	20.730086
1631.462029	-2.989600	3.448800	-10.310000	25.905495	0.000241	20.736947
1632.462902	-2.975100	3.449200	-10.260000	25.885499	0.000241	20.731558
1633.459066	-2.984600	3.448400	-10.291000	25.898247	0.000242	20.737727
1634.457575	-3.004000	3.447500	-10.354000	25.903715	0.000239	20.704337
1635.460658	-3.035200	3.445800	-10.458000	25.901900	0.000239	20.737130
1636.459120	-2.999400	3.445500	-10.333000	25.906571	0.000238	20.732813
1637.456714	-2.997000	3.446700	-10.329000	25.854254	0.000238	20.732887
1638.463738	-3.000200	3.445500	-10.336000	25.918267	0.000237	20.747409
1639.459457	-3.048800	3.443700	-10.499000	25.926714	0.000237	20.747833
1640.461141	-3.005400	3.445400	-10.354000	25.919088	0.000237	20.743017
1641.459445	-3.020300	3.442900	-10.398000	25.944132	0.000238	20.735934
1642.458117	-2.999900	3.444200	-10.331000	25.943783	0.000236	20.723729
1643.460463	-3.014000	3.443200	-10.377000	25.916586	0.000236	20.741451
1644.457875	-2.985800	3.443100	-10.279000	25.888567	0.000237	20.747917
1645.456640	-2.994100	3.444000	-10.311000	25.878999	0.000236	20.744944
1646.456220	-2.999600	3.442300	-10.325000	25.880243	0.000234	20.734339
1647.461349	-2.992800	3.443100	-10.303000	25.896497	0.000236	20.744978
1648.460550	-3.006800	3.442300	-10.349000	25.931197	0.000235	20.731000
1649.456829	-2.991400	3.442100	-10.296000	25.944958	0.000235	20.737712
1650.457743	-3.017800	3.441800	-10.385000	25.911128	0.000235	20.747823
1651.461194	-2.999700	3.441500	-10.323000	25.881324	0.000233	20.755815
1652.461084	-3.005300	3.440100	-10.337000	25.918537	0.000233	20.759060
1653.459257	-3.003300	3.440600	-10.332000	25.943650	0.000231	20.740666
1654.467387	-3.020200	3.440900	-10.391000	25.963104	0.000233	20.732708
1655.465639	-2.991300	3.438900	-10.286000	25.915710	0.000231	20.747210
1656.465193	-2.967800	3.441500	-10.213000	25.888384	0.000233	20.756269
1657.462153	-3.009300	3.438300	-10.346000	25.860590	0.000231	20.734037
1658.457359	-3.004000	3.439500	-10.331000	25.833661	0.000232	20.740176
1659.457472	-3.006700	3.438300	-10.337000	25.834713	0.000229	20.726059
1660.457893	-3.006500	3.438300	-10.336000	25.924264	0.000232	20.764339
1661.458593	-3.007300	3.438200	-10.339000	25.901245	0.000230	20.745007
1662.461549	-3.002100	3.437500	-10.319000	25.962179	0.000231	20.741263
1663.459020	-2.992500	3.436800	-10.284000	25.948098	0.000233	20.729487
1664.458441	-2.983300	3.437200	-10.253000	25.957616	0.000231	20.764181
1665.469465	-3.016800	3.437900	-10.370000	25.949170	0.000229	20.758066
1666.460084	-2.993500	3.437100	-10.287000	25.972227	0.000230	20.762738
1667.461599	-3.003400	3.436100	-10.319000	25.940960	0.000227	20.757404
1668.463631	-3.008900	3.435800	-10.337000	25.880669	0.000228	20.741880
1669.462437	-2.993700	3.436200	-10.286000	25.875305	0.000229	20.752139
1670.463007	-3.019600	3.434700	-10.370000	25.881372	0.000230	20.738318
1671.472023	-3.001100	3.435300	-10.309000	25.869223	0.000227	20.739390
1672.462287	-3.011700	3.433800	-10.341000	25.890817	0.000228	20.744487
1673.468105	-3.044700	3.433100	-10.451000	25.905325	0.000227	20.753373
1674.473097	-2.994700	3.434600	-10.285000	25.888412	0.000226	20.734011
1675.467413	-3.012800	3.432700	-10.341000	25.858298	0.000228	20.767297
1676.462013	-3.018100	3.432400	-10.358000	25.831743	0.000226	20.769070
1677.467333	-2.993900	3.433800	-10.280000	25.814430	0.000227	20.764007
1678.467626	-2.986700	3.432200	-10.250000	25.808943	0.000225	20.753279
1679.470015	-2.993000	3.434200	-10.278000	25.868864	0.000227	20.750884
1680.470785	-3.003800	3.431700	-10.308000	25.929455	0.000226	20.779511
1681.467105	-3.004900	3.432800	-10.315000	25.988873	0.000223	20.765711
1682.471149	-3.003600	3.431600	-10.306000	25.987983	0.000226	20.752963
1683.468059	-2.982100	3.431000	-10.231000	25.949253	0.000224	20.751511
1684.473038	-2.988000	3.430600	-10.250000	25.963608	0.000225	20.775417
1685.471790	-2.983700	3.432400	-10.241000	25.936112	0.000223	20.767707
1686.471727	-2.978000	3.431000	-10.217000	25.960683	0.000223	20.775323
1687.471125	-2.997400	3.429800	-10.280000	25.986468	0.000225	20.760925
1688.472926	-2.993500	3.430700	-10.269000	26.014785	0.000223	20.755235
1689.473791	-3.033000	3.428200	-10.396000	25.993154	0.000222	20.764323
1690.470262	-3.009800	3.428900	-10.318000	26.040249	0.000222	20.781768
1691.473506	-2.991200	3.428700	-10.255000	26.003385	0.000222	20.768437
1692.471246	-3.022900	3.428600	-10.364000	26.014564	0.000222	20.769712
1693.471452	-3.001400	3.427600	-10.287000	25.990917	0.000224	20.755912
1694.474700	-3.001600	3.427900	-10.288000	25.984733	0.000222	20.774829
1695.473518	-2.998200	3.427600	-10.276000	25.995966	0.000221	20.757191
1696.475249	-3.012900	3.426600	-10.323000	25.936475	0.000222	20.777081
1697.476912	-3.009700	3.426200	-10.311000	25.886141	0.000218	20.777249
1698.476944	-3.006900	3.427400	-10.305000	25.872207	0.000221	20.764674
1699.473390	-3.001400	3.425400	-10.279000	25.866297	0.000220	20.779600
1700.484326	-2.996100	3.426700	-10.266000	25.897920	0.000220	20.773436
1701.471856	-2.990100	3.425700	-10.242000	25.928176	0.000218	20.787710
1702.478727	-3.005000	3.424800	-10.290000	25.922567	0.000218	20.759315
1703.476825	-2.992900	3.425000	-10.250000	25.961071	0.000220	20.783773
1704.477551	-2.986800	3.424900	-10.229000	26.008935	0.000218	20.774962
1705.478817	-2.993000	3.425400	-10.251000	26.039310	0.000217	20.785566
1706.478550	-3.011400	3.423100	-10.308000	25.976297	0.000219	20.791483
1707.478457	-3.001700	3.423200	-10.274000	25.927213	0.000215	20.778681
1708.482510	-2.988000	3.424700	-10.232000	25.899194	0.000218	20.778034
1709.477193	-2.982700	3.422900	-10.207000	25.865230	0.000214	20.785166
1710.481493	-2.992500	3.423900	-10.245000	25.833507	0.000217	20.776533
1711.477094	-3.017200	3.421300	-10.322000	25.905271	0.000215	20.768966
1712.480703	-3.031200	3.421700	-10.370000	25.925713	0.000215	20.794719
1713.486946	-2.997100	3.421900	-10.255000	25.972320	0.000217	20.789384
1714.479073	-3.001700	3.420400	-10.265000	25.962359	0.000214	20.795973
1715.481781	-2.980300	3.420600	-10.193000	25.976641	0.000215	20.766699
1716.481432	-3.006700	3.419200	-10.280000	25.975525	0.000213	20.767000
1717.485861	-3.000700	3.420400	-10.262000	25.948073	0.000214	20.797267
1718.482458	-3.016500	3.419100	-10.313000	25.923555	0.000214	20.793025
1719.483113	-3.030100	3.419400	-10.359000	25.894415	0.000213	20.788406
1720.484504	-2.995800	3.418900	-10.241000	25.933938	0.000213	20.784016
1721.483925	-3.003300	3.419100	-10.268000	25.902340	0.000213	20.782144
1722.484834	-2.986400	3.420200	-10.213000	25.921392	0.000211	20.781368
1723.484203	-3.000800	3.418000	-10.256000	25.902311	0.000213	20.799184
1724.498626	-3.019800	3.418100	-10.320000	25.925713	0.000213	20.794245
1725.497355	-3.005300	3.417300	-10.269000	25.975535	0.000212	20.809210
1726.483199	-3.015200	3.417800	-10.304000	25.955639	0.000211	20.802024
1727.485765	-2.965900	3.418700	-10.139000	25.956352	0.000211	20.799895
1728.486346	-2.981800	3.417700	-10.190000	25.961765	0.000210	20.784470
1729.486946	-2.979500	3.417400	-10.181000	25.956696	0.000209	20.792180
1730.492524	-2.988000	3.415900	-10.205000	26.014525	0.000210	20.796700
1731.483263	-2.992000	3.415400	-10.218000	25.968249	0.000208	20.801891
1732.487066	-2.986800	3.416200	-10.202000	25.958235	0.000210	20.817908
1733.486700	-3.016200	3.415200	-10.300000	25.946259	0.000210	20.797816
1734.494697	-2.995400	3.414900	-10.228000	25.994369	0.000209	20.810114
1735.485243	-3.020700	3.414200	-10.313000	26.024150	0.000210	20.805422
1736.484812	-2.989500	3.414100	-10.205000	26.093173	0.000209	20.805072
1737.482151	-2.999300	3.413000	-10.235000	26.124539	0.000208	20.819518
1738.487430	-2.984600	3.413900	-10.188000	26.128437	0.000210	20.804469
1739.485355	-2.996100	3.413700	-10.226000	26.138740	0.000205	20.816718
1740.488030	-3.005600	3.412600	-10.256000	26.057278	0.000207	20.812628
1741.495363	-3.004000	3.411900	-10.248000	26.063064	0.000205	20.824131
1742.493378	-3.015100	3.411800	-10.285000	25.992275	0.000205	20.825554
1743.489195	-3.002500	3.411900	-10.243000	26.003572	0.000207	20.813197
1744.487998	-2.995800	3.410900	-10.217000	26.005013	0.000207	20.809902
1745.493462	-3.015200	3.409700	-10.280000	26.042394	0.000205	20.817587
1746.491566	-2.986300	3.411700	-10.187000	25.963285	0.000206	20.830093
1747.493413	-3.031500	3.409700	-10.335000	26.017062	0.000205	20.816792
1748.491774	-3.021700	3.409100	-10.301000	26.038323	0.000205	20.822032
1749.491846	-3.002200	3.410000	-10.237000	26.070138	0.000205	20.807532
1750.492506	-2.988100	3.410300	-10.189000	26.043858	0.000202	20.837077
1751.493434	-3.014900	3.407800	-10.273000	26.029106	0.000203	20.821781
1752.493951	-2.999600	3.410300	-10.228000	26.001016	0.000203	20.817740
1753.491098	-2.998700	3.408200	-10.220000	25.999595	0.000204	20.833382
1754.494080	-3.006000	3.407400	-10.242000	25.995053	0.000203	20.844465
1755.491599	-3.018800	3.408500	-10.288000	25.952774	0.000201	20.825223
1756.492474	-3.004300	3.408200	-10.238000	25.930690	0.000202	20.818684
1757.494576	-2.997400	3.407300	-10.212000	25.973422	0.000203	20.852604
1758.493767	-2.999800	3.406400	-10.218000	26.033353	0.000202	20.843117
1759.493200	-3.014400	3.408000	-10.273000	26.084590	0.000204	20.831061
1760.493234	-3.018300	3.406800	-10.281000	26.099549	0.000202	20.826650
1761.496277	-2.989200	3.405500	-10.179000	26.057249	0.000202	20.819237
1762.495839	-3.008600	3.406000	-10.246000	26.047265	0.000199	20.827697
1763.497025	-2.994300	3.407000	-10.200000	26.103919	0.000201	20.827722
1764.496317	-2.995700	3.403900	-10.196000	26.113012	0.000200	20.830695
1765.502392	-3.017200	3.404500	-10.271000	26.137324	0.000198	20.839951
1766.501082	-3.004300	3.404100	-10.225000	26.176765	0.000199	20.823158
1767.503612	-3.000300	3.403700	-10.211000	26.171845	0.000201	20.840499
1768.500938	-2.997900	3.404600	-10.206000	26.121329	0.000198	20.840000
1769.505151	-2.993000	3.404800	-10.189000	26.060405	0.000198	20.837106
1770.504498	-3.016500	3.403300	-10.264000	26.026451	0.000197	20.829545
1771.503553	-3.001600	3.402700	-10.213000	26.035565	0.000199	20.826374
1772.504383	-3.015900	3.402700	-10.262000	26.063610	0.000198	20.832266
1773.499863	-3.008900	3.401700	-10.234000	26.110176	0.000197	20.860561
1774.506186	-2.967400	3.402500	-10.096000	26.124657	0.000196	20.844766
1775.500365	-2.999200	3.402400	-10.203000	26.161041	0.000195	20.836281
1776.503522	-3.017200	3.400800	-10.260000	26.122199	0.000196	20.851305
1777.508735	-3.030300	3.400600	-10.305000	26.100266	0.000197	20.840173
1778.503058	-2.992400	3.400100	-10.174000	26.099200	0.000196	20.840998
1779.503619	-2.984300	3.400500	-10.147000	26.074710	0.000196	20.851952
1780.501653	-2.994000	3.400900	-10.181000	26.003125	0.000195	20.835506
1781.504128	-2.991400	3.401100	-10.173000	25.974542	0.000195	20.848041
1782.505234	-2.991900	3.398800	-10.168000	25.964401	0.000194	20.854921
1783.506417	-2.986300	3.399700	-10.151000	25.918418	0.000194	20.863727
1784.502954	-3.023400	3.397400	-10.271000	25.934691	0.000195	20.848782
1785.507317	-3.005500	3.399100	-10.215000	25.963103	0.000195	20.865470
1786.509567	-3.031000	3.397600	-10.297000	25.999870	0.000192	20.857366
1787.510234	-2.982000	3.398900	-10.134000	26.060076	0.000194	20.837250
1788.512639	-3.006200	3.396600	-10.210000	26.074282	0.000191	20.854842
1789.506500	-2.974000	3.397700	-10.102000	26.128604	0.000193	20.850155
1790.513393	-2.976400	3.397900	-10.112000	26.123709	0.000192	20.850925
1791.506338	-3.003800	3.396600	-10.201000	26.134542	0.000193	20.849957
1792.510999	-3.011900	3.395800	-10.227000	26.109675	0.000193	20.857687
1793.509705	-2.997400	3.397200	-10.182000	26.054344	0.000191	20.867999
1794.511749	-3.019500	3.394600	-10.248000	26.046670	0.000192	20.854126
1795.509890	-2.988500	3.395400	-10.146000	26.022749	0.000190	20.871816
1796.509250	-2.983000	3.395900	-10.129000	26.068801	0.000190	20.873041
1797.507641	-3.004700	3.393900	-10.197000	26.085662	0.000188	20.861534
1798.524777	-3.013600	3.393100	-10.224000	26.141271	0.000189	20.870468
1799.509510	-2.993500	3.393600	-10.158000	26.096398	0.000188	20.869475
1800.513724	-3.002500	3.393500	-10.188000	26.065031	0.000188	20.856452
1801.510922	-2.974900	3.394300	-10.096000	26.091954	0.000189	20.875915
1802.512577	-3.022100	3.392900	-10.252000	26.133505	0.000189	20.841803
1803.510472	-3.022000	3.392700	-10.252000	26.158239	0.000187	20.842001
1804.507566	-3.008900	3.392800	-10.207000	26.139148	0.000187	20.862171
1805.513420	-2.995100	3.393300	-10.162000	26.123477	0.000188	20.857805
1806.514775	-2.993600	3.390900	-10.150000	26.128693	0.000186	20.863045
1807.513843	-3.011700	3.391200	-10.213000	26.077477	0.000185	20.864215
1808.514044	-3.001300	3.392600	-10.181000	26.060867	0.000188	20.864596
1809.515821	-2.999700	3.391500	-10.173000	26.089053	0.000185	20.876794
1810.511295	-3.014200	3.390500	-10.220000	26.108028	0.000185	20.878790
1811.513783	-3.000700	3.389400	-10.169000	26.130260	0.000184	20.878370
1812.517026	-2.996900	3.388800	-10.154000	26.129272	0.000184	20.866946
1813.515447	-2.980400	3.390300	-10.104000	26.175039	0.000185	20.880217
1814.512172	-2.988700	3.388900	-10.126000	26.159915	0.000183	20.885407
1815.512922	-3.006500	3.389800	-10.190000	26.181080	0.000186	20.858313
1816.518230	-3.016000	3.388100	-10.218000	26.179212	0.000183	20.881565
1817.517382	-2.989100	3.389200	-10.130000	26.174174	0.000183	20.901157
1818.521558	-2.982900	3.388000	-10.105000	26.145518	0.000184	20.868097
1819.521100	-3.010200	3.387200	-10.196000	26.162628	0.000182	20.874858
1820.516232	-3.022300	3.387000	-10.236000	26.135662	0.000182	20.887116
1821.519834	-3.008900	3.387400	-10.191000	26.204801	0.000182	20.871243
1822.518853	-2.998300	3.386300	-10.152000	26.179571	0.000181	20.864383
1823.517148	-3.026900	3.385500	-10.246000	26.170163	0.000181	20.876266
1824.516933	-3.013500	3.386000	-10.203000	26.145228	0.000182	20.887244
1825.519826	-3.008900	3.385800	-10.187000	26.155806	0.000181	20.877485
1826.520539	-2.961000	3.386200	-10.025000	26.163434	0.000180	20.879461
1827.521624	-3.003600	3.385500	-10.168000	26.181689	0.000180	20.881683
1828.520286	-2.987000	3.384800	-10.110000	26.152060	0.000180	20.908807
1829.520720	-2.987500	3.385300	-10.113000	26.147218	0.000182	20.892089
1830.519013	-2.998500	3.385300	-10.150000	26.166024	0.000180	20.898183
1831.518664	-3.019400	3.383000	-10.214000	26.142180	0.000178	20.880863
1832.521958	-3.022700	3.383100	-10.225000	26.176302	0.000181	20.883382
1833.518025	-3.001800	3.383200	-10.155000	26.166717	0.000178	20.885130
1834.520749	-2.999900	3.383500	-10.149000	26.140961	0.000181	20.873001
1835.516587	-3.010000	3.381900	-10.178000	26.137137	0.000178	20.891442
1836.521060	-2.992400	3.382900	-10.122000	26.217304	0.000179	20.916047
1837.519264	-2.980700	3.383800	-10.085000	26.203272	0.000178	20.874448
1838.518846	-2.985400	3.382600	-10.098000	26.205931	0.000177	20.868112
1839.518116	-2.994800	3.381200	-10.125000	26.160657	0.000177	20.870507
1840.518455	-3.003100	3.381900	-10.156000	26.158691	0.000178	20.885600
1841.521198	-2.997300	3.382000	-10.136000	26.187352	0.000175	20.884528
1842.527246	-3.020900	3.378600	-10.205000	26.183729	0.000177	20.866664
1843.520258	-3.001100	3.380700	-10.145000	26.173618	0.000177	20.880212
1844.517723	-3.007700	3.381100	-10.169000	26.172503	0.000174	20.888099
1845.522550	-2.981300	3.380000	-10.076000	26.192744	0.000175	20.881886
1846.523578	-2.977700	3.379900	-10.064000	26.234910	0.000176	20.879688
1847.521505	-2.984400	3.379100	-10.084000	26.240572	0.000174	20.870206
1848.524789	-3.009800	3.377800	-10.166000	26.218047	0.000172	20.879812
1849.527663	-2.994900	3.378300	-10.117000	26.187701	0.000170	20.864966
1850.523314	-3.003200	3.377900	-10.144000	26.158071	0.000173	20.862220
1851.526836	-3.008000	3.377700	-10.160000	26.179104	0.000173	20.876715
1852.527259	-3.009900	3.375900	-10.160000	26.211785	0.000174	20.867830
1853.519595	-3.023300	3.376800	-10.208000	26.260482	0.000174	20.846119
1854.524690	-3.005400	3.376700	-10.147000	26.216582	0.000172	20.858901
1855.521585	-2.967800	3.377900	-10.024000	26.217919	0.000172	20.879209
1856.527505	-3.004100	3.376200	-10.142000	26.205774	0.000172	20.852307
1857.526508	-3.014000	3.375500	-10.172000	26.215034	0.000172	20.851181
1858.526117	-3.006700	3.376700	-10.151000	26.207357	0.000171	20.869544
1859.525932	-3.014600	3.375300	-10.174000	26.168866	0.000170	20.869272
1860.525986	-3.014200	3.375300	-10.173000	26.159851	0.000171	20.877283
1861.526973	-3.002700	3.375200	-10.134000	26.170625	0.000171	20.850179
1862.524685	-3.019900	3.373500	-10.187000	26.213122	0.000167	20.860639
1863.527261	-2.996600	3.374000	-10.109000	26.274283	0.000167	20.880375
1864.524037	-3.013800	3.373500	-10.166000	26.301649	0.000167	20.843393
1865.530177	-2.977900	3.373400	-10.045000	26.279449	0.000168	20.872290
1866.523905	-3.006100	3.372700	-10.137000	26.261441	0.000168	20.874582
1867.528478	-3.012700	3.372700	-10.161000	26.231023	0.000166	20.875308
1868.529933	-3.020400	3.371700	-10.183000	26.207755	0.000165	20.858091
1869.530769	-2.991600	3.371900	-10.086000	26.227995	0.000168	20.843343
1870.526691	-2.985200	3.371900	-10.065000	26.207066	0.000166	20.834641
1871.528160	-2.989300	3.371900	-10.079000	26.261475	0.000165	20.839531
1872.528010	-2.993700	3.372100	-10.093000	26.267933	0.000168	20.843175
1873.526149	-2.992700	3.371600	-10.089000	26.285740	0.000166	20.860121
1874.531852	-3.016300	3.370200	-10.165000	26.312756	0.000164	20.858348
1875.531757	-3.000400	3.369600	-10.109000	26.345388	0.000165	20.848944
1876.529975	-3.020200	3.369600	-10.176000	26.290138	0.000165	20.838464
1877.525506	-3.009400	3.369300	-10.139000	26.275713	0.000164	20.833925
1878.530615	-3.013400	3.369200	-10.151000	26.253906	0.000163	20.839985
1879.529086	-2.983800	3.368800	-10.051000	26.239235	0.000164	20.849423
1880.526594	-2.999700	3.368700	-10.104000	26.195756	0.000163	20.846035
1881.529305	-2.972800	3.368800	-10.014000	26.208870	0.000163	20.850203
1882.527328	-2.996400	3.369100	-10.094000	26.220843	0.000161	20.880725
1883.528428	-2.989500	3.367900	-10.067000	26.255936	0.000162	20.822110
1884.530971	-2.999800	3.368300	-10.104000	26.259386	0.000162	20.837431
1885.530972	-2.995100	3.369300	-10.090000	26.251198	0.000160	20.851961
1886.528164	-3.000500	3.366500	-10.100000	26.276755	0.000162	20.847299
1887.528687	-2.991700	3.366800	-10.072000	26.253881	0.000161	20.853710
1888.533081	-3.012700	3.366600	-10.141000	26.220214	0.000159	20.831731
1889.526385	-2.995500	3.366000	-10.081000	26.169204	0.000159	20.840691
1890.527779	-3.005500	3.364800	-10.112000	26.225163	0.000159	20.829593
1891.528825	-3.007600	3.364900	-10.119000	26.231749	0.000159	20.829099
1892.525926	-2.996200	3.365200	-10.081000	26.259587	0.000161	20.841426
1893.534978	-2.994200	3.365100	-10.075000	26.244341	0.000159	20.836063
1894.534054	-3.029300	3.364600	-10.190000	26.220179	0.000159	20.834067
1895.530665	-3.002800	3.365000	-10.103000	26.216537	0.000160	20.815709
1896.529562	-3.011500	3.363700	-10.129000	26.267623	0.000158	20.839545
1897.532745	-2.993300	3.363900	-10.069000	26.289302	0.000157	20.835727
1898.527733	-2.985500	3.362500	-10.037000	26.320451	0.000157	20.831943
1899.534937	-2.977100	3.363600	-10.013000	26.325813	0.000158	20.807935
1900.528426	-3.008300	3.363000	-10.116000	26.333887	0.000157	20.835964
1901.537788	-2.995100	3.362900	-10.070000	26.354106	0.000155	20.816455
1902.532790	-3.021800	3.360100	-10.152000	26.314627	0.000157	20.818030
1903.534152	-2.994200	3.361000	-10.062000	26.277610	0.000155	20.812597
1904.537704	-2.995600	3.361800	-10.069000	26.242695	0.000156	20.841520
1905.540643	-3.005900	3.360600	-10.101000	26.271609	0.000155	20.803248
1906.530103	-2.990900	3.359600	-10.048000	26.255572	0.000154	20.809891
1907.536897	-3.012000	3.359400	-10.117000	26.253217	0.000154	20.808947
1908.535493	-3.009100	3.359300	-10.108000	26.271545	0.000154	20.827365
1909.531575	-3.008800	3.359800	-10.108000	26.290074	0.000153	20.831761
1910.540502	-2.996000	3.358800	-10.062000	26.300291	0.000154	20.815477
1911.536793	-2.987200	3.360700	-10.038000	26.324255	0.000152	20.808740
1912.538496	-3.007100	3.359500	-10.102000	26.350951	0.000150	20.825138
1913.533085	-3.006100	3.357900	-10.093000	26.331514	0.000152	20.786164
1914.535386	-2.980800	3.359200	-10.012000	26.322584	0.000151	20.797578
1915.537138	-3.013300	3.357700	-10.117000	26.345678	0.000151	20.811778
1916.540601	-3.014600	3.357200	-10.120000	26.324929	0.000150	20.794718
1917.536920	-3.003900	3.356600	-10.082000	26.307501	0.000150	20.814188
1918.537075	-2.984900	3.357400	-10.021000	26.291711	0.000149	20.822975
1919.537605	-2.992300	3.358300	-10.049000	26.284859	0.000148	20.817986
1920.539038	-3.024900	3.355800	-10.149000	26.298056	0.000150	20.808489
1921.537786	-3.005400	3.355200	-10.083000	26.249586	0.000149	20.803876
1922.539650	-3.012700	3.354900	-10.107000	26.277625	0.000149	20.815932
1923.539497	-2.988600	3.354300	-10.023000	26.319076	0.000147	20.832932
1924.542666	-2.985400	3.353600	-10.011000	26.315503	0.000150	20.808953
1925.537770	-3.004300	3.354300	-10.075000	26.316029	0.000148	20.800947
1926.541199	-3.001500	3.354500	-10.068000	26.384915	0.000148	20.778193
1927.538557	-3.000000	3.353100	-10.057000	26.448381	0.000145	20.799308
1928.538918	-3.030200	3.352300	-10.157000	26.396856	0.000146	20.787824
1929.539030	-3.025000	3.353000	-10.141000	26.366378	0.000147	20.806978
1930.538841	-2.996000	3.353500	-10.046000	26.316019	0.000145	20.814214
1931.537591	-3.016500	3.352100	-10.111000	26.322330	0.000144	20.797796
1932.539833	-2.984900	3.351600	-10.004000	26.312943	0.000146	20.799268
1933.536885	-2.983300	3.352600	-10.001000	26.255357	0.000144	20.789286
1934.539026	-2.998000	3.350700	-10.044000	26.250496	0.000146	20.801471
1935.539594	-2.989500	3.351100	-10.017000	26.286305	0.000146	20.781981
1936.541719	-3.009800	3.350300	-10.083000	26.274564	0.000145	20.786777
1937.541512	-2.997600	3.351400	-10.046000	26.357031	0.000144	20.779092
1938.537923	-2.998000	3.350700	-10.045000	26.364089	0.000146	20.782866
1939.541123	-3.008100	3.349800	-10.076000	26.418986	0.000145	20.802953
1940.541839	-2.994100	3.349700	-10.028000	26.434804	0.000145	20.777601
1941.541399	-3.008400	3.351000	-10.080000	26.489030	0.000143	20.785637
1942.541684	-3.010100	3.348300	-10.077000	26.436244	0.000142	20.781893
1943.539536	-2.975500	3.350300	-9.968100	26.437517	0.000142	20.798345
1944.544469	-2.989000	3.349100	-10.009000	26.396499	0.000141	20.787939
1945.546477	-3.000600	3.348800	-10.048000	26.361686	0.000142	20.801788
1946.542061	-2.996100	3.348100	-10.030000	26.310806	0.000140	20.787163
1947.542585	-3.003700	3.347400	-10.054000	26.268048	0.000139	20.785444
1948.539430	-3.020000	3.346800	-10.106000	26.253868	0.000139	20.783523
1949.543214	-3.033500	3.346200	-10.149000	26.273837	0.000138	20.793633
1950.543496	-2.997200	3.346700	-10.030000	26.299861	0.000139	20.777586
1951.544920	-2.995900	3.346500	-10.025000	26.328469	0.000140	20.791164
1952.544737	-3.004800	3.346000	-10.053000	26.399138	0.000140	20.786324
1953.543777	-3.005000	3.345900	-10.054000	26.392730	0.000137	20.759494
1954.542064	-2.994500	3.345300	-10.017000	26.394759	0.000139	20.771491
1955.546027	-3.011300	3.345700	-10.074000	26.406013	0.000138	20.757197
1956.541897	-2.999700	3.345300	-10.034000	26.450957	0.000140	20.792888
1957.545515	-3.010000	3.345200	-10.069000	26.497659	0.000139	20.775818
1958.546455	-2.989800	3.343900	-9.996400	26.441768	0.000136	20.776065
1959.544490	-3.005900	3.343300	-10.048000	26.382306	0.000138	20.782209
1960.546939	-2.997000	3.344200	-10.022000	26.377417	0.000138	20.772553
1961.544065	-2.981300	3.343000	-9.966200	26.348437	0.000139	20.781834
1962.549740	-3.000200	3.342900	-10.028000	26.315888	0.000136	20.751492
1963.549622	-2.976000	3.343900	-9.950600	26.312462	0.000136	20.777922
1964.549601	-2.999900	3.342800	-10.027000	26.283805	0.000136	20.749596
1965.546790	-3.011200	3.341300	-10.060000	26.286616	0.000137	20.782294
1966.546776	-3.018100	3.340700	-10.082000	26.358079	0.000135	20.765446
1967.546443	-2.997400	3.340700	-10.013000	26.333767	0.000136	20.783686
1968.549286	-2.990400	3.342400	-9.994800	26.367122	0.000135	20.778328
1969.547024	-2.995600	3.340800	-10.007000	26.440967	0.000134	20.778580
1970.549392	-3.000100	3.340500	-10.021000	26.491959	0.000134	20.763925
1971.549905	-3.015200	3.339900	-10.070000	26.492780	0.000134	20.758585
1972.550026	-3.020200	3.339200	-10.084000	26.516916	0.000132	20.756768
1973.551189	-2.976500	3.339300	-9.938400	26.468825	0.000132	20.770069
1974.549078	-2.976100	3.340500	-9.940300	26.492976	0.000131	20.781069
1975.544914	-2.979100	3.339300	-9.947300	26.456333	0.000131	20.769368
1976.551729	-3.007500	3.337700	-10.037000	26.474485	0.000131	20.771018
1977.554951	-3.030600	3.337600	-10.114000	26.506066	0.000133	20.772890
1978.546808	-3.009200	3.337500	-10.042000	26.516695	0.000131	20.768874
1979.547682	-2.985600	3.338500	-9.966700	26.479085	0.000132	20.754778
1980.545915	-3.003500	3.338000	-10.024000	26.470147	0.000130	20.751483
1981.547705	-2.977700	3.338000	-9.938900	26.540231	0.000130	20.722356
1982.549650	-3.002000	3.336500	-10.014000	26.563571	0.000130	20.766207
1983.548890	-3.009100	3.335700	-10.036000	26.611731	0.000129	20.767679
1984.550847	-3.002000	3.336400	-10.015000	26.624894	0.000128	20.759574
1985.550714	-2.989200	3.336200	-9.971100	26.614689	0.000131	20.764014
1986.551476	-2.991400	3.336100	-9.978700	26.558515	0.000129	20.769660
1987.553887	-3.003500	3.334100	-10.013000	26.517231	0.000128	20.749024
1988.555254	-3.021700	3.333900	-10.073000	26.475616	0.000128	20.761722
1989.555641	-2.989500	3.334900	-9.968800	26.435071	0.000125	20.732348
1990.552082	-2.991600	3.335200	-9.976400	26.455882	0.000127	20.762276
1991.553071	-3.017700	3.332500	-10.056000	26.443813	0.000126	20.770060
1992.553345	-3.012400	3.333600	-10.040000	26.433784	0.000127	20.752866
1993.554536	-3.016200	3.332100	-10.049000	26.488309	0.000125	20.748876
1994.554523	-2.981100	3.332200	-9.932100	26.549533	0.000126	20.750673
1995.555022	-2.999200	3.333100	-9.995300	26.579422	0.000123	20.746579
1996.554746	-3.009100	3.331300	-10.023000	26.590251	0.000124	20.756991
1997.550279	-3.001900	3.330900	-9.998500	26.576376	0.000123	20.750629
1998.554213	-2.983600	3.332200	-9.940800	26.577913	0.000126	20.760236
1999.557866	-2.993400	3.331800	-9.972600	26.600033	0.000123	20.731262
2000.555267	-2.992200	3.330600	-9.964800	26.666489	0.000123	20.736429
2001.555882	-2.996900	3.329900	-9.978200	26.691903	0.000123	20.760083
2002.554994	-2.987000	3.330300	-9.946400	26.696507	0.000123	20.752383
2003.553406	-3.007600	3.328900	-10.011000	26.717406	0.000122	20.749212
2004.563148	-2.971400	3.330200	-9.894500	26.696532	0.000122	20.753830
2005.562543	-2.996100	3.329400	-9.973900	26.691496	0.000119	20.759199
2006.557555	-2.999000	3.329900	-9.985100	26.655852	0.000120	20.731900
2007.565793	-2.998500	3.328400	-9.979000	26.688047	0.000121	20.731075
2008.558224	-3.008900	3.327500	-10.011000	26.649451	0.000121	20.733525
2009.558534	-3.003100	3.328000	-9.993400	26.653971	0.000118	20.758459
2010.560336	-3.016300	3.327100	-10.035000	26.664421	0.000119	20.742885
2011.558160	-2.986000	3.327400	-9.935100	26.607502	0.000120	20.745409
2012.555872	-2.997200	3.327500	-9.972600	26.565331	0.000116	20.742372
2013.560870	-2.980600	3.326800	-9.915000	26.525286	0.000117	20.733886
2014.565103	-2.990400	3.326500	-9.946200	26.428409	0.000118	20.731816
2015.557605	-3.022400	3.323700	-10.045000	26.447451	0.000117	20.757120
2016.567923	-3.001700	3.326400	-9.984300	26.501081	0.000117	20.754602
2017.564308	-3.006100	3.325000	-9.993900	26.529640	0.000118	20.750117
2018.559269	-2.998800	3.325200	-9.970500	26.488330	0.000117	20.736094
2019.561309	-3.004300	3.324300	-9.986500	26.491534	0.000117	20.725564
2020.558452	-3.026400	3.323300	-10.057000	26.525473	0.000117	20.744506
2021.564176	-2.992100	3.324700	-9.947200	26.539747	0.000116	20.728982
2022.559581	-2.998400	3.324600	-9.967400	26.521478	0.000114	20.741913
2023.561369	-2.996700	3.322900	-9.956900	26.521955	0.000116	20.747134
2024.560331	-2.981600	3.322700	-9.906100	26.566443	0.000114	20.738273
2025.559721	-3.008600	3.321900	-9.992900	26.567833	0.000114	20.739671
2026.565222	-3.016900	3.321500	-10.020000	26.560095	0.000114	20.719089
2027.562613	-3.038800	3.320300	-10.089000	26.566968	0.000112	20.728844
2028.562865	-3.004700	3.320200	-9.975600	26.529409	0.000112	20.766482
2029.565220	-2.980800	3.321600	-9.900600	26.530279	0.000113	20.752182
2030.561514	-3.004800	3.320200	-9.976000	26.531665	0.000110	20.744092
2031.563924	-2.991800	3.319900	-9.931900	26.512900	0.000114	20.726177
2032.561483	-2.982600	3.320500	-9.902400	26.579867	0.000111	20.719524
2033.563623	-3.018300	3.318900	-10.016000	26.571740	0.000111	20.739805
2034.564888	-3.001600	3.319100	-9.962100	26.526363	0.000109	20.735918
2035.562680	-3.009100	3.319700	-9.988200	26.588622	0.000111	20.727851
2036.566181	-3.005400	3.319000	-9.974100	26.608953	0.000111	20.708459
2037.566150	-3.003200	3.319600	-9.969000	26.669331	0.000110	20.752089
2038.568025	-3.008100	3.319100	-9.983400	26.732161	0.000108	20.725639
2039.562918	-2.970300	3.318300	-9.855300	26.708040	0.000109	20.729838
2040.565631	-2.998500	3.318100	-9.948600	26.724871	0.000107	20.720680
2041.559426	-2.971400	3.319100	-9.861500	26.719015	0.000112	20.727121
2042.563983	-2.997600	3.316800	-9.940300	26.737954	0.000107	20.738101
2043.565667	-3.009000	3.316300	-9.978300	26.744139	0.000108	20.746217
2044.567543	-3.027100	3.316100	-10.038000	26.714678	0.000108	20.731295
2045.565391	-3.005200	3.314900	-9.961100	26.764178	0.000106	20.728431
2046.569432	-2.980000	3.317100	-9.884500	26.753626	0.000106	20.720666
2047.568947	-3.015800	3.315300	-9.997700	26.773261	0.000107	20.724286
2048.563217	-3.012900	3.315600	-9.988600	26.764006	0.000108	20.715929
2049.563720	-3.000000	3.316100	-9.946600	26.694678	0.000105	20.730155
2050.563457	-3.002400	3.314000	-9.949300	26.683369	0.000105	20.740123
2051.566750	-2.983200	3.313700	-9.883600	26.674034	0.000104	20.725996
2052.563148	-3.003000	3.313300	-9.948200	26.629055	0.000104	20.747161
2053.565856	-2.990200	3.313400	-9.907200	26.694620	0.000104	20.722035
2054.570292	-2.986200	3.313900	-9.895000	26.715323	0.000103	20.711554
2055.565913	-2.981900	3.313200	-9.879000	26.712719	0.000103	20.725058
2056.571309	-2.999100	3.312500	-9.933800	26.794577	0.000103	20.723433
2057.570572	-3.008700	3.310300	-9.958000	26.796415	0.000104	20.716271
2058.566908	-2.981800	3.312700	-9.876400	26.837791	0.000103	20.717570
2059.566652	-2.986100	3.311300	-9.886900	26.860058	0.000101	20.725735
2060.571088	-2.991000	3.311500	-9.903900	26.811835	0.000103	20.708541
2061.568548	-3.016900	3.310800	-9.987100	26.810224	0.000101	20.734898
2062.569585	-3.009000	3.310500	-9.960200	26.894953	0.000101	20.732848
2063.572802	-3.001100	3.308800	-9.929900	26.908034	0.000101	20.734147
2064.571014	-2.971700	3.311100	-9.838700	26.945260	0.000100	20.742183
2065.571418	-2.991700	3.309900	-9.901400	26.957029	0.000100	20.735051
2066.570422	-2.986700	3.308400	-9.880300	26.976528	0.000100	20.722890
2067.571865	-3.039000	3.307300	-10.049000	26.985315	9.750565E-5	20.717501
2068.575862	-2.996500	3.307200	-9.909100	26.949155	9.928778E-5	20.724288
2069.572523	-2.973800	3.307700	-9.835500	27.000781	9.813270E-5	20.721675
2070.573033	-2.994500	3.307700	-9.903900	26.985197	9.796768E-5	20.728763
2071.574128	-3.002700	3.305600	-9.924700	26.959711	0.000101	20.711668
2072.572164	-2.992700	3.307200	-9.895800	26.905558	9.701061E-5	20.729287
2073.571529	-3.001200	3.307700	-9.926300	26.910721	9.747265E-5	20.744436
2074.575428	-2.999800	3.306200	-9.917000	26.885557	9.836371E-5	20.739521
2075.569788	-2.989100	3.306200	-9.881700	26.860913	9.473345E-5	20.744140
2076.577950	-2.998700	3.305500	-9.911500	26.806186	9.674659E-5	20.724674
2077.569768	-2.974700	3.306300	-9.833900	26.818227	9.760466E-5	20.745790
2078.571630	-2.988700	3.304900	-9.876500	26.838725	9.697761E-5	20.729416
2079.578151	-3.005200	3.304900	-9.930800	26.779016	9.562451E-5	20.719641
2080.573729	-2.997800	3.303900	-9.902900	26.728810	9.182924E-5	20.726537
2081.576824	-3.005800	3.304400	-9.930200	26.769069	9.460144E-5	20.732874
2082.571713	-3.016500	3.303900	-9.965600	26.811586	9.427141E-5	20.735793
2083.572565	-2.977100	3.304000	-9.835400	26.860310	9.281931E-5	20.742111
2084.579360	-2.988600	3.303400	-9.871400	26.915389	9.450243E-5	20.734430
2085.578442	-2.991000	3.301900	-9.875400	26.956731	9.407340E-5	20.717206
2086.575153	-2.999700	3.302100	-9.904300	26.932119	9.192824E-5	20.730864
2087.573753	-3.014000	3.300600	-9.946200	26.866083	9.285231E-5	20.718990
2088.579185	-3.014600	3.300500	-9.948200	26.909814	9.123519E-5	20.738308
2089.573239	-2.999600	3.300700	-9.899100	26.953667	9.239028E-5	20.733092
2090.574180	-3.017500	3.299000	-9.953300	26.945277	9.070715E-5	20.732243
2091.571548	-2.991300	3.300700	-9.872800	26.881753	9.034413E-5	20.739964
2092.575498	-3.025800	3.299300	-9.982400	26.804912	9.182924E-5	20.730505
2093.571829	-3.004500	3.299400	-9.912300	26.868849	9.067415E-5	20.738368
2094.575948	-2.994700	3.299200	-9.879700	26.841179	9.083916E-5	20.734254
2095.573370	-3.018600	3.298300	-9.955300	26.784442	9.087217E-5	20.722251
2096.576454	-3.004700	3.298700	-9.910800	26.788446	8.895803E-5	20.719165
2097.578934	-2.989000	3.299000	-9.859700	26.808100	8.885902E-5	20.731340
2098.580713	-2.994500	3.297500	-9.873900	26.832353	9.041013E-5	20.726327
2099.578665	-2.969300	3.298100	-9.792300	26.901800	8.991510E-5	20.727404
2100.574820	-2.993400	3.296900	-9.867900	26.916717	8.684587E-5	20.731025
2101.576754	-3.010200	3.297900	-9.925700	26.922051	8.885902E-5	20.737337
2102.571305	-2.994200	3.297500	-9.873100	26.890935	8.932105E-5	20.725962
2103.575872	-2.989800	3.296700	-9.855300	26.922504	8.770393E-5	20.736369
2104.581966	-2.982900	3.296800	-9.832800	26.971076	8.605381E-5	20.743961
2105.581113	-2.995400	3.295400	-9.870600	26.917194	8.677987E-5	20.722495
2106.574924	-3.009500	3.296000	-9.918700	26.902434	8.489873E-5	20.721403
2107.582108	-2.984100	3.295400	-9.832500	26.921124	8.776994E-5	20.739250
2108.577812	-3.002900	3.293600	-9.889800	26.963237	8.483272E-5	20.716637
2109.581126	-2.995600	3.293200	-9.863800	26.993670	8.641684E-5	20.731594
2110.578729	-3.010600	3.293200	-9.913100	26.951675	8.681287E-5	20.742470
2111.577351	-2.973100	3.293700	-9.792000	26.891005	8.334762E-5	20.751164
2112.579358	-3.009200	3.292000	-9.906300	26.943567	8.433769E-5	20.729100
2113.582235	-3.003700	3.292800	-9.889200	26.942103	8.443669E-5	20.739008
2114.582635	-2.987800	3.290800	-9.831300	26.906345	8.519575E-5	20.720120
2115.577654	-2.997400	3.291400	-9.864600	26.925010	8.394166E-5	20.730355
2116.580376	-2.992200	3.290700	-9.845400	26.948091	8.357863E-5	20.753565
2117.582572	-2.978800	3.292400	-9.806400	26.912475	8.308360E-5	20.732449
2118.580055	-3.010000	3.291100	-9.905400	26.909278	8.420568E-5	20.734450
2119.581433	-3.023100	3.290900	-9.948100	26.940694	8.404067E-5	20.722891
2120.585538	-2.988000	3.290000	-9.830300	26.941514	8.149948E-5	20.733200
2121.586751	-2.988100	3.289300	-9.827900	26.932757	8.344662E-5	20.753792
2122.581314	-3.007600	3.288000	-9.888000	26.946406	8.064142E-5	20.740965
2123.584054	-2.990800	3.289000	-9.835800	26.928420	7.882628E-5	20.758440
2124.580441	-2.981400	3.288400	-9.802200	26.922609	8.123546E-5	20.737898
2125.578704	-3.008000	3.288700	-9.890400	26.984275	8.067442E-5	20.747277
2126.585035	-3.027800	3.286600	-9.950400	27.025074	8.169749E-5	20.752745
2127.579993	-3.011400	3.287300	-9.897900	26.933577	7.905730E-5	20.759359
2128.580254	-2.998600	3.287600	-9.856400	26.922530	7.819924E-5	20.767691
2129.580481	-2.983400	3.286900	-9.805200	27.005321	7.938733E-5	20.744259
2130.583868	-3.001500	3.286000	-9.862500	26.945016	7.856227E-5	20.765172
2131.578681	-2.990900	3.286900	-9.829700	26.950724	8.057541E-5	20.758583
2132.583397	-3.027000	3.286300	-9.946700	26.888633	7.819924E-5	20.744037
2133.585204	-2.999800	3.284200	-9.850400	26.883471	7.859527E-5	20.745959
2134.585477	-3.014800	3.284200	-9.900700	26.921224	7.681314E-5	20.754050
2135.584631	-2.966000	3.285900	-9.745400	26.920453	7.810023E-5	20.764180
2136.586462	-2.981300	3.285500	-9.793800	26.902927	7.899130E-5	20.748927
2137.585404	-2.996200	3.284100	-9.837900	26.946093	7.671413E-5	20.744917
2138.586281	-3.019800	3.283500	-9.914100	26.912486	7.605408E-5	20.753797
2139.594158	-2.991800	3.283300	-9.822500	26.911553	7.694515E-5	20.762817
2140.583357	-3.018600	3.282200	-9.907200	26.985479	7.654912E-5	20.754178
2141.589114	-2.980800	3.283400	-9.786300	27.049828	7.536103E-5	20.767208
2142.593631	-3.023000	3.281200	-9.917800	27.036627	7.585607E-5	20.752035
2143.588628	-2.977800	3.283300	-9.776100	27.070230	7.592207E-5	20.735093
2144.591485	-2.983700	3.281900	-9.791500	27.044745	7.526202E-5	20.749294
2145.593400	-2.986000	3.280300	-9.793800	26.969630	7.493200E-5	20.747249
2146.590017	-3.009100	3.280600	-9.870500	26.957346	7.714316E-5	20.765717
2147.597325	-2.998900	3.279300	-9.833100	26.973928	7.433796E-5	20.760581
2148.594970	-2.975900	3.281500	-9.764700	27.017871	7.407394E-5	20.756881
2149.589101	-3.031200	3.278600	-9.937400	27.083043	7.390893E-5	20.736126
2150.590841	-3.026900	3.280200	-9.927400	27.039815	7.509701E-5	20.756190
2151.588761	-3.015400	3.277100	-9.880900	27.053733	7.308386E-5	20.764497
2152.593713	-3.004400	3.279700	-9.852400	27.062024	7.473399E-5	20.765722
2153.591722	-3.011600	3.278000	-9.870500	27.058601	7.235781E-5	20.774134
2154.589500	-2.994700	3.278400	-9.816300	27.033814	7.166476E-5	20.759163
2155.594523	-2.987100	3.278200	-9.791100	27.059475	7.116972E-5	20.767901
2156.592036	-3.032000	3.276700	-9.934400	27.118236	6.955261E-5	20.777686
2157.593706	-3.004400	3.276700	-9.843400	27.147662	6.968462E-5	20.761762
2158.590858	-2.995300	3.276100	-9.812200	27.160268	7.242382E-5	20.756897
2159.600229	-2.982100	3.276100	-9.769000	27.153973	6.951960E-5	20.772377
2160.591405	-2.992400	3.274500	-9.798300	27.192875	6.975062E-5	20.780684
2161.594472	-2.983200	3.276800	-9.773400	27.216873	6.935459E-5	20.762148
2162.591515	-3.007100	3.274800	-9.845800	27.176386	7.189578E-5	20.768367
2163.590275	-2.995200	3.275100	-9.808700	27.143857	6.948660E-5	20.769789
2164.592999	-3.011100	3.272200	-9.852000	27.110036	6.836452E-5	20.758533
2165.596246	-2.993000	3.274400	-9.799500	27.114756	6.826551E-5	20.763280
2166.595743	-3.027600	3.271900	-9.905100	27.093747	6.747345E-5	20.756375
2167.601651	-2.987300	3.272200	-9.774600	27.117197	6.744045E-5	20.769054
2168.595218	-2.998600	3.272500	-9.811800	27.128861	6.678040E-5	20.764664
2169.594963	-3.006600	3.270200	-9.830200	27.084942	6.602135E-5	20.745623
2170.597270	-3.022300	3.270000	-9.882000	27.115837	6.678040E-5	20.768635
2171.592365	-3.001900	3.271200	-9.818900	27.157305	6.612035E-5	20.772883
2172.597535	-2.967500	3.271100	-9.705200	27.200332	6.595534E-5	20.770641
2173.599978	-2.986100	3.270500	-9.764800	27.219984	6.588934E-5	20.782347
2174.596067	-3.008100	3.270300	-9.836400	27.267178	6.509728E-5	20.776712
2175.604010	-3.016200	3.267400	-9.854600	27.299408	6.499827E-5	20.760294
2176.598477	-2.994600	3.269000	-9.788400	27.274352	6.420621E-5	20.767333
2177.596056	-3.007900	3.268400	-9.829400	27.278502	6.460224E-5	20.762473
2178.597673	-2.995800	3.268000	-9.789200	27.306907	6.526229E-5	20.776150
2179.596125	-3.005300	3.267600	-9.818800	27.214447	6.433822E-5	20.759233
2180.595372	-3.001800	3.266500	-9.804600	27.159939	6.414021E-5	20.775582
2181.603836	-3.001300	3.267300	-9.804700	27.083541	6.209406E-5	20.766499
2182.597950	-2.998400	3.267800	-9.796800	27.081911	6.153302E-5	20.763912
2183.594727	-3.004900	3.265000	-9.809800	27.166054	6.219307E-5	20.767933
2184.603936	-2.997500	3.266000	-9.788500	27.222496	6.367818E-5	20.786770
2185.598386	-3.017800	3.266000	-9.855600	27.261284	6.321614E-5	20.776947
2186.598745	-3.006900	3.264600	-9.814700	27.317701	6.192905E-5	20.782963
2187.601241	-2.987900	3.266600	-9.759100	27.331321	6.186304E-5	20.774379
2188.603978	-2.994000	3.264000	-9.771800	27.372604	6.285312E-5	20.789355
2189.600232	-2.991300	3.263600	-9.761200	27.392503	6.163203E-5	20.779501
2190.602332	-2.972200	3.266500	-9.707600	27.327085	6.060895E-5	20.783393
2191.601370	-2.995500	3.264200	-9.777200	27.348473	6.011392E-5	20.781675
2192.604342	-2.984700	3.262500	-9.737200	27.336866	5.994890E-5	20.773792
2193.606234	-3.007700	3.262000	-9.810600	27.308358	6.130200E-5	20.782574
2194.596231	-3.014800	3.261700	-9.833300	27.323000	6.133500E-5	20.774069
2195.597454	-3.010600	3.262600	-9.821800	27.344884	6.305113E-5	20.805092
2196.611449	-3.003000	3.259900	-9.788400	27.344437	6.080697E-5	20.779986
2197.598451	-2.995800	3.260900	-9.768300	27.371427	5.796876E-5	20.782006
2198.599643	-2.997600	3.260000	-9.771300	27.382916	5.968488E-5	20.778391
2199.601692	-3.009400	3.259700	-9.808800	27.345680	6.113699E-5	20.785978
2200.603185	-3.017100	3.259200	-9.831700	27.331588	5.648365E-5	20.771802
2201.604186	-3.019400	3.258800	-9.838200	27.242848	6.070796E-5	20.789223
2202.603613	-2.983000	3.258100	-9.717800	27.171910	5.641764E-5	20.772400
2203.601673	-2.996700	3.257300	-9.759700	27.199528	5.654965E-5	20.785005
2204.604157	-3.021900	3.257500	-9.843400	27.120450	5.777074E-5	20.769955
2205.600614	-2.987600	3.256800	-9.729500	27.154173	5.829878E-5	20.788699
2206.602984	-2.988300	3.257100	-9.732700	27.172460	5.724270E-5	20.780066
2207.600117	-3.019600	3.256300	-9.831800	27.204272	5.466852E-5	20.784087
2208.603710	-3.014500	3.255200	-9.811800	27.186568	5.598861E-5	20.788091
2209.603625	-2.987800	3.256300	-9.727900	27.176428	5.862881E-5	20.769358
2210.608181	-2.990300	3.255300	-9.733300	27.242646	5.539457E-5	20.795184
2211.605214	-2.964900	3.256000	-9.652500	27.248333	5.681367E-5	20.785257
2212.603056	-2.985000	3.254400	-9.713000	27.285395	5.427249E-5	20.804993
2213.607815	-3.012700	3.253400	-9.801400	27.264482	5.585660E-5	20.803872
2214.605189	-3.007100	3.254600	-9.786200	27.283882	5.516355E-5	20.810110
2215.609506	-2.998800	3.252700	-9.753600	27.290163	5.645065E-5	20.800307
2216.605909	-3.000700	3.254800	-9.765700	27.282842	5.440450E-5	20.805270
2217.606444	-2.983200	3.252300	-9.701600	27.316290	5.282038E-5	20.797664
2218.605839	-3.002000	3.250700	-9.757800	27.287138	5.209433E-5	20.806747
2219.603853	-2.988000	3.252000	-9.716000	27.258591	5.423948E-5	20.801266
2220.613435	-2.979600	3.250800	-9.685100	27.265338	5.126927E-5	20.815638
2221.607175	-2.995700	3.251400	-9.740000	27.303666	5.209433E-5	20.809148
2222.611494	-2.992900	3.250000	-9.725400	27.351200	5.374445E-5	20.797220
2223.610408	-2.982700	3.251300	-9.696600	27.399306	5.318341E-5	20.801044
2224.603327	-2.987900	3.250400	-9.710600	27.417466	5.126927E-5	20.814572
2225.605127	-3.000300	3.250200	-9.750800	27.410966	5.064222E-5	20.808981
2226.605047	-3.030200	3.248500	-9.842800	27.363416	5.107125E-5	20.807139
2227.605266	-3.002100	3.248200	-9.750600	27.432461	5.027919E-5	20.813062
2228.605653	-3.006700	3.249600	-9.769900	27.406588	5.216033E-5	20.811215
2229.605321	-2.978800	3.248000	-9.674600	27.371042	5.189631E-5	20.804379
2230.607275	-2.971000	3.248500	-9.650500	27.358689	5.199532E-5	20.806651
2231.608523	-2.999800	3.247800	-9.742400	27.327390	5.324941E-5	20.827796
2232.610227	-3.003300	3.247400	-9.752400	27.315924	4.945413E-5	20.817211
2233.608111	-3.014400	3.247600	-9.788000	27.367558	5.027919E-5	20.804193
2234.614126	-3.002500	3.244300	-9.739900	27.432704	5.192932E-5	20.830849
2235.611734	-3.001900	3.245700	-9.742500	27.457408	5.150028E-5	20.778416
2236.610914	-2.984200	3.244000	-9.679000	27.502510	4.905810E-5	20.818102
2237.610906	-3.017500	3.244500	-9.788700	27.556362	5.136827E-5	20.800213
2238.613901	-3.012900	3.244100	-9.772700	27.590567	5.100525E-5	20.815663
2239.613727	-3.004300	3.243800	-9.743800	27.514027	5.140128E-5	20.811198
2240.611083	-3.025500	3.242000	-9.807600	27.515986	4.836505E-5	20.806057
2241.616036	-3.013800	3.242500	-9.771300	27.443786	4.965215E-5	20.819240
2242.607706	-2.995400	3.243000	-9.712600	27.472266	4.971815E-5	20.823235
2243.611914	-3.005600	3.241300	-9.741500	27.438705	4.625290E-5	20.806542
2244.611750	-3.005700	3.241900	-9.741800	27.391029	4.981716E-5	20.815477
2245.610557	-3.000400	3.240300	-9.721400	27.407329	4.853007E-5	20.818598
2246.611642	-3.028600	3.239800	-9.811100	27.497451	4.899210E-5	20.820125
2247.610465	-2.986400	3.240800	-9.677600	27.527465	4.806803E-5	20.842261
2248.609124	-2.972400	3.241400	-9.634100	27.510922	4.922312E-5	20.815660
2249.620190	-2.987200	3.239100	-9.675100	27.467765	4.836505E-5	20.815863
2250.614724	-3.003400	3.239200	-9.728000	27.446159	4.678094E-5	20.835377
2251.610017	-3.011100	3.237700	-9.748000	27.459214	4.777101E-5	20.819114
2252.614836	-3.002300	3.237900	-9.720500	27.471094	4.724297E-5	20.833911
2253.611090	-3.008600	3.238100	-9.741200	27.460206	4.628590E-5	20.809680
2254.609511	-3.012700	3.237500	-9.752800	27.506245	4.625290E-5	20.825179
2255.613225	-3.004800	3.236600	-9.724300	27.458822	4.480079E-5	20.827254
2256.616479	-2.990800	3.236300	-9.678500	27.459685	4.555985E-5	20.842821
2257.613198	-2.984200	3.237200	-9.660100	27.459018	4.625290E-5	20.817020
2258.615878	-3.014700	3.235900	-9.754500	27.448263	4.546084E-5	20.828958
2259.615680	-2.984400	3.235700	-9.655500	27.484601	4.625290E-5	20.839913
2260.610794	-2.991600	3.234800	-9.675700	27.543761	4.397573E-5	20.812191
2261.615062	-3.018400	3.233800	-9.760300	27.586615	4.496580E-5	20.834445
2262.619485	-2.997200	3.233800	-9.691300	27.483928	4.460278E-5	20.836865
2263.611455	-3.010700	3.233800	-9.735200	27.478818	4.344769E-5	20.827930
2264.613673	-2.987300	3.232300	-9.655800	27.461906	4.513082E-5	20.836994
2265.618293	-3.008300	3.232200	-9.722900	27.421785	4.222660E-5	20.843572
2266.614706	-3.033900	3.231500	-9.803000	27.468645	4.397573E-5	20.845197
2267.615088	-3.018500	3.233700	-9.759200	27.516196	4.582387E-5	20.839932
2268.622721	-2.996400	3.230900	-9.680500	27.547520	4.334869E-5	20.839680
2269.612919	-2.992000	3.231400	-9.667700	27.531840	4.420675E-5	20.831491
2270.616697	-3.001400	3.229600	-9.693100	27.530898	4.103852E-5	20.838129
2271.617244	-2.993400	3.231300	-9.671900	27.530549	4.526283E-5	20.827347
2272.618944	-2.984400	3.230300	-9.639800	27.555177	4.433876E-5	20.850229
2273.616782	-2.970300	3.228700	-9.589600	27.559786	4.275464E-5	20.842538
2274.621160	-3.010500	3.227800	-9.716700	27.629230	4.354670E-5	20.852668
2275.618190	-2.998600	3.228200	-9.679500	27.693589	4.120353E-5	20.840617
2276.615751	-3.022400	3.227800	-9.754900	27.654052	4.344769E-5	20.841609
2277.622353	-2.966400	3.226700	-9.570300	27.639817	4.166556E-5	20.836295
2278.615053	-2.998600	3.226500	-9.672900	27.615240	4.136854E-5	20.832428
2279.616024	-3.023700	3.226300	-9.754700	27.617444	4.239162E-5	20.846498
2280.620398	-3.020800	3.225300	-9.741900	27.660619	4.014745E-5	20.851062
2281.616041	-3.000300	3.227000	-9.681500	27.649530	3.922338E-5	20.868352
2282.620772	-3.003600	3.225100	-9.686400	27.597793	3.922338E-5	20.855649
2283.618020	-2.991800	3.224600	-9.646700	27.554929	4.004844E-5	20.850453
2284.621086	-3.017400	3.223300	-9.724800	27.514921	3.978442E-5	20.847184
2285.615157	-2.994100	3.223800	-9.651400	27.531592	3.988343E-5	20.875809
2286.621361	-3.010200	3.223500	-9.702900	27.584122	3.915738E-5	20.859437
2287.616312	-2.998700	3.224300	-9.668100	27.602844	3.909137E-5	20.859308
2288.622074	-3.008600	3.221900	-9.691900	27.605946	4.110452E-5	20.853895
2289.619576	-2.995200	3.221000	-9.646600	27.634097	3.843133E-5	20.855669
2290.619281	-3.010100	3.219500	-9.690300	27.672480	3.879435E-5	20.872954
2291.625723	-3.013700	3.220100	-9.703800	27.679750	3.938840E-5	20.872208
2292.627153	-2.993000	3.221400	-9.641300	27.642966	3.711123E-5	20.869333
2293.623670	-3.003300	3.220500	-9.671800	27.633964	3.938840E-5	20.879240
2294.623151	-3.004500	3.219400	-9.671000	27.644110	3.618716E-5	20.853890
2295.623044	-2.998100	3.218900	-9.648900	27.641424	3.645118E-5	20.883428
2296.635863	-2.983900	3.218600	-9.602500	27.645940	3.664919E-5	20.876593
2297.624745	-2.999700	3.218200	-9.652800	27.622703	3.605515E-5	20.877867
2298.623648	-3.000800	3.218300	-9.656500	27.582899	3.552711E-5	20.872430
2299.624405	-2.999100	3.219200	-9.654400	27.596535	3.694622E-5	20.887572
2300.624510	-2.988300	3.218200	-9.616300	27.645886	3.674820E-5	20.870849
2301.621619	-3.015700	3.215700	-9.696800	27.654422	3.668220E-5	20.859999
2302.621930	-2.985900	3.215600	-9.599900	27.641154	3.424002E-5	20.887424
2303.623253	-2.977200	3.214600	-9.569500	27.647299	3.526309E-5	20.880331
2304.626790	-2.998700	3.215400	-9.640000	27.560941	3.249089E-5	20.890164
2305.626262	-3.018600	3.213800	-9.700200	27.624485	3.268890E-5	20.853583
2306.627776	-3.007800	3.212600	-9.662100	27.603579	3.496607E-5	20.854833
2307.623543	-2.997100	3.213600	-9.631200	27.597300	3.556011E-5	20.856102
2308.625360	-3.001000	3.214000	-9.644500	27.589308	3.249089E-5	20.869396
2309.623273	-3.019100	3.213000	-9.700000	27.697969	3.113779E-5	20.871101
2310.623756	-3.015800	3.213300	-9.690000	27.731594	3.496607E-5	20.870325
2311.623758	-2.992300	3.211700	-9.609700	27.741647	3.367898E-5	20.866691
2312.623145	-3.003800	3.210900	-9.644900	27.753396	3.216086E-5	20.862868
2313.631243	-3.024200	3.210900	-9.708800	27.739855	3.315094E-5	20.855405
2314.628359	-3.010500	3.209300	-9.660200	27.822454	3.420702E-5	20.852709
2315.630204	-2.991700	3.209300	-9.600000	27.736851	3.255689E-5	20.851434
2316.626373	-2.978300	3.208700	-9.555500	27.660273	3.245789E-5	20.851662
2317.627609	-2.980000	3.209200	-9.562400	27.630483	3.229287E-5	20.862463
2318.627380	-2.987200	3.208700	-9.583900	27.607520	3.371198E-5	20.850264
2319.626647	-3.004700	3.207100	-9.635400	27.640261	3.400900E-5	20.853336
2320.631214	-3.005700	3.209400	-9.645900	27.634852	3.324994E-5	20.855479
2321.630103	-2.987300	3.207900	-9.582700	27.719649	3.087377E-5	20.844081
2322.629200	-3.019500	3.205500	-9.678400	27.724306	2.971869E-5	20.866784
2323.631005	-2.967600	3.206800	-9.515100	27.743177	3.255689E-5	20.861594
2324.631721	-2.989700	3.205700	-9.583600	27.672279	3.080777E-5	20.849993
2325.634058	-2.995700	3.204400	-9.598700	27.684059	3.239188E-5	20.855208
2326.628639	-2.987700	3.203700	-9.570500	27.707741	3.044474E-5	20.860073
2327.630005	-2.984800	3.204400	-9.563700	27.696438	3.321694E-5	20.833053
2328.630496	-3.011900	3.203700	-9.647300	27.754815	2.968568E-5	20.850072
2329.627165	-2.991300	3.203800	-9.582800	27.844853	3.278791E-5	20.852492
2330.630208	-2.990200	3.202700	-9.576400	27.870568	3.107178E-5	20.848502
2331.633729	-2.968700	3.202600	-9.507100	27.895140	3.034573E-5	20.851895
2332.629014	-2.992400	3.202100	-9.581400	27.885914	3.057675E-5	20.844980
2333.632318	-2.999900	3.201100	-9.601800	27.857353	3.093978E-5	20.843262
2334.632796	-2.977300	3.199800	-9.525100	27.867069	2.889362E-5	20.835497
2335.633325	-3.014500	3.198500	-9.641200	27.944384	2.998270E-5	20.853569
2336.630972	-2.994200	3.200300	-9.581300	27.911035	2.958668E-5	20.848452
2337.634183	-2.983000	3.199600	-9.543400	27.875402	2.912464E-5	20.835349
2338.630854	-2.978700	3.198900	-9.527700	27.898633	2.744152E-5	20.847351
2339.633190	-2.999100	3.198500	-9.591100	27.842424	2.724350E-5	20.842935
2340.633379	-2.993400	3.198700	-9.573500	27.783139	3.027973E-5	20.849653
2341.640444	-3.004500	3.198400	-9.608000	27.786584	2.777154E-5	20.832258
2342.631914	-2.984200	3.197800	-9.542600	27.806849	2.836559E-5	20.842694
2343.629360	-3.028800	3.195800	-9.678500	27.833992	2.655045E-5	20.842511
2344.633060	-3.000800	3.195700	-9.588800	27.861416	2.829958E-5	20.830756
2345.630273	-3.003700	3.194900	-9.595200	27.811977	2.724350E-5	20.834579
2346.629732	-3.005400	3.194800	-9.600100	27.751773	2.849760E-5	20.842270
2347.635578	-3.022900	3.192700	-9.650300	27.712390	2.886062E-5	20.825872
2348.632389	-3.002700	3.193300	-9.587800	27.661604	2.688048E-5	20.836407
2349.634806	-3.006400	3.193100	-9.599100	27.665870	2.622043E-5	20.830268
2350.640056	-2.999200	3.192600	-9.574400	27.651208	2.622043E-5	20.823575
2351.638189	-2.970200	3.191400	-9.477600	27.694221	2.592341E-5	20.817546
2352.638246	-3.008800	3.190300	-9.598300	27.721495	2.523036E-5	20.838827
2353.639670	-2.988400	3.190500	-9.533500	27.778934	2.582440E-5	20.829301
2354.638787	-2.994600	3.190300	-9.553100	27.891137	2.506534E-5	20.829375
2355.639973	-2.996500	3.190400	-9.558100	27.873289	2.493333E-5	20.823266
2356.637313	-2.998300	3.189700	-9.562900	27.853802	2.496634E-5	20.830679
2357.638362	-2.987500	3.188200	-9.523700	27.812868	2.427329E-5	20.840217
2358.638124	-3.008600	3.188200	-9.590000	27.786533	2.608842E-5	20.839792
2359.637047	-3.002800	3.186600	-9.568100	27.792786	2.526336E-5	20.826645
2360.641068	-3.020000	3.187600	-9.625400	27.829584	2.424028E-5	20.824798
2361.643568	-2.988600	3.186200	-9.521200	27.831297	2.252416E-5	20.832686
2362.638750	-3.031000	3.184900	-9.652900	27.849450	2.470232E-5	20.827248
2363.641630	-2.993700	3.185400	-9.535400	27.887311	2.394326E-5	20.826946
2364.641127	-3.018300	3.184400	-9.609900	27.897008	2.618743E-5	20.822008
2365.637606	-3.007800	3.183800	-9.575200	27.919272	2.348123E-5	20.827347
2366.641968	-2.995400	3.182400	-9.531700	27.944123	2.499934E-5	20.818220
2367.638308	-3.018400	3.183000	-9.604900	27.942159	2.519735E-5	20.821460
2368.639839	-2.985900	3.181700	-9.499700	27.955154	2.235914E-5	20.814150
2369.643765	-2.997600	3.182000	-9.537000	27.978658	2.391026E-5	20.806514
2370.652031	-3.010600	3.182400	-9.580100	27.923988	2.143508E-5	20.827352
2371.643188	-2.980500	3.181500	-9.480800	27.882061	2.391026E-5	20.809335
2372.642212	-2.991100	3.179600	-9.509300	27.900189	2.011498E-5	20.810985
2373.646517	-2.992900	3.178500	-9.512400	27.859275	2.249115E-5	20.813903
2374.640754	-3.015400	3.178200	-9.582800	27.824712	2.268917E-5	20.793817
2375.646423	-3.040600	3.177500	-9.659500	27.864311	2.037900E-5	20.811859
2376.645630	-3.010100	3.175800	-9.557500	27.923645	2.235914E-5	20.808041
2377.641127	-3.006100	3.177000	-9.549700	27.971230	2.136907E-5	20.809469
2378.643731	-3.008800	3.176100	-9.555700	28.003213	2.047801E-5	20.809894
2379.647351	-3.016900	3.174900	-9.577200	27.988757	2.136907E-5	20.796291
2380.642983	-3.015700	3.174200	-9.570800	28.022183	2.173210E-5	20.821402
2381.643116	-2.990600	3.175300	-9.495700	28.015191	2.193011E-5	20.822899
2382.647158	-3.007900	3.174200	-9.546800	28.038841	2.143508E-5	20.802135
2383.643230	-3.019500	3.172300	-9.578200	28.039808	1.853086E-5	20.810694
2384.645309	-2.987300	3.172700	-9.476500	27.964493	1.968595E-5	20.812646
2385.646885	-2.973500	3.171800	-9.430100	27.957996	1.783781E-5	20.794252
2386.644271	-2.980600	3.172500	-9.455600	27.975995	1.948793E-5	20.816162
2387.645931	-2.978600	3.171200	-9.445200	28.032748	2.041200E-5	20.796475
2388.645817	-2.974500	3.169700	-9.426800	28.125986	1.777181E-5	20.800718
2389.648829	-3.008700	3.168600	-9.532600	28.147603	2.014798E-5	20.777909
2390.649774	-3.035300	3.167000	-9.612100	28.150232	2.047801E-5	20.809954
2391.646490	-2.997400	3.169200	-9.498800	28.113195	1.856387E-5	20.811549
2392.648001	-2.973000	3.166800	-9.413500	28.057743	1.813483E-5	20.809307
2393.645783	-2.982600	3.167300	-9.446400	27.971938	1.773881E-5	20.797854
2394.651550	-3.003000	3.166000	-9.507200	27.974882	1.747479E-5	20.799394
2395.643645	-3.001900	3.166900	-9.505700	27.926298	1.767280E-5	20.786055
2396.649146	-2.995000	3.165100	-9.478100	27.964180	1.853086E-5	20.779614
2397.648470	-3.004500	3.163100	-9.502800	27.948477	1.635270E-5	20.813120
2398.648709	-2.989000	3.163300	-9.454600	27.942358	1.833285E-5	20.779935
2399.649924	-2.999400	3.162100	-9.482800	27.963581	1.655072E-5	20.816469
2400.655702	-3.004600	3.162300	-9.500600	27.970054	1.661672E-5	20.808285
2401.648584	-3.000600	3.161100	-9.484400	27.969662	1.773881E-5	20.794614
2402.652071	-3.015600	3.161200	-9.531300	27.967802	1.529663E-5	20.789897
2403.652116	-3.002200	3.159100	-9.483500	28.031199	1.635270E-5	20.790648
2404.653086	-2.986100	3.159100	-9.432200	28.065756	1.717776E-5	20.815951
2405.656934	-3.009800	3.158200	-9.504700	28.069402	1.631970E-5	20.759877
2406.651727	-3.014300	3.155500	-9.510100	28.049349	1.674873E-5	20.806548
2407.648946	-2.988700	3.155500	-9.429900	28.027577	1.440556E-5	20.806443
2408.653506	-3.012400	3.156700	-9.508300	28.047911	1.509861E-5	20.779496
2409.655487	-3.012400	3.154500	-9.502800	28.105308	1.664973E-5	20.770419
2410.653446	-2.997500	3.155200	-9.457100	28.118300	1.559365E-5	20.782075
2411.658103	-2.978300	3.154400	-9.392700	28.060983	1.424055E-5	20.798819
2412.654685	-2.999600	3.152900	-9.456100	28.063436	1.509861E-5	20.796073
2413.654457	-2.997500	3.152900	-9.449600	28.037834	1.559365E-5	20.764137
2414.656429	-2.986600	3.151100	-9.410600	28.086522	1.499960E-5	20.776638
2415.654517	-3.011000	3.149400	-9.481400	28.053305	1.308546E-5	20.787771
2416.655275	-2.987900	3.148800	-9.406800	28.005038	1.338248E-5	20.791342
2417.655698	-2.987300	3.149600	-9.408200	28.083505	1.325048E-5	20.771230
2418.655198	-2.984100	3.148800	-9.395500	28.048336	1.394353E-5	20.780398
2419.657746	-3.008500	3.145700	-9.462700	28.030853	1.295345E-5	20.778921
2420.658878	-3.008700	3.146300	-9.465500	28.122341	1.222740E-5	20.792307
2421.653937	-3.025200	3.144500	-9.511300	28.196403	1.381152E-5	20.779148
2422.656377	-3.005400	3.144400	-9.449400	28.168945	1.321747E-5	20.778532
2423.660060	-3.019800	3.143300	-9.491300	28.174999	1.275544E-5	20.759023
2424.657286	-3.026100	3.143300	-9.510500	28.119074	1.143534E-5	20.783803
2425.657314	-3.007200	3.143400	-9.451600	28.135564	1.216140E-5	20.780963
2426.657571	-2.990000	3.142800	-9.395400	28.142978	1.153435E-5	20.786530
2427.654158	-3.001900	3.139500	-9.423500	28.126395	1.328348E-5	20.779319
2428.654618	-2.995300	3.141500	-9.408300	28.106368	1.130333E-5	20.768166
2429.661681	-3.011400	3.140200	-9.454800	28.154140	1.110532E-5	20.774059
2430.659746	-2.992700	3.140000	-9.396700	28.124394	1.127033E-5	20.770192
2431.660362	-3.006600	3.138400	-9.435100	28.061357	1.292045E-5	20.786393
2432.664073	-3.014100	3.136800	-9.453400	28.078069	1.315147E-5	20.782827
2433.660891	-3.016000	3.135800	-9.456100	28.064654	1.262343E-5	20.769797
2434.661353	-2.995300	3.136000	-9.392200	28.094702	1.278844E-5	20.782027
2435.658822	-3.011300	3.134800	-9.439000	28.194601	1.173236E-5	20.788715
2436.661977	-2.999500	3.134100	-9.399800	28.185310	1.160035E-5	20.771299
2437.657449	-2.999500	3.132700	-9.394800	28.137324	9.389191E-6	20.766139
2438.662729	-2.990500	3.130900	-9.361800	28.114863	1.249142E-5	20.758226
2439.662138	-2.994400	3.131500	-9.376600	28.131323	1.044527E-5	20.784280
2440.666784	-2.969800	3.130200	-9.295200	28.123188	1.018125E-5	20.769452
2441.664787	-3.010700	3.129500	-9.421500	28.159754	1.051127E-5	20.761219
2442.662480	-3.004400	3.129000	-9.398900	28.223409	1.061028E-5	20.775992
2443.663889	-3.013400	3.127900	-9.424500	28.149417	8.828150E-6	20.765037
2444.663199	-3.000200	3.127600	-9.382700	28.145295	1.018125E-5	20.785069
2445.665520	-2.977200	3.126000	-9.305800	28.161804	9.059167E-6	20.764231
2446.663339	-2.986600	3.126000	-9.334700	28.185206	9.059167E-6	20.762186
2447.670060	-2.981500	3.124700	-9.315100	28.245960	8.795147E-6	20.745590
2448.664789	-2.984400	3.123600	-9.321300	28.308417	6.781999E-6	20.777181
2449.669913	-3.012200	3.122800	-9.406000	28.293525	9.191176E-6	20.756022
2450.667020	-2.967000	3.123400	-9.266300	28.295011	7.145026E-6	20.757993
2451.668454	-3.015500	3.120400	-9.408800	28.294461	5.791926E-6	20.755068
2452.668554	-3.013200	3.119900	-9.399700	28.312607	9.290184E-6	20.760536
2453.668330	-3.015500	3.117400	-9.399700	28.289238	7.475050E-6	20.766404
2454.670025	-2.974600	3.118600	-9.276100	28.189042	5.659917E-6	20.763677
2455.666439	-3.004400	3.117200	-9.364000	28.207788	5.890934E-6	20.744143
2456.669862	-3.004100	3.115500	-9.357500	28.252578	6.418973E-6	20.740873
2457.674647	-2.990600	3.115700	-9.317400	28.339473	7.937084E-6	20.751551
2458.669323	-3.001000	3.113900	-9.344000	28.339027	7.706067E-6	20.768172
2459.672130	-3.003200	3.113900	-9.350700	28.322147	5.032870E-6	20.760185
2460.669275	-2.991500	3.112000	-9.308700	28.269110	7.772072E-6	20.740448
2461.670534	-3.011700	3.110200	-9.366300	28.312337	6.451975E-6	20.753152
2462.669568	-3.004300	3.109400	-9.340600	28.369567	5.890934E-6	20.760043
2463.668399	-3.007400	3.110500	-9.353100	28.405055	8.135099E-6	20.756422
2464.667365	-3.027800	3.106900	-9.406000	28.423346	7.046019E-6	20.752555
2465.675711	-2.985400	3.107600	-9.276800	28.369714	5.329892E-6	20.749759
2466.667710	-3.001500	3.106400	-9.322700	28.350304	5.956939E-6	20.742068
2467.672462	-2.983200	3.106300	-9.266100	28.287727	5.593912E-6	20.750184
2468.673440	-2.992700	3.104600	-9.290200	28.243281	6.815002E-6	20.757592
2469.671705	-3.020100	3.102100	-9.367300	28.273005	2.755703E-6	20.754328
2470.671133	-3.002900	3.103200	-9.318100	28.252455	3.646768E-6	20.765881
2471.673922	-3.016700	3.100500	-9.353000	28.204785	4.207810E-6	20.737326
2472.671668	-3.018600	3.100600	-9.358000	28.270602	2.557688E-6	20.759969
2473.673292	-2.982400	3.099800	-9.243700	28.305799	3.349747E-6	20.752733
2474.671561	-3.018000	3.097800	-9.348500	28.286191	3.745776E-6	20.733464
2475.669575	-3.006600	3.098300	-9.314500	28.257690	5.890934E-6	20.762142
2476.673559	-3.000800	3.096800	-9.291900	28.250651	3.778778E-6	20.749839
2477.673852	-2.976800	3.096700	-9.217400	28.236522	2.656696E-6	20.729923
2478.671344	-3.003200	3.093800	-9.290600	28.264779	3.910788E-6	20.731820
2479.675240	-3.009700	3.092600	-9.306100	28.309327	2.491683E-6	20.733525
2480.674836	-2.979100	3.093000	-9.213900	28.342310	4.009795E-6	20.736389
2481.676685	-3.002200	3.091900	-9.281600	28.421198	2.128657E-6	20.730003
2482.672903	-2.995000	3.090500	-9.255000	28.516236	5.428900E-6	20.753163
2483.674533	-2.988800	3.089200	-9.232500	28.503298	6.220958E-6	20.736814
2484.670661	-3.000400	3.088700	-9.266500	28.469593	3.976793E-6	20.753133
2485.672551	-3.004900	3.087100	-9.274900	28.444546	3.052725E-6	20.754937
2486.673482	-3.012100	3.086500	-9.296800	28.415572	2.392676E-6	20.754685
2487.673919	-2.982700	3.085900	-9.203500	28.418972	2.062652E-6	20.725390
2488.676723	-3.000100	3.084900	-9.254300	28.399917	2.425679E-6	20.756938
2489.677752	-3.005800	3.084700	-9.270500	28.429184	1.732628E-6	20.730932
2490.670767	-2.998700	3.081300	-9.239100	28.402796	2.029649E-6	20.744664
2491.675257	-2.975700	3.081600	-9.169100	28.418360	3.646768E-6	20.755121
2492.676875	-2.989200	3.080300	-9.206900	28.420739	9.405693E-7	20.710098
2493.671149	-2.988300	3.079200	-9.200600	28.425600	4.570836E-6	20.739651
2494.674267	-2.973400	3.078800	-9.153600	28.466020	9.405693E-7	20.739103
2495.678565	-2.987500	3.076600	-9.190300	28.552329	2.755703E-6	20.735932
2496.675800	-3.012000	3.075700	-9.263600	28.567028	3.514759E-6	20.744571
2497.674347	-3.007100	3.074800	-9.245300	28.476782	2.656696E-6	20.741406
2498.680270	-3.010400	3.073000	-9.250700	28.449772	1.732628E-6	20.740285
2499.675252	-3.014600	3.073200	-9.263800	28.498171	-7.095522E-7	20.721219
2500.675826	-2.996900	3.072200	-9.206100	28.501571	1.171586E-6	20.732229
2501.679115	-3.035300	3.068800	-9.313700	28.496612	2.095654E-6	20.745254
2502.675066	-2.995300	3.068500	-9.190500	28.484547	1.600618E-6	20.741639
2503.674435	-3.005100	3.067600	-9.218100	28.524127	1.699625E-6	20.722228
2504.683074	-2.979100	3.066600	-9.135100	28.558796	9.735717E-7	20.716365
2505.674472	-2.986300	3.066100	-9.155600	28.554088	2.475182E-7	20.736280
2506.674156	-3.007900	3.063800	-9.214700	28.599113	1.501611E-6	20.719512
2507.679107	-2.975700	3.062300	-9.111800	28.637772	-4.785352E-7	20.716247
2508.683028	-2.990300	3.061300	-9.153400	28.592999	1.864637E-6	20.734217
2509.677191	-2.998900	3.059500	-9.175000	28.582121	-1.485109E-7	20.728952
2510.680876	-2.988900	3.059700	-9.144700	28.566487	-1.435606E-6	20.692340
2511.678440	-3.010700	3.057400	-9.203900	28.554913	-3.465255E-7	20.728576
2512.682316	-3.013500	3.055400	-9.206800	28.549892	1.435606E-6	20.724468
2513.677653	-2.991400	3.056700	-9.142900	28.582671	-4.950365E-8	20.733773
2514.681530	-3.035800	3.055300	-9.273800	28.533383	5.445401E-7	20.707841
2515.677114	-2.978800	3.054000	-9.096300	28.564561	-4.950365E-8	20.706048
2516.679849	-3.017700	3.052000	-9.207900	28.520353	-1.650122E-8	20.716056
2517.679627	-2.998400	3.051400	-9.148600	28.577101	-2.145158E-7	20.745233
2518.682043	-3.000400	3.050000	-9.150600	28.614661	9.735717E-7	20.726636
2519.687583	-2.974500	3.050100	-9.071500	28.582946	-2.805207E-7	20.716979
2520.679138	-2.997800	3.047600	-9.135300	28.553139	1.171586E-6	20.731057
2521.680868	-2.967900	3.047300	-9.043300	28.532172	1.171586E-6	20.718950
2522.680602	-2.970900	3.045500	-9.046200	28.587183	-1.336598E-6	20.712712
2523.685964	-3.018000	3.042200	-9.181000	28.636665	1.815134E-7	20.727461
2524.686462	-3.000000	3.043200	-9.128500	28.554031	-4.950365E-8	20.728162
2525.687359	-3.005200	3.042700	-9.142800	28.530363	8.415620E-7	20.739414
2526.686373	-3.012800	3.040300	-9.159400	28.589488	-9.075668E-7	20.742062
2527.687644	-2.971700	3.040000	-9.032900	28.677053	-1.815134E-7	20.723094
2528.688485	-3.024200	3.036000	-9.180400	28.660778	2.475182E-7	20.728987
2529.689368	-2.977500	3.036800	-9.041900	28.670786	-1.336598E-6	20.706350
2530.688840	-3.007000	3.033500	-9.121400	28.718533	-1.864637E-6	20.752548
2531.691071	-3.019000	3.033100	-9.156100	28.671746	9.735717E-7	20.731501
2532.692614	-3.009600	3.032900	-9.126400	28.623532	-1.831635E-6	20.716604
2533.685378	-3.003700	3.030300	-9.100800	28.635454	7.425547E-7	20.737621
2534.695137	-2.991800	3.029800	-9.064100	28.642235	-1.270594E-6	20.713155
2535.690690	-3.016700	3.028700	-9.135600	28.673012	2.475182E-7	20.725188
2536.690902	-2.998600	3.027000	-9.075600	28.720906	-1.567615E-6	20.735497
2537.696416	-2.989100	3.025600	-9.042800	28.704680	1.650122E-8	20.739069
2538.689479	-2.995700	3.024000	-9.057500	28.596104	-3.465255E-7	20.719326
2539.692101	-2.991700	3.024200	-9.047200	28.601857	-5.115377E-7	20.728439
2540.697725	-3.019100	3.021200	-9.120200	28.612881	-7.095522E-7	20.726266
2541.693340	-3.026400	3.019300	-9.136000	28.661047	-2.095654E-6	20.711240
2542.688864	-3.000900	3.018500	-9.057900	28.675763	-4.455328E-7	20.735072
2543.697834	-3.014200	3.018400	-9.097300	28.703336	3.795279E-7	20.723015
2544.689984	-2.993000	3.016500	-9.027100	28.753661	-5.775425E-7	20.738619
2545.694319	-2.998900	3.014500	-9.039900	28.724873	1.485109E-7	20.717681
2546.696637	-3.008800	3.014200	-9.067700	28.690729	-8.085595E-7	20.709368
2547.692602	-3.019500	3.011500	-9.092400	28.676356	-4.455328E-7	20.732350
2548.694889	-3.008100	3.010400	-9.054500	28.682696	-2.227664E-6	20.718821
2549.697021	-2.996000	3.009600	-9.015300	28.718399	-4.455328E-7	20.715902
2550.693977	-3.015100	3.008700	-9.071000	28.754817	-1.171586E-6	20.727929
2551.689730	-2.998900	3.008500	-9.021600	28.775229	9.735717E-7	20.729050
2552.694687	-3.011000	3.005000	-9.047000	28.756156	-7.425547E-7	20.736390
2553.692010	-3.005200	3.004600	-9.028100	28.783756	-3.019722E-6	20.723889
2554.696809	-2.984200	3.003200	-8.961400	28.781849	-1.105581E-6	20.715329
2555.696819	-3.020700	3.001000	-9.064600	28.772282	-2.145158E-7	20.717546
2556.695588	-2.986800	3.001500	-8.964100	28.696843	-1.831635E-6	20.734020
2557.691378	-3.004900	2.997000	-9.004700	28.655368	-2.755703E-6	20.733970
2558.698318	-3.025000	2.996900	-9.064800	28.622933	-1.699625E-6	20.737813
2559.695665	-2.984400	2.996600	-8.941700	28.685766	-1.897640E-6	20.735664
2560.694489	-2.992300	2.994700	-8.960200	28.784448	-2.293669E-6	20.724585
2561.697444	-2.976600	2.994400	-8.912400	28.787174	-1.270594E-6	20.733496
2562.691605	-3.008100	2.991200	-8.996900	28.780064	-1.138584E-6	20.736292
2563.703259	-2.976100	2.989800	-8.896800	28.819010	-1.534613E-6	20.737591
2564.702452	-3.010400	2.989300	-8.997700	28.768296	-3.465255E-7	20.743879
2565.698661	-2.995900	2.986900	-8.947700	28.786330	1.155085E-7	20.728853
2566.697997	-3.006500	2.984500	-8.972500	28.808331	-1.402603E-6	20.738687
2567.700417	-3.027600	2.984900	-9.035700	28.787144	-1.105581E-6	20.750536
2568.699093	-3.030600	2.983200	-9.039600	28.758602	-2.260666E-6	20.727948
2569.693270	-3.026500	2.981000	-9.021300	28.704693	-3.019722E-6	20.735763
2570.702249	-3.005100	2.981200	-8.958000	28.731947	-4.075800E-6	20.733342
2571.696151	-3.017500	2.978700	-8.986800	28.756871	-1.138584E-6	20.733792
2572.697143	-2.998500	2.977200	-8.925800	28.813332	-3.085727E-6	20.729974
2573.703671	-3.003900	2.976100	-8.938900	28.753424	-3.085727E-6	20.736009
2574.700596	-3.009800	2.973600	-8.949700	28.789106	-3.910788E-6	20.740658
2575.700336	-3.008300	2.972800	-8.941500	28.783726	-1.831635E-6	20.752784
2576.703635	-3.006600	2.972500	-8.936300	28.811272	-3.250739E-6	20.724105
2577.700482	-3.017700	2.969200	-8.959200	28.858542	-6.765498E-7	20.748491
2578.697794	-3.024900	2.967900	-8.976500	28.929018	-2.095654E-6	20.738885
2579.706761	-2.997600	2.966900	-8.893000	28.932857	-3.844783E-6	20.740381
2580.699407	-3.007700	2.966400	-8.920700	28.869294	-2.722700E-6	20.733718
2581.700878	-2.988500	2.962900	-8.854200	28.799491	-2.986720E-6	20.733101
2582.704973	-3.031300	2.961400	-8.975600	28.797064	-3.085727E-6	20.744408
2583.701528	-3.010100	2.960100	-8.908300	28.777485	-2.854710E-6	20.752660
2584.702247	-2.994200	2.958500	-8.857400	28.832396	-1.567615E-6	20.718358
2585.701513	-2.983000	2.959100	-8.825300	28.877307	-2.722700E-6	20.751748
2586.706837	-2.975500	2.957800	-8.800200	28.902056	-2.491683E-6	20.742067
2587.701416	-2.998700	2.954600	-8.859300	28.861304	-3.976793E-6	20.751748
2588.707973	-2.993600	2.953600	-8.840800	28.807425	-5.560910E-6	20.722127
2589.701625	-2.994700	2.951500	-8.838000	28.863021	-2.392676E-6	20.745891
2590.703435	-3.016100	2.950000	-8.897000	28.904586	-2.029649E-6	20.751729
2591.708689	-2.988400	2.948900	-8.811400	28.893241	-3.745776E-6	20.730342
2592.702373	-3.018300	2.946300	-8.892300	28.813574	-2.788705E-6	20.738279
2593.706248	-2.998200	2.946500	-8.832500	28.812505	-4.966866E-6	20.771817
2594.707469	-2.985200	2.944200	-8.788400	28.815585	-3.613766E-6	20.747892
2595.706172	-2.987300	2.941700	-8.787000	28.865007	-2.854710E-6	20.752634
2596.707922	-2.977400	2.940900	-8.755500	28.868277	-3.316744E-6	20.755928
2597.706778	-2.980700	2.937800	-8.756300	28.903931	-2.986720E-6	20.738740
2598.709891	-3.031200	2.937600	-8.903800	28.955329	-5.329893E-6	20.754013
2599.706277	-2.980400	2.935700	-8.748500	28.977992	-4.108803E-6	20.747448
2600.706038	-2.994000	2.932700	-8.779300	29.006657	-4.240812E-6	20.775380
2601.708093	-2.999000	2.933800	-8.797400	28.947701	-3.382749E-6	20.744430
2602.706178	-3.037200	2.929900	-8.897100	28.865807	-2.953718E-6	20.756285
2603.707689	-3.012700	2.929000	-8.823000	28.846338	-5.065873E-6	20.755638
2604.707914	-2.980100	2.927200	-8.723100	28.774890	-2.590691E-6	20.732028
2605.703834	-2.986800	2.926400	-8.739600	28.791738	-3.316744E-6	20.773182
2606.709972	-3.040300	2.922300	-8.883900	28.824167	-2.557688E-6	20.740415
2607.705514	-3.003800	2.923700	-8.781400	28.828006	-8.085595E-7	20.766094
2608.713752	-3.010500	2.919800	-8.788700	28.878991	-4.834856E-6	20.739694
2609.707918	-2.993300	2.918700	-8.735900	28.885042	-1.732628E-6	20.758119
2610.709568	-2.980900	2.918400	-8.698400	28.887512	-4.471829E-6	20.751124
2611.708522	-2.993300	2.917300	-8.731900	28.920684	-4.636841E-6	20.755619
2612.718231	-3.015400	2.912600	-8.781600	28.888533	-2.161659E-6	20.759739
2613.707543	-3.011200	2.912400	-8.768600	28.849742	-4.504832E-6	20.770921
2614.710288	-3.020600	2.909300	-8.786900	28.892298	-3.547761E-6	20.777283
2615.711914	-3.003400	2.910000	-8.739100	28.985583	-4.603839E-6	20.760311
2616.713418	-2.997200	2.906800	-8.711100	29.026379	-3.646769E-6	20.747361
2617.712915	-3.012200	2.904200	-8.747600	29.005501	-2.458681E-6	20.748611
2618.713673	-3.000500	2.903300	-8.710800	28.926050	-3.217737E-6	20.757705
2619.713665	-2.982800	2.902300	-8.656700	28.979225	-2.293669E-6	20.752958
2620.713068	-3.004300	2.899800	-8.709800	29.024899	-2.656696E-6	20.770527
2621.717450	-3.002000	2.897800	-8.697800	29.067399	-1.732628E-6	20.767356
2622.710226	-3.007300	2.895700	-8.707100	29.082409	-3.151732E-6	20.757823
2623.717569	-3.024000	2.893200	-8.747600	29.068670	-3.052725E-6	20.748721
2624.720526	-2.976900	2.893900	-8.614000	29.023566	-3.151732E-6	20.769184
2625.712828	-2.970900	2.890900	-8.587500	28.950944	-4.636841E-6	20.771881
2626.713690	-2.954400	2.889800	-8.536300	28.948047	-2.161659E-6	20.777497
2627.719199	-2.996900	2.887700	-8.653200	28.913446	-3.910788E-6	20.780095
2628.713612	-2.997800	2.885000	-8.647600	28.941018	-3.679771E-6	20.762828
2629.715875	-3.025200	2.883000	-8.720700	28.991448	-5.692919E-6	20.751996
2630.719103	-3.019000	2.880400	-8.694300	28.997071	-3.646769E-6	20.767619
2631.715820	-2.984100	2.880200	-8.594100	29.046020	-2.821708E-6	20.754822
2632.716901	-3.000500	2.877200	-8.631900	29.144222	-2.227664E-6	20.760839
2633.718053	-3.014400	2.876500	-8.670100	29.142462	-2.062652E-6	20.758117
2634.714521	-2.997700	2.873100	-8.611300	29.194814	-2.425679E-6	20.766775
2635.717881	-3.040800	2.872200	-8.732700	29.172405	-2.557688E-6	20.769798
2636.717232	-2.991600	2.870000	-8.584600	29.137341	-3.844783E-6	20.778087
2637.726374	-3.018400	2.868200	-8.656600	29.172277	-5.445401E-7	20.792903
2638.719007	-3.005100	2.866800	-8.613700	29.084638	-4.141805E-6	20.767181
2639.720853	-3.008700	2.863900	-8.615500	29.059623	-3.382749E-6	20.760943
2640.719372	-2.999900	2.861900	-8.584500	29.124122	-4.867859E-6	20.774724
2641.717425	-3.000200	2.861400	-8.583800	29.124195	-3.976793E-6	20.763892
2642.726402	-3.015600	2.859000	-8.620900	29.098839	-2.458681E-6	20.762999
2643.717330	-2.994400	2.857200	-8.554700	29.108471	-2.491683E-6	20.782187
2644.720508	-3.013200	2.853800	-8.598000	29.088389	-2.491683E-6	20.766694
2645.720343	-3.013800	2.852700	-8.597100	29.130294	-3.118730E-6	20.772408
2646.720445	-2.984700	2.851200	-8.509400	29.120564	-3.382749E-6	20.784416
2647.720838	-3.004900	2.848200	-8.558000	29.106600	-1.402603E-6	20.767026
2648.724736	-2.983600	2.847600	-8.495100	29.112962	-3.085727E-6	20.768221
2649.720691	-3.016000	2.844500	-8.577800	29.085620	-2.788705E-6	20.778129
2650.716756	-3.039500	2.841600	-8.636300	29.114398	-5.131878E-6	20.776780
2651.721343	-3.000300	2.839400	-8.518200	29.083023	-3.646769E-6	20.787365
2652.716589	-2.989500	2.837900	-8.482800	29.085754	-3.811781E-6	20.773048
2653.720148	-3.011600	2.835500	-8.538600	29.133751	-1.237591E-6	20.786798
2654.722596	-3.033100	2.833000	-8.591700	29.136624	-2.788705E-6	20.788270
2655.717250	-3.044100	2.829900	-8.613100	29.153612	-2.260666E-6	20.793535
2656.722921	-2.998200	2.829700	-8.483200	29.186299	-6.765498E-7	20.794705
2657.726830	-3.024600	2.826300	-8.547600	29.132187	-3.184735E-6	20.783325
2658.724349	-3.022200	2.824200	-8.534200	29.148113	-2.227664E-6	20.780881
2659.720671	-3.007600	2.822000	-8.487000	29.224363	-1.963645E-6	20.776164
2660.725018	-3.047800	2.818100	-8.587800	29.240512	-3.349747E-6	20.764463
2661.717652	-2.995100	2.817300	-8.436900	29.259406	-1.930642E-6	20.790142
2662.719020	-2.980200	2.815100	-8.389300	29.252697	-3.415752E-6	20.791915
2663.721170	-2.996400	2.812000	-8.424700	29.277089	-2.788705E-6	20.785203
2664.720964	-3.002200	2.810800	-8.437700	29.335526	-1.699625E-6	20.797630
2665.721850	-3.007300	2.806300	-8.438700	29.313322	-4.471829E-6	20.785683
2666.728878	-3.004700	2.804800	-8.426300	29.281329	-3.151732E-6	20.792321
2667.723061	-2.999400	2.802700	-8.404800	29.257059	-2.227664E-6	20.793941
2668.722183	-2.994500	2.798200	-8.378700	29.281427	-1.501611E-6	20.787678
2669.724798	-2.986100	2.798000	-8.354000	29.359427	-1.864637E-6	20.795640
2670.726646	-3.012000	2.793300	-8.412700	29.344995	-3.283742E-6	20.799587
2671.724654	-3.000600	2.791600	-8.375600	29.395901	-3.382749E-6	20.797315
2672.729273	-2.996000	2.788700	-8.353100	29.442664	-3.052725E-6	20.791817
2673.734074	-2.997900	2.784900	-8.348100	29.494169	-1.468608E-6	20.780196
2674.722486	-3.023500	2.781400	-8.408900	29.472305	-2.128657E-6	20.780917
2675.729620	-3.013500	2.779600	-8.375900	29.429992	-1.270594E-6	20.807968
2676.725576	-3.011000	2.776200	-8.358000	29.391545	-3.448754E-6	20.795769
2677.725348	-2.983300	2.775800	-8.280600	29.385802	-1.699625E-6	20.786188
2678.732736	-3.007200	2.772000	-8.335900	29.435912	-3.184735E-6	20.806349
2679.723176	-2.994100	2.768000	-8.286200	29.362054	-1.336598E-6	20.811564
2680.725420	-2.967400	2.765200	-8.204800	29.285661	-2.062652E-6	20.787678
2681.725990	-2.998300	2.762800	-8.282200	29.309808	-1.633620E-6	20.800160
2682.727097	-2.986700	2.758800	-8.238700	29.358492	-2.095654E-6	20.805129
2683.726067	-2.967000	2.756400	-8.177500	29.414053	-2.491683E-6	20.783367
2684.726752	-2.978700	2.754600	-8.204300	29.426925	-8.415620E-7	20.803929
2685.727004	-2.992300	2.750100	-8.228100	29.415439	-3.118730E-6	20.807999
2686.726624	-3.000400	2.746700	-8.239300	29.409294	2.475182E-7	20.795640
2687.726081	-3.011800	2.742900	-8.260200	29.492752	-2.887713E-6	20.790148
2688.725183	-3.009300	2.740000	-8.244500	29.501518	-4.966866E-6	20.800407
2689.725763	-2.975900	2.737900	-8.147300	29.527438	-1.303596E-6	20.799982
2690.725649	-2.999500	2.734200	-8.200000	29.557585	-4.108803E-6	20.803818
2691.726809	-2.989600	2.729500	-8.158600	29.550682	-1.798632E-6	20.805395
2692.727544	-2.988900	2.726700	-8.148900	29.519760	-2.590691E-6	20.821639
2693.735643	-2.984200	2.723300	-8.126300	29.519779	-2.029649E-6	20.803640
2694.728550	-2.997300	2.719100	-8.149100	29.508563	-3.085727E-6	20.795179
2695.724588	-3.000800	2.715900	-8.149500	29.479551	-1.666623E-6	20.787272
2696.728339	-2.992700	2.711400	-8.113000	29.450228	-2.788705E-6	20.826467
2697.726583	-3.012800	2.707000	-8.154600	29.438712	-2.425679E-6	20.828611
2698.727573	-2.998600	2.704600	-8.109500	29.452134	1.303596E-6	20.838346
2699.727372	-3.044900	2.700200	-8.220600	29.489222	-2.458681E-6	20.815039
2700.727308	-3.008200	2.697000	-8.112900	29.563640	-1.204589E-6	20.819879
2701.729157	-2.992700	2.691500	-8.053900	29.597951	1.815134E-7	20.817483
2702.730503	-2.995900	2.689600	-8.056600	29.494763	-1.732628E-6	20.828210
2703.730412	-2.993900	2.684600	-8.036500	29.572400	-1.963645E-6	20.798364
2704.732595	-3.006500	2.679200	-8.054400	29.547691	-1.699625E-6	20.834621
2705.731768	-3.017700	2.675500	-8.073100	29.483022	3.135231E-7	20.807367
2706.728231	-2.991400	2.671700	-7.990100	29.533628	-3.118730E-6	20.820446
2707.735889	-2.998500	2.668000	-7.999100	29.674310	-2.590691E-6	20.832823
2708.731313	-3.032600	2.662300	-8.072500	29.695003	-1.633620E-6	20.833771
2709.733617	-3.032200	2.658800	-8.060900	29.699804	-1.567615E-6	20.842878
2710.733706	-2.965200	2.654700	-7.870900	29.742650	-1.831635E-6	20.808789
2711.731999	-2.978600	2.649400	-7.890500	29.780913	-9.735717E-7	20.845945
2712.736170	-2.969300	2.643900	-7.849700	29.833288	-1.864637E-6	20.830477
2713.737154	-3.008900	2.639200	-7.940500	29.800359	-3.465255E-7	20.828569
2714.736488	-3.027000	2.634800	-7.975000	29.803583	-2.359674E-6	20.834190
2715.735042	-2.983500	2.628800	-7.842700	29.821282	-2.145158E-7	20.824535
2716.739802	-3.014100	2.624600	-7.909400	29.891419	-7.755571E-7	20.842152
2717.732516	-3.019300	2.619400	-7.908100	29.886619	-3.679771E-6	20.834467
2718.737470	-2.987100	2.615100	-7.810900	29.845337	-3.217737E-6	20.839307
2719.740180	-3.012700	2.608900	-7.859200	29.776229	-1.105581E-6	20.832688
2720.739028	-2.975800	2.604700	-7.750100	29.783631	9.405693E-7	20.843470
2721.742050	-2.988500	2.598900	-7.766200	29.741899	4.785352E-7	20.851653
2722.740009	-2.986000	2.592400	-7.740200	29.684817	-1.402603E-6	20.838674
2723.739523	-2.991500	2.587200	-7.739100	29.672320	-2.986720E-6	20.845989
2724.737554	-3.038700	2.580400	-7.840300	29.669718	-4.455328E-7	20.832935
2725.745497	-3.031600	2.575400	-7.806800	29.695908	-7.425547E-7	20.832787
2726.742079	-2.991900	2.570600	-7.689900	29.706902	-1.831635E-6	20.824905
2727.740698	-3.019600	2.564400	-7.742100	29.696672	9.735717E-7	20.855841
2728.742983	-2.986700	2.559700	-7.643600	29.785806	-1.204589E-6	20.830016
2729.745943	-3.023200	2.552400	-7.715200	29.807419	1.897640E-6	20.871720
2730.741839	-2.976300	2.547000	-7.577500	29.764668	9.405693E-7	20.841420
2731.741601	-2.977700	2.539000	-7.559700	29.660464	-2.194662E-6	20.856321
2732.738883	-3.029600	2.532300	-7.670600	29.637339	-1.501611E-6	20.860508
2733.740877	-3.018200	2.526700	-7.624800	29.710860	-4.785352E-7	20.862084
2734.744427	-3.002100	2.521700	-7.568900	29.788358	-1.567615E-6	20.852029
2735.739701	-2.988200	2.515200	-7.515100	29.839879	-8.250608E-8	20.862725
2736.739421	-2.974600	2.510600	-7.467000	29.802313	7.425547E-7	20.851401
2737.743494	-3.006600	2.502200	-7.522200	29.828873	8.085595E-7	20.861586
2738.742212	-2.984600	2.496900	-7.451300	29.775430	9.405693E-7	20.840416
