LabVIEW Measurement	
Writer_Version	2
Reader_Version	2
Separator	Tab
Decimal_Separator	.
Multi_Headings	No
X_Columns	One
Time_Pref	Absolute
Operator	admin
Description	Clolumns are: time, Current, Voltage, Power, Battery Temp, and Chamber Temp
Date	2024/08/16
Time	13:07:17.8513970375061035156
***End_of_Header***	
	
Channels	6						
Samples	1	1	1	1	1	1	
Date	2024/09/03	2024/09/03	2024/09/03	2024/09/03	2024/09/03	2024/09/03	
Time	03:48:04.9164958000183105469	03:48:04.9220976829528808594	03:48:04.9271450042724609375	03:48:04.8886137008666992187	03:48:04.8886137008666992187	03:48:04.8886137008666992187	
X_Dimension	Time	Time	Time	Time	Time	Time	
X0	0.0000000000000000E+0	0.0000000000000000E+0	0.0000000000000000E+0	0.0000000000000000E+0	0.0000000000000000E+0	0.0000000000000000E+0	
Delta_X	1.000000	1.000000	1.000000	1.000000	1.000000	1.000000	
***End_of_Header***							
X_Value	Untitled	Untitled 1	Untitled 2	Untitled 3	Untitled 4	Untitled 5	Comment
0.000000	0.000605	4.085100	0.002613	20.853081	0.000470	20.876313
1.012165	-3.013300	3.920400	-11.811000	20.862345	0.000467	20.875621
2.003792	-3.002800	3.915900	-11.757000	20.851889	0.000470	20.866587
3.010758	-3.012300	3.911400	-11.782000	20.869048	0.000466	20.882798
4.007514	-3.011400	3.908300	-11.768000	20.876583	0.000466	20.862359
5.005231	-3.013800	3.906300	-11.771000	20.871317	0.000464	20.870843
6.002525	-3.019900	3.902800	-11.785000	20.878020	0.000465	20.884183
7.002999	-3.003900	3.902100	-11.721000	20.877827	0.000463	20.872137
8.002595	-2.999700	3.898400	-11.693000	20.893881	0.000464	20.862115
9.010049	-3.011200	3.896500	-11.732000	20.909002	0.000463	20.873443
10.004255	-3.007000	3.896300	-11.715000	20.901507	0.000461	20.870689
11.008943	-2.994100	3.895200	-11.661000	20.892510	0.000461	20.869278
12.008356	-2.969300	3.894700	-11.563000	20.924224	0.000463	20.875391
13.006347	-2.993400	3.892500	-11.651000	20.922878	0.000462	20.881631
14.012020	-3.005200	3.890600	-11.691000	20.950569	0.000462	20.848161
15.008648	-3.017900	3.888900	-11.735000	20.921470	0.000459	20.871689
16.015124	-3.007200	3.888300	-11.691000	20.920624	0.000460	20.862308
17.008118	-2.994700	3.888200	-11.643000	20.949647	0.000459	20.876160
18.008644	-3.002900	3.886100	-11.669000	20.952133	0.000458	20.843562
19.005477	-3.015400	3.886400	-11.719000	20.961666	0.000456	20.866845
20.018635	-3.001100	3.885300	-11.659000	20.971083	0.000457	20.889538
21.012168	-3.001400	3.884600	-11.658000	20.976388	0.000455	20.843164
22.012633	-2.991700	3.884600	-11.621000	20.971520	0.000458	20.845407
23.010587	-2.996900	3.883700	-11.637000	21.002295	0.000459	20.857221
24.005112	-3.006400	3.882200	-11.670000	21.012943	0.000455	20.832784
25.006184	-3.003000	3.882400	-11.657000	20.998119	0.000454	20.880544
26.005991	-3.004100	3.880400	-11.656000	21.014468	0.000457	20.859912
27.016463	-3.004400	3.881200	-11.660000	21.013290	0.000456	20.859208
28.012402	-2.983500	3.881200	-11.578000	21.031855	0.000455	20.852173
29.008698	-2.993100	3.880000	-11.612000	21.035534	0.000454	20.869602
30.020855	-2.995400	3.878800	-11.618000	21.060374	0.000455	20.871214
31.010177	-3.016200	3.878100	-11.695000	21.055481	0.000452	20.851622
32.014415	-3.008900	3.877200	-11.665000	21.066333	0.000454	20.853942
33.023122	-3.005300	3.877600	-11.653000	21.075686	0.000454	20.865667
34.020830	-2.998600	3.876900	-11.624000	21.086614	0.000453	20.863322
35.013803	-2.984500	3.877700	-11.573000	21.080029	0.000453	20.874278
36.011596	-2.990100	3.875600	-11.588000	21.107216	0.000454	20.862118
37.027530	-2.973500	3.876600	-11.526000	21.126254	0.000453	20.843704
38.014643	-3.003500	3.876300	-11.642000	21.122050	0.000454	20.850878
39.010986	-2.998600	3.874900	-11.618000	21.138845	0.000454	20.872892
40.014103	-2.993200	3.874900	-11.597000	21.143792	0.000454	20.847971
41.019526	-3.001000	3.874000	-11.625000	21.139628	0.000452	20.853289
42.011173	-2.981500	3.874800	-11.551000	21.150096	0.000453	20.842898
43.011311	-2.990000	3.873800	-11.582000	21.147621	0.000451	20.844215
44.016180	-2.978200	3.874400	-11.538000	21.172743	0.000452	20.851801
45.017307	-2.995000	3.873100	-11.599000	21.197737	0.000450	20.840768
46.014551	-3.014600	3.872700	-11.673000	21.191947	0.000450	20.845407
47.014910	-3.031700	3.871800	-11.738000	21.169644	0.000452	20.867666
48.014923	-2.991800	3.873000	-11.587000	21.212329	0.000452	20.822649
49.022615	-2.995400	3.871900	-11.597000	21.213404	0.000452	20.859285
50.017658	-3.010800	3.872200	-11.657000	21.212314	0.000451	20.852031
51.021172	-3.011200	3.871900	-11.658000	21.215479	0.000450	20.855671
52.018432	-3.009900	3.872200	-11.654000	21.225725	0.000451	20.862601
53.026695	-2.975100	3.871900	-11.518000	21.246620	0.000451	20.827080
54.026871	-2.989200	3.872200	-11.574000	21.245172	0.000449	20.850287
55.021053	-3.009000	3.870600	-11.646000	21.230723	0.000450	20.838678
56.021641	-2.986700	3.870700	-11.560000	21.246171	0.000449	20.829951
57.034187	-2.993400	3.870200	-11.584000	21.279823	0.000449	20.860769
58.018438	-3.011100	3.868700	-11.648000	21.302109	0.000451	20.839445
59.022717	-2.991400	3.870000	-11.576000	21.284063	0.000450	20.841779
60.024720	-2.986100	3.870100	-11.556000	21.293950	0.000450	20.857360
61.017849	-2.988000	3.870800	-11.565000	21.302047	0.000448	20.853132
62.020355	-2.990700	3.869500	-11.572000	21.312729	0.000450	20.851017
63.020899	-3.010600	3.869700	-11.649000	21.314702	0.000449	20.849671
64.035821	-2.980500	3.867400	-11.526000	21.316368	0.000450	20.843278
65.020325	-3.026300	3.867200	-11.703000	21.334184	0.000451	20.825541
66.026122	-2.995900	3.869100	-11.590000	21.329317	0.000452	20.850069
67.015384	-3.005700	3.867800	-11.625000	21.353039	0.000452	20.833500
68.013947	-2.994500	3.868000	-11.582000	21.364618	0.000453	20.835601
69.015907	-3.010900	3.867700	-11.645000	21.381897	0.000451	20.839138
70.012395	-3.004100	3.867700	-11.618000	21.404350	0.000451	20.843110
71.012825	-2.998400	3.867300	-11.595000	21.389199	0.000452	20.856400
72.013158	-2.995900	3.868600	-11.590000	21.398291	0.000448	20.851273
73.016801	-2.991100	3.866600	-11.564000	21.417710	0.000453	20.836089
74.012703	-3.001500	3.865000	-11.600000	21.419708	0.000452	20.839036
75.017287	-3.001800	3.866100	-11.604000	21.424870	0.000451	20.829976
76.014297	-2.979500	3.867900	-11.523000	21.422744	0.000452	20.845867
77.015335	-2.999300	3.865500	-11.593000	21.444081	0.000452	20.865792
78.017816	-3.012700	3.865000	-11.643000	21.449486	0.000452	20.824261
79.015199	-3.010700	3.865600	-11.637000	21.450882	0.000451	20.848417
80.015352	-3.006200	3.866000	-11.621000	21.459270	0.000453	20.836895
81.017100	-3.019200	3.864900	-11.668000	21.462474	0.000451	20.845790
82.016708	-2.982700	3.867000	-11.532000	21.470184	0.000451	20.818892
83.014581	-2.978400	3.866200	-11.515000	21.489522	0.000450	20.830181
84.015680	-3.010500	3.863700	-11.631000	21.499345	0.000451	20.846174
85.016258	-2.983200	3.864800	-11.528000	21.504762	0.000452	20.820774
86.015482	-2.998400	3.865300	-11.589000	21.512318	0.000450	20.836396
87.018625	-2.997900	3.863900	-11.582000	21.522488	0.000453	20.833295
88.016625	-3.006600	3.863100	-11.613000	21.512741	0.000452	20.850569
89.016200	-3.029300	3.863600	-11.703000	21.538111	0.000451	20.841815
90.019147	-2.994300	3.864300	-11.570000	21.545641	0.000452	20.834178
91.016855	-2.994700	3.864200	-11.570000	21.571382	0.000450	20.843814
92.017307	-3.001200	3.863600	-11.594000	21.564992	0.000453	20.841688
93.019643	-2.983100	3.863500	-11.524000	21.559306	0.000452	20.829360
94.020367	-2.995300	3.864300	-11.574000	21.590528	0.000451	20.807498
95.017855	-3.010000	3.863100	-11.626000	21.592001	0.000450	20.836946
96.020245	-3.004700	3.863300	-11.607000	21.576226	0.000453	20.836333
97.021687	-2.989800	3.862900	-11.547000	21.602272	0.000452	20.830629
98.021158	-2.989400	3.863400	-11.548000	21.609496	0.000453	20.850185
99.021895	-2.998800	3.863700	-11.585000	21.614886	0.000453	20.834244
100.021359	-2.970800	3.862400	-11.473000	21.628025	0.000453	20.832693
101.024259	-2.965800	3.864600	-11.461000	21.636273	0.000452	20.825300
102.019398	-2.988000	3.862300	-11.540000	21.627963	0.000451	20.837372
103.019053	-2.986700	3.862400	-11.534000	21.666123	0.000453	20.823878
104.022993	-2.997600	3.862600	-11.578000	21.641806	0.000450	20.830837
105.021231	-2.986700	3.861000	-11.531000	21.654150	0.000455	20.821379
106.022098	-3.011200	3.860900	-11.625000	21.674895	0.000454	20.839769
107.025888	-3.013700	3.861000	-11.635000	21.655739	0.000455	20.829133
108.020190	-2.970700	3.862600	-11.473000	21.673131	0.000452	20.814296
109.022579	-2.994600	3.861400	-11.563000	21.694783	0.000455	20.835016
110.023328	-3.006300	3.859200	-11.601000	21.718293	0.000457	20.825829
111.023857	-3.001800	3.860100	-11.586000	21.714529	0.000455	20.827751
112.024514	-3.013800	3.860300	-11.634000	21.728793	0.000456	20.819741
113.029786	-2.983100	3.860500	-11.515000	21.733083	0.000455	20.817396
114.025098	-2.998300	3.859500	-11.571000	21.754289	0.000454	20.817757
115.030904	-2.993500	3.859100	-11.551000	21.737542	0.000455	20.792937
116.031062	-3.002400	3.860100	-11.588000	21.764124	0.000457	20.807212
117.028172	-2.982900	3.860700	-11.515000	21.741960	0.000453	20.812056
118.029710	-2.982600	3.860200	-11.513000	21.757313	0.000457	20.818413
119.028618	-2.981600	3.859600	-11.507000	21.773049	0.000456	20.799075
120.030247	-3.006800	3.858800	-11.601000	21.783548	0.000456	20.829971
121.030935	-3.004500	3.858100	-11.591000	21.795902	0.000457	20.830956
122.029764	-2.994000	3.858300	-11.551000	21.816775	0.000457	20.793053
123.029910	-2.997200	3.858400	-11.563000	21.805774	0.000458	20.816181
124.033363	-2.989800	3.858300	-11.534000	21.815507	0.000457	20.810276
125.030188	-2.990600	3.858400	-11.538000	21.840524	0.000459	20.815875
126.029975	-3.004900	3.857500	-11.591000	21.822037	0.000457	20.809700
127.034071	-2.981400	3.858100	-11.501000	21.859447	0.000462	20.811108
128.037765	-3.000000	3.858700	-11.576000	21.849116	0.000459	20.805035
129.032011	-3.000300	3.856900	-11.570000	21.864082	0.000460	20.809109
130.031347	-2.994200	3.857300	-11.548000	21.890483	0.000458	20.787644
131.034770	-3.008200	3.856300	-11.600000	21.884682	0.000460	20.795114
132.032348	-3.004300	3.857400	-11.588000	21.879857	0.000458	20.796449
133.033155	-2.992100	3.857500	-11.542000	21.901775	0.000462	20.804637
134.038294	-2.979900	3.855400	-11.487000	21.922144	0.000460	20.789464
135.035205	-2.977600	3.856000	-11.481000	21.938992	0.000460	20.806329
136.036687	-2.970400	3.857400	-11.456000	21.932117	0.000462	20.817465
137.035144	-3.018200	3.855300	-11.634000	21.936828	0.000464	20.806534
138.038201	-3.001100	3.856000	-11.570000	21.956184	0.000460	20.800304
139.038272	-3.017200	3.855300	-11.632000	21.944188	0.000461	20.784978
140.036605	-3.017900	3.854700	-11.632000	21.948284	0.000463	20.817527
141.038621	-3.014400	3.854400	-11.618000	21.972507	0.000463	20.788195
142.038275	-3.000900	3.855300	-11.569000	21.968000	0.000462	20.795537
143.039462	-3.005300	3.854800	-11.584000	21.996380	0.000463	20.809248
144.038621	-2.982600	3.854900	-11.497000	22.000286	0.000465	20.796088
145.039450	-2.995500	3.854200	-11.543000	21.988699	0.000464	20.793024
146.037093	-2.981200	3.854500	-11.490000	21.975079	0.000462	20.801676
147.035421	-2.982800	3.854800	-11.497000	22.002410	0.000464	20.797740
148.038850	-2.964700	3.855200	-11.429000	22.018565	0.000462	20.796369
149.036574	-3.012400	3.852400	-11.604000	22.020139	0.000462	20.804109
150.036200	-3.006900	3.853800	-11.588000	22.000898	0.000464	20.797175
151.034761	-2.993500	3.853400	-11.533000	22.011767	0.000462	20.798098
152.037084	-2.987300	3.853000	-11.509000	22.032760	0.000465	20.808683
153.037285	-3.009300	3.852800	-11.593000	22.024082	0.000464	20.804262
154.041631	-2.996400	3.852700	-11.543000	22.045614	0.000466	20.776980
155.037139	-3.002100	3.852200	-11.564000	22.038419	0.000463	20.781156
156.042049	-3.010200	3.853100	-11.597000	22.065646	0.000464	20.798930
157.037076	-3.015200	3.851800	-11.613000	22.082812	0.000465	20.772019
158.039131	-2.974000	3.852200	-11.456000	22.066939	0.000466	20.786948
159.043715	-3.003500	3.851500	-11.568000	22.089239	0.000466	20.784143
160.042779	-2.994500	3.852700	-11.536000	22.119445	0.000467	20.784512
161.041164	-3.032700	3.851600	-11.679000	22.110935	0.000466	20.790216
162.045309	-2.984800	3.853000	-11.500000	22.127012	0.000466	20.776440
163.047226	-2.985300	3.851900	-11.497000	22.113751	0.000470	20.760793
164.044132	-2.992400	3.850700	-11.521000	22.133015	0.000467	20.785770
165.043208	-3.002100	3.850700	-11.559000	22.130046	0.000468	20.779952
166.047566	-2.980600	3.852400	-11.482000	22.111973	0.000467	20.781298
167.047565	-3.000700	3.851800	-11.556000	22.122698	0.000471	20.774967
168.042752	-3.000800	3.849800	-11.552000	22.108005	0.000468	20.761205
169.043578	-2.984300	3.849400	-11.487000	22.147147	0.000470	20.776684
170.044226	-2.994400	3.849600	-11.527000	22.132556	0.000473	20.777724
171.044526	-3.003500	3.849800	-11.562000	22.148185	0.000470	20.775353
172.050065	-3.000800	3.850200	-11.553000	22.162123	0.000471	20.780299
173.046940	-3.006300	3.849500	-11.572000	22.185675	0.000471	20.775904
174.047175	-2.987400	3.849900	-11.499000	22.166258	0.000471	20.786335
175.048718	-3.019500	3.849600	-11.623000	22.159999	0.000470	20.753516
176.048179	-3.009500	3.848700	-11.581000	22.193791	0.000473	20.788297
177.047648	-3.020500	3.848300	-11.623000	22.211557	0.000474	20.770523
178.050336	-3.016100	3.849100	-11.608000	22.243567	0.000470	20.781236
179.049995	-3.011900	3.848900	-11.591000	22.252054	0.000472	20.755120
180.046289	-2.999500	3.848400	-11.542000	22.240700	0.000472	20.746122
181.054459	-2.988000	3.848700	-11.499000	22.264417	0.000470	20.765603
182.051739	-2.980300	3.848400	-11.469000	22.293380	0.000472	20.763309
183.049168	-2.980000	3.849100	-11.469000	22.268898	0.000474	20.776727
184.046551	-3.014800	3.848100	-11.600000	22.263955	0.000474	20.776046
185.050558	-2.998800	3.846500	-11.534000	22.309418	0.000472	20.751866
186.049795	-2.998100	3.847500	-11.534000	22.289453	0.000474	20.764118
187.046821	-3.014700	3.846900	-11.596000	22.289850	0.000474	20.750291
188.048855	-3.015400	3.846100	-11.596000	22.300741	0.000473	20.775896
189.050857	-3.002200	3.846800	-11.548000	22.296596	0.000475	20.753252
190.049466	-2.988700	3.846400	-11.495000	22.295751	0.000476	20.763312
191.049698	-3.000900	3.845800	-11.539000	22.293896	0.000475	20.768568
192.048471	-2.994200	3.845200	-11.513000	22.317828	0.000477	20.793005
193.050028	-2.996200	3.847500	-11.527000	22.326264	0.000476	20.764942
194.050238	-3.003300	3.844500	-11.545000	22.349696	0.000476	20.772284
195.050299	-2.994700	3.846100	-11.517000	22.328657	0.000478	20.740785
196.052329	-2.988400	3.846000	-11.493000	22.339755	0.000478	20.768020
197.056396	-3.013700	3.846000	-11.590000	22.311329	0.000478	20.749987
198.051643	-2.994700	3.844700	-11.513000	22.347394	0.000477	20.770453
199.055124	-3.002000	3.844800	-11.541000	22.344068	0.000478	20.768071
200.054399	-3.005200	3.844800	-11.553000	22.319918	0.000479	20.770442
201.057704	-2.997000	3.845700	-11.525000	22.337132	0.000478	20.774877
202.059814	-3.002900	3.845800	-11.547000	22.347025	0.000478	20.774352
203.058558	-3.002300	3.845100	-11.542000	22.364454	0.000481	20.744862
204.055626	-3.022700	3.843300	-11.617000	22.384075	0.000480	20.764985
205.054326	-2.996800	3.844400	-11.520000	22.386045	0.000480	20.776441
206.058179	-3.000300	3.842600	-11.528000	22.424245	0.000483	20.761589
207.056721	-2.994600	3.844100	-11.511000	22.425960	0.000481	20.750504
208.059049	-3.005400	3.842500	-11.548000	22.440485	0.000482	20.753196
209.062499	-2.992200	3.843100	-11.498000	22.450082	0.000481	20.763281
210.056933	-3.008100	3.842400	-11.557000	22.431373	0.000482	20.760192
211.060120	-2.990900	3.842600	-11.492000	22.453578	0.000483	20.761567
212.061408	-3.012600	3.841800	-11.572000	22.456430	0.000483	20.779122
213.065268	-2.993700	3.841800	-11.501000	22.469483	0.000483	20.764693
214.063289	-3.012800	3.841000	-11.571000	22.477481	0.000484	20.743304
215.058455	-2.994000	3.842700	-11.504000	22.499209	0.000485	20.768384
216.060348	-3.006400	3.841100	-11.548000	22.486440	0.000485	20.750854
217.063155	-3.002700	3.840800	-11.532000	22.533733	0.000486	20.760760
218.058467	-2.994500	3.840500	-11.500000	22.511813	0.000485	20.753506
219.061727	-2.987300	3.842100	-11.476000	22.506773	0.000486	20.755570
220.060146	-3.001000	3.839700	-11.522000	22.531148	0.000486	20.758645
221.058295	-3.004900	3.840300	-11.538000	22.527732	0.000486	20.765181
222.059920	-3.008600	3.841300	-11.556000	22.535168	0.000488	20.746550
223.062830	-3.001500	3.840000	-11.525000	22.530088	0.000488	20.748100
224.058217	-3.023200	3.840100	-11.608000	22.536242	0.000487	20.771808
225.062894	-3.009200	3.839200	-11.552000	22.540656	0.000488	20.757262
226.067604	-2.989300	3.839800	-11.477000	22.557175	0.000491	20.760056
227.060128	-3.015300	3.838600	-11.575000	22.571698	0.000490	20.758955
228.063011	-3.020800	3.839400	-11.597000	22.584776	0.000489	20.754508
229.065475	-3.005000	3.837800	-11.531000	22.602638	0.000487	20.749639
230.066893	-2.983100	3.839000	-11.451000	22.602445	0.000490	20.739962
231.060150	-3.006900	3.837900	-11.539000	22.568206	0.000488	20.771104
232.064484	-2.999000	3.839200	-11.511000	22.587871	0.000489	20.774205
233.073221	-2.990400	3.838400	-11.478000	22.578173	0.000489	20.763543
234.064798	-2.994300	3.838300	-11.492000	22.600500	0.000490	20.759827
235.063732	-3.010500	3.838000	-11.553000	22.588792	0.000490	20.767067
236.062624	-3.003900	3.836400	-11.523000	22.604684	0.000492	20.768759
237.062722	-2.995500	3.836200	-11.491000	22.629851	0.000492	20.767887
238.065362	-2.994300	3.837800	-11.490000	22.625539	0.000490	20.787751
239.061113	-2.981500	3.836100	-11.437000	22.621905	0.000490	20.759455
240.067766	-2.996100	3.837200	-11.495000	22.637629	0.000491	20.762876
241.069600	-2.998700	3.835600	-11.501000	22.616315	0.000493	20.767132
242.062718	-3.006700	3.836000	-11.533000	22.629046	0.000494	20.735786
243.068330	-3.008100	3.835800	-11.537000	22.657537	0.000492	20.766221
244.064010	-3.007500	3.834400	-11.531000	22.636158	0.000495	20.792223
245.068498	-2.980500	3.837200	-11.436000	22.646587	0.000492	20.757623
246.069173	-2.998000	3.835400	-11.497000	22.664729	0.000494	20.800451
247.062222	-2.998300	3.834500	-11.496000	22.690688	0.000495	20.762916
248.068179	-3.014700	3.833500	-11.555000	22.690560	0.000495	20.762788
249.066819	-3.013500	3.834300	-11.554000	22.716224	0.000494	20.778538
250.063906	-3.006600	3.835000	-11.530000	22.722239	0.000496	20.776028
251.065080	-3.005900	3.833400	-11.522000	22.738766	0.000496	20.772195
252.070524	-3.000000	3.834600	-11.503000	22.738537	0.000494	20.782396
253.067405	-2.987400	3.835000	-11.455000	22.770993	0.000497	20.787882
254.067580	-3.028700	3.832500	-11.607000	22.731950	0.000498	20.780066
255.070346	-2.998300	3.833900	-11.494000	22.740597	0.000499	20.765020
256.071161	-3.015400	3.832300	-11.555000	22.734160	0.000496	20.793185
257.068545	-2.983900	3.833000	-11.436000	22.736348	0.000498	20.778782
258.076594	-3.007300	3.831900	-11.522000	22.750971	0.000498	20.774463
259.070161	-3.013800	3.831800	-11.547000	22.782251	0.000499	20.756959
260.074601	-2.994200	3.832700	-11.475000	22.773411	0.000501	20.775605
261.070652	-3.012200	3.831900	-11.541000	22.766504	0.000499	20.789549
262.069623	-3.009500	3.831700	-11.531000	22.791896	0.000501	20.781795
263.070078	-3.022600	3.830600	-11.578000	22.761323	0.000500	20.774875
264.073614	-3.007300	3.830400	-11.518000	22.789621	0.000501	20.785205
265.072363	-2.992200	3.831800	-11.465000	22.792308	0.000501	20.786000
266.071166	-3.000600	3.831300	-11.495000	22.825811	0.000501	20.796803
267.074037	-3.006600	3.830600	-11.515000	22.809027	0.000501	20.774773
268.074365	-2.999400	3.830500	-11.489000	22.800380	0.000502	20.801672
269.071485	-2.981600	3.829700	-11.417000	22.794226	0.000502	20.794560
270.074176	-2.995800	3.829900	-11.473000	22.812009	0.000499	20.764484
271.074119	-2.979200	3.831000	-11.412000	22.842876	0.000502	20.791139
272.071931	-2.990300	3.831000	-11.456000	22.875814	0.000505	20.784782
273.073890	-2.982300	3.831000	-11.425000	22.894286	0.000504	20.781477
274.074896	-2.980000	3.829500	-11.410000	22.910582	0.000505	20.801596
275.071857	-2.994800	3.828500	-11.464000	22.905863	0.000502	20.769367
276.073252	-3.001600	3.829000	-11.491000	22.913549	0.000506	20.788447
277.076858	-2.982700	3.828800	-11.419000	22.887762	0.000505	20.797226
278.076162	-2.967500	3.830000	-11.364000	22.889463	0.000503	20.803197
279.077815	-2.968200	3.829500	-11.365000	22.868244	0.000506	20.783362
280.072104	-2.994200	3.828800	-11.464000	22.887737	0.000504	20.789614
281.070535	-3.014200	3.826600	-11.532000	22.906784	0.000505	20.778825
282.074613	-2.992300	3.828900	-11.456000	22.916134	0.000506	20.796252
283.072242	-2.995500	3.826900	-11.461000	22.895196	0.000507	20.809415
284.076028	-2.996100	3.826800	-11.464000	22.915162	0.000506	20.805710
285.077598	-3.005500	3.826100	-11.498000	22.923284	0.000508	20.791088
286.074216	-2.994800	3.825500	-11.455000	22.940820	0.000506	20.794432
287.076719	-3.018700	3.825100	-11.546000	22.943124	0.000505	20.790577
288.078635	-3.007900	3.825700	-11.506000	22.933492	0.000508	20.801789
289.082103	-2.991200	3.825900	-11.442000	22.936510	0.000509	20.798175
290.080311	-3.003300	3.825800	-11.490000	22.943212	0.000507	20.781656
291.081945	-3.003700	3.825900	-11.490000	22.948265	0.000507	20.806158
292.079639	-3.009700	3.824600	-11.510000	22.956605	0.000509	20.808350
293.080826	-3.003100	3.825700	-11.488000	22.979088	0.000508	20.826609
294.082106	-3.001800	3.825400	-11.483000	22.973948	0.000510	20.795381
295.078429	-3.016100	3.823600	-11.531000	23.004068	0.000511	20.780514
296.084333	-3.009600	3.824600	-11.509000	22.993515	0.000510	20.787484
297.081364	-3.002900	3.824100	-11.483000	23.002714	0.000510	20.816141
298.079566	-3.001300	3.824200	-11.477000	23.006026	0.000511	20.806658
299.083131	-2.991500	3.824500	-11.440000	23.015990	0.000511	20.797201
300.086829	-2.992800	3.824400	-11.445000	23.028676	0.000512	20.805170
301.079799	-3.000400	3.824100	-11.473000	23.074425	0.000511	20.791267
302.092859	-3.015000	3.822200	-11.524000	23.072853	0.000510	20.820511
303.089312	-2.999200	3.822400	-11.464000	23.078775	0.000513	20.800366
304.083138	-2.978300	3.823900	-11.388000	23.056021	0.000514	20.796533
305.084848	-3.011600	3.822600	-11.510000	23.076704	0.000513	20.804929
306.085699	-3.015200	3.822300	-11.524000	23.088315	0.000514	20.793331
307.090306	-3.013200	3.822400	-11.516000	23.073926	0.000515	20.803569
308.082675	-2.992400	3.822700	-11.438000	23.109479	0.000513	20.808373
309.085472	-3.010300	3.822300	-11.505000	23.121974	0.000515	20.800979
310.081540	-3.006800	3.821800	-11.491000	23.133010	0.000517	20.814883
311.092290	-3.015800	3.820900	-11.522000	23.124031	0.000516	20.815368
312.091352	-2.998900	3.820000	-11.455000	23.103709	0.000515	20.812075
313.084359	-3.008200	3.819400	-11.489000	23.134863	0.000515	20.809628
314.086316	-2.991600	3.821700	-11.432000	23.157434	0.000516	20.816598
315.088989	-3.008300	3.820200	-11.491000	23.161336	0.000518	20.826671
316.085612	-3.001000	3.819800	-11.463000	23.175800	0.000517	20.831208
317.091371	-3.016600	3.817400	-11.515000	23.145681	0.000515	20.822364
318.094476	-2.972900	3.818800	-11.352000	23.159429	0.000517	20.820019
319.089889	-3.002400	3.818700	-11.464000	23.180350	0.000518	20.840509
320.091240	-2.992100	3.819300	-11.426000	23.157740	0.000518	20.830654
321.090704	-2.989500	3.818500	-11.414000	23.158686	0.000517	20.833025
322.086866	-2.988300	3.818700	-11.411000	23.142380	0.000515	20.816685
323.091239	-2.983800	3.817700	-11.390000	23.154657	0.000519	20.824720
324.101192	-2.986900	3.818100	-11.403000	23.183378	0.000518	20.835958
325.088701	-3.018900	3.817500	-11.523000	23.213635	0.000518	20.823130
326.099187	-3.005100	3.817100	-11.471000	23.244247	0.000520	20.813505
327.095042	-3.014800	3.817800	-11.508000	23.239428	0.000519	20.823375
328.089530	-3.023000	3.817100	-11.538000	23.253084	0.000519	20.825680
329.091378	-2.997600	3.817000	-11.441000	23.241383	0.000520	20.813954
330.093392	-3.008200	3.816300	-11.479000	23.264246	0.000520	20.827383
331.090667	-3.001200	3.817400	-11.455000	23.251562	0.000519	20.831741
332.097241	-3.006000	3.816100	-11.470000	23.241292	0.000520	20.844682
333.090563	-3.014300	3.816100	-11.501000	23.271816	0.000520	20.806521
334.088936	-2.994300	3.816100	-11.425000	23.248403	0.000521	20.840903
335.091714	-3.010500	3.813800	-11.480000	23.270229	0.000520	20.834802
336.101056	-2.999800	3.815600	-11.445000	23.264719	0.000523	20.843978
337.091704	-3.017600	3.814500	-11.509000	23.248939	0.000523	20.828638
338.096282	-2.993500	3.814700	-11.419000	23.270000	0.000521	20.847374
339.092277	-2.991300	3.814900	-11.410000	23.267955	0.000524	20.832522
340.095312	-2.995200	3.814400	-11.424000	23.311008	0.000522	20.837738
341.095330	-2.988600	3.813600	-11.396000	23.304639	0.000521	20.835622
342.098727	-2.989700	3.813600	-11.400000	23.322501	0.000523	20.845937
343.090899	-3.006500	3.813600	-11.465000	23.306532	0.000522	20.861226
344.094032	-2.997500	3.814000	-11.431000	23.308552	0.000523	20.840491
345.097399	-3.009900	3.812700	-11.475000	23.314651	0.000522	20.842337
346.091340	-2.992700	3.813300	-11.411000	23.325507	0.000522	20.849423
347.098310	-3.025300	3.810700	-11.527000	23.359762	0.000524	20.838711
348.099186	-3.025700	3.812100	-11.533000	23.357408	0.000525	20.866222
349.092680	-3.006200	3.812000	-11.458000	23.381473	0.000524	20.851936
350.099206	-3.003100	3.811900	-11.446000	23.390141	0.000524	20.848296
351.097622	-3.001700	3.810900	-11.437000	23.368009	0.000527	20.838442
352.093352	-3.008700	3.810700	-11.465000	23.396917	0.000525	20.834700
353.096718	-2.961400	3.811800	-11.287000	23.437626	0.000526	20.851320
354.099004	-3.017200	3.811400	-11.499000	23.419639	0.000526	20.850360
355.105362	-3.025700	3.810800	-11.530000	23.395960	0.000525	20.841800
356.108378	-2.977700	3.809700	-11.343000	23.390232	0.000528	20.862611
357.101048	-3.011500	3.810600	-11.475000	23.418285	0.000525	20.853745
358.099999	-3.000700	3.809900	-11.431000	23.434099	0.000527	20.858216
359.101239	-3.012600	3.810700	-11.480000	23.434482	0.000527	20.858125
360.100408	-3.006200	3.810800	-11.455000	23.426647	0.000527	20.850273
361.113619	-2.997700	3.808800	-11.417000	23.405487	0.000527	20.851349
362.103198	-2.984200	3.810400	-11.370000	23.394977	0.000527	20.852195
363.106350	-2.985100	3.809500	-11.371000	23.418055	0.000527	20.848774
364.099698	-2.980700	3.808300	-11.351000	23.460797	0.000526	20.864113
365.103751	-2.989300	3.809500	-11.387000	23.453815	0.000530	20.854270
366.103270	-3.000400	3.808400	-11.426000	23.426265	0.000528	20.848467
367.102100	-3.018000	3.807900	-11.491000	23.437338	0.000526	20.854824
368.111304	-3.000500	3.807400	-11.424000	23.464480	0.000530	20.856425
369.108323	-2.982900	3.807600	-11.356000	23.480064	0.000530	20.863986
370.105144	-3.010900	3.806900	-11.461000	23.488885	0.000531	20.861922
371.107524	-3.008000	3.805800	-11.447000	23.479911	0.000531	20.852453
372.106898	-3.021500	3.804700	-11.495000	23.470938	0.000528	20.855312
373.103422	-2.985400	3.806900	-11.364000	23.463355	0.000528	20.852927
374.107743	-3.016500	3.807200	-11.483000	23.444448	0.000530	20.865269
375.106717	-2.993800	3.806100	-11.394000	23.471462	0.000529	20.874329
376.106572	-2.993800	3.804500	-11.389000	23.476742	0.000532	20.856863
377.109007	-3.001600	3.804900	-11.419000	23.491584	0.000531	20.838550
378.111603	-2.991300	3.805800	-11.384000	23.514828	0.000532	20.882710
379.109902	-3.007200	3.803600	-11.437000	23.526308	0.000532	20.879518
380.109815	-3.002200	3.804600	-11.421000	23.493043	0.000531	20.886477
381.110023	-3.002900	3.804200	-11.423000	23.506452	0.000533	20.885219
382.105635	-3.017900	3.803700	-11.478000	23.540269	0.000532	20.857005
383.108515	-2.991900	3.804500	-11.382000	23.527407	0.000532	20.865922
384.113864	-2.991300	3.803800	-11.378000	23.536536	0.000532	20.879814
385.113441	-2.998300	3.803800	-11.405000	23.543234	0.000533	20.901226
386.110101	-3.015300	3.801400	-11.462000	23.544104	0.000533	20.858952
387.114811	-2.997100	3.802500	-11.396000	23.588885	0.000535	20.889143
388.111403	-3.018900	3.803200	-11.480000	23.563024	0.000531	20.881710
389.110826	-3.009200	3.802300	-11.441000	23.548896	0.000533	20.883669
390.117466	-3.000500	3.801800	-11.407000	23.586750	0.000533	20.882735
391.113771	-2.989200	3.801800	-11.363000	23.615460	0.000532	20.885438
392.115178	-3.023400	3.800700	-11.490000	23.591480	0.000536	20.906915
393.118905	-2.990600	3.800700	-11.366000	23.620164	0.000536	20.896317
394.116129	-3.002400	3.801400	-11.412000	23.638021	0.000535	20.897148
395.116587	-3.009800	3.801400	-11.441000	23.607048	0.000538	20.886488
396.118898	-2.972200	3.800100	-11.293000	23.614474	0.000534	20.883501
397.113418	-2.997200	3.799400	-11.387000	23.582569	0.000534	20.889449
398.117488	-2.987200	3.800200	-11.351000	23.576828	0.000537	20.909297
399.117914	-2.971100	3.800000	-11.288000	23.567099	0.000536	20.879632
400.114998	-3.015600	3.800500	-11.460000	23.626709	0.000534	20.892447
401.119486	-3.001400	3.799300	-11.402000	23.646611	0.000536	20.895803
402.113889	-3.017700	3.798300	-11.462000	23.658715	0.000539	20.903669
403.115226	-2.993700	3.799600	-11.374000	23.679474	0.000535	20.878964
404.114739	-3.011400	3.798200	-11.437000	23.660887	0.000536	20.896839
405.120648	-3.002500	3.798000	-11.402000	23.690748	0.000535	20.926773
406.115227	-2.992900	3.798800	-11.369000	23.678503	0.000537	20.879413
407.120272	-3.023600	3.797600	-11.481000	23.659021	0.000536	20.899235
408.119614	-3.003100	3.797100	-11.402000	23.675268	0.000537	20.901299
409.116776	-2.995000	3.796300	-11.369000	23.673478	0.000538	20.901875
410.117634	-2.988800	3.797200	-11.348000	23.672416	0.000540	20.906974
411.119674	-3.003700	3.795600	-11.400000	23.677760	0.000536	20.906642
412.118169	-3.013300	3.794600	-11.433000	23.654011	0.000537	20.911755
413.119278	-3.012200	3.794300	-11.428000	23.655645	0.000539	20.921927
414.120344	-3.000100	3.795800	-11.387000	23.685492	0.000538	20.907280
415.117324	-3.003400	3.794900	-11.397000	23.713613	0.000539	20.912240
416.120246	-3.010200	3.794800	-11.423000	23.706341	0.000537	20.898786
417.121053	-2.985700	3.795700	-11.332000	23.714661	0.000542	20.912342
418.120055	-2.976200	3.794500	-11.291000	23.718728	0.000538	20.915945
419.122690	-2.990100	3.794300	-11.344000	23.736532	0.000541	20.922889
420.121593	-3.006700	3.793200	-11.405000	23.744623	0.000541	20.889278
421.118781	-2.981600	3.793800	-11.311000	23.769815	0.000540	20.921646
422.123551	-3.001000	3.793400	-11.384000	23.746424	0.000540	20.927590
423.124187	-3.004600	3.793800	-11.397000	23.743204	0.000539	20.903028
424.124498	-3.002500	3.793900	-11.390000	23.739803	0.000540	20.922375
425.122829	-3.012500	3.792800	-11.424000	23.766261	0.000540	20.910023
426.123258	-3.018500	3.791700	-11.444000	23.763998	0.000541	20.927667
427.119697	-3.016900	3.793100	-11.441000	23.778414	0.000541	20.933586
428.120594	-3.030100	3.792400	-11.490000	23.784486	0.000543	20.929242
429.125856	-2.983100	3.793000	-11.314000	23.810877	0.000540	20.933892
430.121347	-3.004400	3.792100	-11.392000	23.799604	0.000541	20.932547
431.119827	-2.995400	3.792400	-11.359000	23.826726	0.000541	20.926551
432.123280	-2.995200	3.790400	-11.352000	23.851123	0.000541	20.910712
433.124395	-2.985500	3.791600	-11.318000	23.865015	0.000542	20.936493
434.123178	-3.015000	3.792000	-11.431000	23.857780	0.000541	20.932558
435.121474	-2.994100	3.791100	-11.350000	23.870573	0.000541	20.930213
436.125112	-3.019800	3.790200	-11.445000	23.853193	0.000539	20.932226
437.129018	-2.995000	3.790700	-11.353000	23.844220	0.000544	20.933185
438.123106	-3.025500	3.789000	-11.462000	23.833140	0.000542	20.911646
439.126771	-3.014700	3.789000	-11.422000	23.820026	0.000542	20.938324
440.126770	-3.004100	3.790000	-11.385000	23.824857	0.000542	20.944589
441.126586	-3.009000	3.788700	-11.399000	23.838047	0.000541	20.934108
442.126341	-2.997800	3.788300	-11.356000	23.817073	0.000541	20.960015
443.127972	-3.019800	3.786900	-11.435000	23.822184	0.000543	20.933849
444.126877	-2.987100	3.787900	-11.314000	23.839836	0.000543	20.940169
445.130075	-2.996300	3.788000	-11.349000	23.849920	0.000541	20.928944
446.128460	-2.985300	3.787700	-11.307000	23.854456	0.000542	20.951507
447.126695	-3.022300	3.786100	-11.441000	23.875044	0.000544	20.921895
448.128763	-2.997900	3.787400	-11.352000	23.890776	0.000543	20.920600
449.129267	-3.006200	3.786200	-11.382000	23.901204	0.000542	20.935797
450.125154	-3.007800	3.785800	-11.386000	23.926214	0.000543	20.924367
451.128527	-2.989500	3.786700	-11.319000	23.948016	0.000543	20.941960
452.126964	-2.998800	3.786100	-11.352000	23.928538	0.000544	20.931913
453.124990	-3.011800	3.785700	-11.400000	23.941370	0.000544	20.938142
454.130107	-2.998500	3.784800	-11.348000	23.928105	0.000542	20.931005
455.130198	-3.000400	3.785500	-11.357000	23.921253	0.000545	20.921290
456.126732	-2.999700	3.784400	-11.351000	23.950584	0.000546	20.918459
457.131027	-3.008800	3.784600	-11.385000	23.971042	0.000546	20.914320
458.126836	-2.993300	3.783900	-11.326000	23.966954	0.000545	20.915436
459.126242	-3.023100	3.783100	-11.436000	23.973778	0.000545	20.914218
460.131308	-3.012300	3.782100	-11.392000	23.978531	0.000545	20.918511
461.129669	-3.008200	3.783300	-11.380000	23.976487	0.000545	20.902712
462.124217	-3.018800	3.783200	-11.419000	23.931299	0.000545	20.911924
463.130792	-2.988200	3.781900	-11.300000	23.945688	0.000545	20.914025
464.132527	-3.008700	3.781800	-11.377000	23.959222	0.000545	20.920009
465.128870	-2.970800	3.783100	-11.237000	23.977931	0.000545	20.916961
466.129767	-2.983000	3.782600	-11.282000	23.985595	0.000544	20.895251
467.126716	-2.986600	3.782200	-11.295000	23.972741	0.000546	20.894689
468.127873	-2.999500	3.781600	-11.342000	23.986351	0.000544	20.882734
469.131160	-3.001000	3.781100	-11.346000	24.007090	0.000546	20.910641
470.127850	-2.987700	3.780900	-11.295000	24.011948	0.000544	20.894178
471.127295	-3.015700	3.780000	-11.398000	23.978608	0.000548	20.885874
472.129918	-2.981400	3.780800	-11.272000	23.998542	0.000547	20.902070
473.133971	-2.999700	3.780900	-11.341000	24.055776	0.000548	20.895458
474.135598	-3.004700	3.780100	-11.358000	24.050423	0.000548	20.897201
475.131131	-3.025800	3.780500	-11.438000	24.072950	0.000547	20.890870
476.130082	-3.016300	3.778000	-11.395000	24.031791	0.000545	20.875673
477.130383	-3.006200	3.779900	-11.362000	24.061795	0.000547	20.880159
478.136451	-3.011600	3.778500	-11.378000	24.053500	0.000547	20.890331
479.135489	-2.985200	3.778700	-11.279000	24.022335	0.000549	20.897956
480.136851	-3.013600	3.779500	-11.389000	24.002387	0.000548	20.888383
481.140831	-2.974400	3.778800	-11.238000	24.030857	0.000549	20.877106
482.130752	-3.010300	3.777600	-11.370000	24.046445	0.000548	20.890367
483.135245	-2.980200	3.779900	-11.263000	24.065651	0.000546	20.915316
484.136390	-2.989800	3.778800	-11.297000	24.055377	0.000547	20.879412
485.131502	-3.004000	3.775600	-11.341000	24.088726	0.000548	20.881563
486.135497	-2.979300	3.776100	-11.249000	24.116620	0.000546	20.903373
487.137714	-3.017400	3.775500	-11.391000	24.122013	0.000547	20.880808
488.137200	-3.003700	3.776000	-11.341000	24.108084	0.000546	20.882012
489.137650	-3.010300	3.776200	-11.366000	24.099676	0.000548	20.876425
490.135674	-3.015700	3.775800	-11.385000	24.061189	0.000546	20.881921
491.139062	-3.001300	3.774800	-11.329000	24.059400	0.000547	20.889135
492.138498	-3.013900	3.774400	-11.375000	24.060461	0.000548	20.881192
493.136135	-2.985000	3.775900	-11.270000	24.096098	0.000547	20.885163
494.135127	-3.009600	3.774600	-11.360000	24.114638	0.000548	20.881947
495.139997	-3.006300	3.774500	-11.346000	24.113001	0.000546	20.867030
496.137010	-2.982900	3.774700	-11.259000	24.140588	0.000547	20.884740
497.135896	-3.001400	3.774300	-11.327000	24.123824	0.000548	20.869824
498.138090	-2.987200	3.773500	-11.271000	24.135235	0.000548	20.893121
499.137667	-2.992500	3.774300	-11.294000	24.158706	0.000549	20.867351
500.134983	-2.992300	3.772700	-11.287000	24.176746	0.000548	20.873591
501.137840	-2.997400	3.773400	-11.309000	24.175404	0.000548	20.873194
502.137099	-2.993800	3.773300	-11.296000	24.138225	0.000548	20.886163
503.135271	-3.003800	3.771800	-11.329000	24.172659	0.000549	20.870914
504.140186	-2.992400	3.771600	-11.285000	24.153825	0.000549	20.880473
505.138091	-3.008500	3.771100	-11.344000	24.160611	0.000548	20.857883
506.134875	-2.992100	3.772300	-11.286000	24.140436	0.000548	20.878423
507.139915	-2.997200	3.772600	-11.306000	24.126624	0.000547	20.871209
508.140259	-2.998600	3.772000	-11.310000	24.153225	0.000547	20.872285
509.137302	-3.009100	3.771100	-11.347000	24.146352	0.000548	20.871082
510.139486	-2.991000	3.770400	-11.276000	24.183186	0.000550	20.866775
511.141378	-2.982900	3.770700	-11.247000	24.214630	0.000549	20.845683
512.138777	-2.993600	3.769900	-11.285000	24.244079	0.000549	20.862420
513.138681	-2.990400	3.769800	-11.273000	24.239276	0.000547	20.869455
514.137250	-3.002300	3.768100	-11.313000	24.276721	0.000548	20.872876
515.137418	-2.990400	3.769500	-11.271000	24.249228	0.000548	20.856679
516.137624	-2.984000	3.770200	-11.249000	24.242508	0.000548	20.849939
517.143875	-3.011200	3.767300	-11.343000	24.238458	0.000549	20.877169
518.140184	-2.997800	3.768700	-11.297000	24.213928	0.000548	20.849720
519.142556	-2.991500	3.767800	-11.270000	24.182306	0.000548	20.859728
520.142205	-3.016000	3.767800	-11.363000	24.188568	0.000548	20.862690
521.142560	-3.009800	3.767000	-11.337000	24.209444	0.000547	20.872249
522.141436	-2.996300	3.766500	-11.284000	24.175371	0.000549	20.841394
523.143727	-2.993100	3.767000	-11.274000	24.208295	0.000548	20.869674
524.137293	-2.983900	3.767300	-11.240000	24.230028	0.000548	20.852594
525.142076	-2.985000	3.768200	-11.248000	24.253573	0.000549	20.850132
526.142756	-2.985100	3.767100	-11.244000	24.201436	0.000549	20.856157
527.140294	-2.967500	3.767000	-11.178000	24.216589	0.000550	20.859976
528.143261	-2.996300	3.765700	-11.282000	24.240952	0.000547	20.855016
529.143376	-2.998300	3.764400	-11.286000	24.219283	0.000549	20.846084
530.139452	-2.994500	3.766100	-11.276000	24.200796	0.000548	20.851248
531.139284	-2.984400	3.765100	-11.235000	24.255158	0.000548	20.863575
532.141698	-3.029400	3.764400	-11.403000	24.246457	0.000550	20.850581
533.143826	-3.009000	3.765500	-11.329000	24.227116	0.000550	20.850147
534.140964	-2.997400	3.764900	-11.284000	24.236021	0.000550	20.850544
535.141113	-3.028200	3.764000	-11.397000	24.254456	0.000550	20.834898
536.143066	-3.020000	3.762900	-11.363000	24.269634	0.000551	20.855336
537.143994	-3.021500	3.763100	-11.370000	24.303311	0.000552	20.853556
538.145166	-3.004600	3.763300	-11.306000	24.287916	0.000552	20.853761
539.145486	-3.011800	3.762900	-11.332000	24.271448	0.000551	20.840088
540.144703	-2.997700	3.762900	-11.279000	24.268499	0.000549	20.848509
541.144851	-3.010200	3.762000	-11.323000	24.290828	0.000549	20.850044
542.146480	-2.979700	3.763300	-11.212000	24.295235	0.000550	20.862999
543.145837	-2.986900	3.762700	-11.238000	24.305674	0.000552	20.841703
544.142155	-2.989800	3.762400	-11.248000	24.330904	0.000547	20.840460
545.147563	-3.021500	3.761000	-11.363000	24.314321	0.000549	20.847532
546.147249	-3.019700	3.761000	-11.356000	24.299784	0.000549	20.837691
547.141856	-3.019800	3.761600	-11.358000	24.302173	0.000549	20.851467
548.146309	-3.000000	3.761900	-11.285000	24.333177	0.000550	20.839420
549.151268	-3.001800	3.760300	-11.287000	24.345186	0.000550	20.843881
550.143461	-2.988100	3.761300	-11.238000	24.356632	0.000548	20.835923
551.147529	-2.974400	3.760500	-11.184000	24.360504	0.000549	20.830798
552.148756	-3.006400	3.758700	-11.299000	24.367401	0.000547	20.844355
553.144456	-3.005700	3.760200	-11.301000	24.322269	0.000549	20.827530
554.150259	-3.018700	3.758000	-11.344000	24.344073	0.000548	20.826170
555.148771	-2.976600	3.759700	-11.190000	24.341506	0.000551	20.840664
556.152944	-2.990800	3.758400	-11.240000	24.339463	0.000551	20.838614
557.149427	-3.038500	3.757100	-11.414000	24.302071	0.000547	20.850891
558.152249	-3.021200	3.758100	-11.353000	24.314935	0.000547	20.833924
559.150006	-3.007100	3.756700	-11.296000	24.311179	0.000547	20.846277
560.152475	-2.978000	3.757900	-11.190000	24.355853	0.000547	20.833719
561.146852	-3.007800	3.757100	-11.300000	24.353974	0.000548	20.842265
562.162711	-2.986800	3.757200	-11.221000	24.365728	0.000548	20.850263
563.154563	-2.999200	3.757700	-11.269000	24.375192	0.000550	20.824671
564.147606	-2.992800	3.755800	-11.240000	24.341954	0.000549	20.850121
565.151043	-3.001600	3.756700	-11.275000	24.362354	0.000547	20.832181
566.153276	-3.009600	3.756200	-11.304000	24.379817	0.000547	20.834052
567.145679	-3.008400	3.754900	-11.294000	24.368372	0.000548	20.831579
568.149368	-3.009700	3.755300	-11.302000	24.398992	0.000548	20.830528
569.152475	-3.002000	3.756100	-11.274000	24.404881	0.000548	20.846393
570.146893	-3.003200	3.755100	-11.277000	24.381362	0.000547	20.837024
571.151588	-2.999700	3.754700	-11.262000	24.376050	0.000545	20.831221
572.151184	-3.006200	3.754200	-11.285000	24.362867	0.000547	20.823212
573.157151	-2.993200	3.753500	-11.234000	24.381914	0.000549	20.814345
574.150589	-3.002100	3.753700	-11.268000	24.360235	0.000546	20.833373
575.151906	-3.006600	3.753300	-11.284000	24.377828	0.000547	20.823047
576.153324	-2.969800	3.755100	-11.151000	24.370662	0.000545	20.838617
577.151335	-2.962900	3.753400	-11.119000	24.409189	0.000546	20.833172
578.152738	-3.014700	3.753900	-11.316000	24.430687	0.000548	20.842884
579.151707	-3.001000	3.752700	-11.261000	24.446156	0.000548	20.828058
580.162525	-2.985900	3.753600	-11.207000	24.424593	0.000547	20.824444
581.152892	-2.990700	3.753100	-11.223000	24.419231	0.000548	20.846564
582.154048	-2.991700	3.751600	-11.223000	24.384193	0.000547	20.821847
583.152720	-2.977600	3.750300	-11.166000	24.421314	0.000548	20.822576
584.153245	-2.992600	3.751700	-11.227000	24.448715	0.000549	20.814031
585.150647	-3.012300	3.750500	-11.296000	24.439353	0.000547	20.839725
586.153183	-2.993200	3.751800	-11.229000	24.419528	0.000546	20.822682
587.155253	-3.004500	3.750300	-11.267000	24.414853	0.000545	20.821310
588.151625	-3.006300	3.750800	-11.275000	24.406130	0.000545	20.828681
589.154534	-3.039000	3.749800	-11.395000	24.435844	0.000545	20.825774
590.153979	-3.008600	3.749500	-11.279000	24.465837	0.000546	20.832631
591.150988	-3.003000	3.750200	-11.262000	24.494768	0.000545	20.820405
592.151577	-3.008800	3.750100	-11.282000	24.509407	0.000546	20.804747
593.155278	-2.995300	3.750300	-11.232000	24.532564	0.000544	20.808066
594.151776	-3.012500	3.749700	-11.296000	24.515205	0.000546	20.848970
595.172831	-3.031300	3.747100	-11.358000	24.495894	0.000546	20.819165
596.162898	-3.030200	3.746800	-11.352000	24.500275	0.000545	20.815499
597.153902	-2.990900	3.747000	-11.206000	24.477426	0.000546	20.814861
598.156668	-2.988400	3.748600	-11.201000	24.493749	0.000546	20.822228
599.160960	-2.999400	3.747100	-11.238000	24.488372	0.000545	20.813515
600.156276	-3.002100	3.748300	-11.252000	24.506167	0.000548	20.819989
601.158871	-3.003000	3.746500	-11.250000	24.536795	0.000546	20.827010
602.160090	-3.012600	3.746100	-11.284000	24.526245	0.000546	20.806942
603.156692	-2.985000	3.747000	-11.183000	24.548751	0.000546	20.829523
604.161930	-2.994500	3.746900	-11.219000	24.562034	0.000547	20.820565
605.161580	-3.010400	3.745400	-11.275000	24.528481	0.000545	20.801599
606.160627	-3.006500	3.745200	-11.260000	24.465945	0.000546	20.816618
607.160992	-2.976800	3.745600	-11.149000	24.452279	0.000545	20.820926
608.164077	-2.993400	3.745600	-11.211000	24.457707	0.000547	20.817837
609.159003	-2.997200	3.744600	-11.222000	24.450349	0.000545	20.809032
610.161319	-3.013400	3.744000	-11.281000	24.467607	0.000543	20.807854
611.162874	-3.001200	3.745100	-11.238000	24.447513	0.000545	20.804291
612.159480	-3.001100	3.744400	-11.236000	24.471693	0.000545	20.795833
613.162772	-2.988700	3.745100	-11.192000	24.464055	0.000546	20.808084
614.164166	-3.008200	3.743800	-11.261000	24.491837	0.000547	20.819361
615.159218	-3.009900	3.743500	-11.266000	24.505044	0.000545	20.796102
616.163104	-3.030600	3.741400	-11.338000	24.510599	0.000544	20.808314
617.166912	-2.972900	3.743700	-11.129000	24.502259	0.000545	20.789989
618.159665	-3.023400	3.741700	-11.312000	24.491557	0.000545	20.802011
619.164149	-3.008400	3.742000	-11.257000	24.495617	0.000544	20.808930
620.167992	-2.979800	3.742800	-11.152000	24.503179	0.000544	20.790912
621.158496	-3.016400	3.742100	-11.286000	24.516960	0.000545	20.818490
622.162724	-3.017400	3.741100	-11.287000	24.525620	0.000544	20.812953
623.163011	-3.005600	3.740800	-11.243000	24.521763	0.000545	20.810506
624.160613	-2.991100	3.741600	-11.189000	24.553247	0.000546	20.814594
625.165987	-2.985800	3.741400	-11.170000	24.556748	0.000544	20.790132
626.165291	-2.970800	3.741600	-11.114000	24.557948	0.000542	20.795129
627.161415	-3.002400	3.740100	-11.227000	24.547475	0.000542	20.776560
628.163639	-3.005400	3.740700	-11.242000	24.550423	0.000543	20.791846
629.165521	-2.974500	3.740800	-11.126000	24.558293	0.000543	20.791682
630.165708	-2.979100	3.739500	-11.139000	24.553734	0.000543	20.799910
631.162888	-2.994800	3.739500	-11.198000	24.568766	0.000542	20.797448
632.165015	-3.011600	3.738600	-11.257000	24.617810	0.000540	20.793079
633.165345	-3.015300	3.737900	-11.269000	24.578348	0.000543	20.790941
634.164941	-3.020200	3.739500	-11.294000	24.568755	0.000542	20.796489
635.164100	-3.024500	3.738300	-11.306000	24.519556	0.000541	20.793593
636.160458	-3.009100	3.737600	-11.246000	24.543338	0.000540	20.795643
637.164203	-3.021900	3.738300	-11.296000	24.543788	0.000541	20.789930
638.163093	-2.990800	3.738000	-11.179000	24.562509	0.000543	20.798283
639.161883	-2.989800	3.738300	-11.176000	24.597621	0.000540	20.798425
640.165339	-2.970600	3.737100	-11.100000	24.579791	0.000540	20.791441
641.166539	-2.999800	3.737600	-11.211000	24.590481	0.000540	20.795529
642.163865	-2.991600	3.737500	-11.180000	24.591517	0.000542	20.792775
643.169287	-3.014100	3.735100	-11.257000	24.612629	0.000540	20.777923
644.165261	-3.002000	3.737000	-11.218000	24.615552	0.000540	20.804564
645.167193	-3.001800	3.735800	-11.214000	24.594058	0.000542	20.795799
646.167163	-2.996900	3.735200	-11.193000	24.583164	0.000541	20.809050
647.172001	-3.004300	3.735200	-11.221000	24.597762	0.000541	20.792878
648.166336	-3.003400	3.735400	-11.218000	24.606933	0.000540	20.788803
649.171801	-3.027200	3.735200	-11.307000	24.628580	0.000539	20.784919
650.171091	-2.992400	3.734200	-11.173000	24.653653	0.000541	20.769301
651.169430	-2.982600	3.734400	-11.137000	24.649756	0.000541	20.805220
652.173151	-3.002800	3.734000	-11.211000	24.633832	0.000541	20.787344
653.171288	-3.014700	3.733400	-11.253000	24.615312	0.000541	20.775873
654.170319	-2.993900	3.734500	-11.180000	24.582924	0.000540	20.783205
655.172854	-3.016500	3.733900	-11.262000	24.606882	0.000538	20.797761
656.173927	-3.027100	3.732400	-11.297000	24.597035	0.000541	20.752318
657.169507	-3.010800	3.733300	-11.240000	24.588874	0.000539	20.783960
658.175439	-2.996700	3.732700	-11.185000	24.569641	0.000540	20.765609
659.172742	-3.009000	3.732600	-11.231000	24.561822	0.000539	20.779576
660.172748	-2.969600	3.732200	-11.082000	24.577737	0.000540	20.766620
661.174589	-3.003500	3.731900	-11.208000	24.591735	0.000540	20.776399
662.181458	-2.977000	3.733800	-11.114000	24.631633	0.000538	20.793198
663.172935	-2.987400	3.732800	-11.151000	24.624955	0.000539	20.780334
664.173596	-2.999700	3.731200	-11.191000	24.630382	0.000541	20.785780
665.176810	-3.009200	3.731000	-11.227000	24.606166	0.000540	20.753420
666.177356	-3.000000	3.730300	-11.189000	24.589667	0.000538	20.768159
667.177779	-3.015700	3.729000	-11.244000	24.621008	0.000539	20.788701
668.174041	-2.993200	3.729800	-11.162000	24.627216	0.000539	20.762688
669.172746	-2.969500	3.729500	-11.074000	24.629717	0.000538	20.793647
670.177774	-3.011700	3.727600	-11.226000	24.640189	0.000537	20.778551
671.180482	-3.001000	3.728700	-11.189000	24.673063	0.000536	20.754638
672.178350	-3.016300	3.729000	-11.247000	24.689168	0.000538	20.749936
673.180156	-3.001400	3.729500	-11.193000	24.688707	0.000536	20.774604
674.180110	-3.003300	3.728900	-11.198000	24.696383	0.000539	20.766186
675.176548	-3.008600	3.728100	-11.215000	24.681070	0.000538	20.768363
676.177650	-3.006800	3.727800	-11.208000	24.642476	0.000538	20.772310
677.181176	-2.996400	3.728500	-11.170000	24.655554	0.000537	20.763622
678.178425	-2.983000	3.727600	-11.118000	24.636845	0.000535	20.779462
679.183263	-2.995200	3.727700	-11.164000	24.646997	0.000538	20.763571
680.178853	-2.978200	3.727500	-11.100000	24.641545	0.000536	20.767109
681.177504	-2.977600	3.727800	-11.098000	24.651174	0.000535	20.773926
682.177499	-2.991300	3.726400	-11.145000	24.686526	0.000535	20.764829
683.181048	-2.994800	3.727000	-11.160000	24.662591	0.000536	20.781589
684.177092	-2.990600	3.727000	-11.144000	24.695336	0.000536	20.779360
685.182528	-3.012800	3.726900	-11.228000	24.713917	0.000536	20.768134
686.183846	-3.019600	3.725200	-11.248000	24.740006	0.000537	20.762546
687.180026	-3.003500	3.725200	-11.188000	24.746250	0.000536	20.768338
688.177915	-3.009600	3.726100	-11.213000	24.762929	0.000537	20.779386
689.188786	-3.022300	3.725900	-11.260000	24.749470	0.000536	20.763508
690.183922	-3.010100	3.724000	-11.209000	24.757259	0.000536	20.762316
691.184978	-3.002600	3.724000	-11.181000	24.762521	0.000536	20.761433
692.180965	-2.986900	3.725500	-11.127000	24.780003	0.000535	20.750527
693.180330	-3.004800	3.725100	-11.192000	24.777092	0.000535	20.781271
694.183700	-2.992500	3.724400	-11.144000	24.785774	0.000533	20.759164
695.180460	-2.997200	3.723800	-11.160000	24.744029	0.000532	20.788869
696.185144	-2.990700	3.724300	-11.137000	24.720801	0.000533	20.761291
697.180632	-2.981500	3.722900	-11.098000	24.747325	0.000536	20.748554
698.184498	-2.989500	3.722400	-11.127000	24.734248	0.000535	20.758665
699.181122	-3.051000	3.721300	-11.353000	24.712092	0.000534	20.782424
700.185650	-2.995800	3.722500	-11.151000	24.682567	0.000533	20.746157
701.186901	-3.004100	3.721700	-11.180000	24.636579	0.000533	20.758807
702.184708	-2.984400	3.723100	-11.110000	24.661867	0.000532	20.761896
703.184163	-3.006100	3.721400	-11.186000	24.723599	0.000533	20.751771
704.186234	-2.977700	3.722700	-11.084000	24.753162	0.000533	20.756782
705.185517	-2.994600	3.720900	-11.142000	24.752410	0.000531	20.762666
706.187555	-3.003800	3.721100	-11.176000	24.764004	0.000532	20.758179
707.189008	-3.011800	3.720600	-11.205000	24.722629	0.000531	20.762651
708.186280	-3.012600	3.720900	-11.208000	24.773493	0.000530	20.742097
709.187911	-2.999900	3.720400	-11.159000	24.797026	0.000530	20.750542
710.187847	-3.012900	3.720500	-11.208000	24.793006	0.000533	20.756465
711.185575	-3.024500	3.720100	-11.250000	24.824890	0.000532	20.770445
712.192151	-2.994600	3.718800	-11.135000	24.820653	0.000531	20.766192
713.190130	-3.017700	3.718600	-11.221000	24.791615	0.000530	20.762654
714.190292	-2.984200	3.719700	-11.098000	24.752541	0.000532	20.768961
715.188822	-3.024000	3.718300	-11.244000	24.780188	0.000530	20.765886
716.190522	-3.010900	3.717300	-11.191000	24.710667	0.000533	20.746379
717.187210	-3.002200	3.718700	-11.163000	24.718074	0.000531	20.762348
718.187200	-2.996300	3.719100	-11.143000	24.740372	0.000532	20.752956
719.194253	-2.994400	3.718200	-11.133000	24.755161	0.000530	20.745037
720.187865	-2.981700	3.719800	-11.090000	24.783306	0.000530	20.748626
721.188679	-2.993900	3.718000	-11.129000	24.769833	0.000530	20.742217
722.196527	-3.025000	3.716700	-11.242000	24.768314	0.000528	20.744486
723.188602	-3.007700	3.717400	-11.180000	24.762695	0.000529	20.760659
724.192899	-3.006300	3.716300	-11.171000	24.752569	0.000528	20.745281
725.190200	-3.012900	3.716800	-11.197000	24.737526	0.000528	20.751522
726.190452	-3.010500	3.715600	-11.185000	24.755582	0.000529	20.770591
727.193316	-2.993200	3.717100	-11.125000	24.798756	0.000529	20.749432
728.193215	-3.007100	3.715200	-11.170000	24.823465	0.000528	20.772334
729.189672	-3.021300	3.715500	-11.224000	24.834841	0.000528	20.766681
730.194048	-3.003900	3.716000	-11.161000	24.804745	0.000529	20.763030
731.195496	-2.989100	3.715600	-11.106000	24.816902	0.000528	20.751048
732.192640	-3.026400	3.714700	-11.242000	24.834804	0.000528	20.775179
733.191667	-3.007700	3.713700	-11.169000	24.821805	0.000529	20.765926
734.195610	-2.987700	3.714200	-11.096000	24.847382	0.000526	20.783535
735.191343	-3.011700	3.713200	-11.182000	24.824498	0.000528	20.753930
736.193806	-2.963900	3.715400	-11.011000	24.781467	0.000527	20.778550
737.195150	-3.001300	3.713600	-11.144000	24.781391	0.000528	20.779895
738.192665	-3.003900	3.712100	-11.149000	24.785512	0.000527	20.750840
739.195236	-2.991100	3.713900	-11.108000	24.811105	0.000529	20.752343
740.194337	-3.013300	3.712600	-11.186000	24.793112	0.000527	20.793555
741.192964	-2.996400	3.712200	-11.123000	24.825533	0.000526	20.800488
742.192224	-2.996300	3.713100	-11.125000	24.794951	0.000525	20.776434
743.193867	-2.999200	3.712700	-11.134000	24.804807	0.000528	20.774946
744.190717	-3.001200	3.711500	-11.138000	24.754481	0.000526	20.765219
745.195577	-2.986600	3.711200	-11.083000	24.752566	0.000525	20.779418
746.191123	-3.002200	3.712700	-11.144000	24.770495	0.000525	20.764693
747.193128	-2.987600	3.713100	-11.093000	24.794642	0.000523	20.771857
748.195229	-2.969800	3.711700	-11.021000	24.759730	0.000523	20.771908
749.192701	-3.006900	3.711500	-11.159000	24.761605	0.000523	20.769523
750.193454	-2.988600	3.711200	-11.091000	24.795394	0.000524	20.776879
751.196514	-3.006900	3.711000	-11.157000	24.838988	0.000522	20.774162
752.197169	-3.004100	3.711900	-11.150000	24.829335	0.000521	20.752620
753.194067	-3.004300	3.709800	-11.144000	24.862712	0.000524	20.764781
754.198055	-2.999700	3.709800	-11.128000	24.897250	0.000524	20.770996
755.194158	-2.994800	3.710400	-11.110000	24.908232	0.000523	20.777751
756.195980	-3.010200	3.708500	-11.162000	24.872084	0.000522	20.779878
757.195987	-2.994600	3.709300	-11.107000	24.853404	0.000522	20.764923
758.209827	-3.013400	3.709000	-11.175000	24.870412	0.000525	20.772984
759.198352	-3.010200	3.709600	-11.165000	24.828274	0.000522	20.799920
760.200634	-2.993400	3.708300	-11.100000	24.862570	0.000521	20.789295
761.201293	-3.002700	3.708200	-11.134000	24.898976	0.000522	20.787902
762.204024	-2.998600	3.708300	-11.119000	24.890189	0.000522	20.753952
763.199906	-3.026700	3.707400	-11.221000	24.876503	0.000521	20.791899
764.203047	-2.998100	3.708300	-11.117000	24.890549	0.000522	20.795565
765.196417	-3.000500	3.707200	-11.123000	24.834903	0.000522	20.783813
766.200353	-3.009100	3.706800	-11.153000	24.831774	0.000522	20.783518
767.206366	-3.001000	3.706900	-11.124000	24.833627	0.000521	20.785378
768.197632	-3.019100	3.704800	-11.184000	24.837163	0.000521	20.809315
769.198139	-3.013900	3.706300	-11.170000	24.860084	0.000523	20.774946
770.201410	-2.987200	3.705400	-11.068000	24.871332	0.000522	20.781019
771.198748	-2.987400	3.706600	-11.072000	24.889960	0.000521	20.783594
772.200991	-2.993700	3.706000	-11.094000	24.882746	0.000519	20.794846
773.202018	-3.012000	3.705300	-11.159000	24.888543	0.000521	20.795448
774.200077	-3.007000	3.705600	-11.142000	24.866197	0.000520	20.796254
775.210896	-3.003400	3.705400	-11.127000	24.894364	0.000519	20.762410
776.203885	-3.013100	3.705500	-11.164000	24.884854	0.000519	20.800281
777.201177	-3.005900	3.704600	-11.135000	24.879810	0.000519	20.814184
778.204628	-2.987700	3.704400	-11.067000	24.898809	0.000521	20.782518
779.203486	-2.985300	3.705600	-11.061000	24.868141	0.000518	20.790145
780.203442	-2.968500	3.703400	-10.992000	24.863518	0.000520	20.788824
781.206254	-2.981000	3.703500	-11.039000	24.830193	0.000519	20.797578
782.206542	-3.010600	3.702700	-11.146000	24.823680	0.000520	20.781559
783.204529	-2.989500	3.704000	-11.072000	24.799123	0.000518	20.807174
784.205307	-3.018700	3.703000	-11.178000	24.811127	0.000518	20.798359
785.207382	-3.006600	3.703400	-11.134000	24.831341	0.000519	20.812481
786.209987	-3.008000	3.702000	-11.135000	24.811600	0.000517	20.794091
787.209283	-3.001600	3.702800	-11.114000	24.793697	0.000519	20.810738
788.209706	-3.034200	3.702100	-11.232000	24.818469	0.000518	20.810468
789.204817	-3.005000	3.701000	-11.121000	24.802892	0.000515	20.799103
790.207969	-3.002600	3.699500	-11.106000	24.784542	0.000518	20.796808
791.211236	-2.989400	3.702400	-11.067000	24.822299	0.000516	20.814312
792.208761	-2.979700	3.701200	-11.028000	24.861498	0.000518	20.820461
793.212353	-2.996300	3.701100	-11.089000	24.887649	0.000516	20.811620
794.212209	-2.990200	3.700700	-11.064000	24.903889	0.000517	20.809903
795.210342	-3.018900	3.699100	-11.165000	24.903032	0.000517	20.806197
796.214111	-2.996400	3.700500	-11.087000	24.920409	0.000515	20.811311
797.211502	-3.001400	3.699400	-11.103000	24.945996	0.000514	20.810913
798.211871	-2.993500	3.699900	-11.076000	24.926805	0.000515	20.818204
799.214501	-2.980900	3.699300	-11.026000	24.879447	0.000514	20.807656
800.214334	-2.988700	3.698700	-11.053000	24.870394	0.000515	20.823226
801.215399	-2.976900	3.700100	-11.013000	24.856069	0.000513	20.810271
802.214743	-2.990600	3.699800	-11.064000	24.869181	0.000516	20.803517
803.209695	-3.011800	3.697900	-11.136000	24.893006	0.000515	20.807988
804.211013	-3.000400	3.697200	-11.092000	24.927122	0.000514	20.844125
805.214257	-2.992800	3.698700	-11.068000	24.921504	0.000513	20.828530
806.214235	-2.996600	3.698800	-11.083000	24.917979	0.000514	20.827363
807.211377	-3.009200	3.695600	-11.120000	24.918553	0.000515	20.821775
808.214540	-2.992600	3.696700	-11.061000	24.907840	0.000514	20.815290
809.216294	-3.013000	3.696200	-11.136000	24.939299	0.000514	20.841649
810.213042	-3.008200	3.696700	-11.119000	24.932635	0.000512	20.817417
811.224421	-3.008600	3.696600	-11.120000	24.939488	0.000511	20.825718
812.217216	-3.015200	3.697200	-11.147000	24.919687	0.000511	20.823387
813.215516	-2.993200	3.696700	-11.064000	24.939935	0.000511	20.817632
814.218028	-3.017500	3.695000	-11.149000	24.967781	0.000511	20.824719
815.222068	-3.002400	3.695700	-11.095000	24.976681	0.000512	20.829384
816.215294	-3.016700	3.694400	-11.144000	24.983447	0.000510	20.837123
817.217474	-3.009900	3.695700	-11.123000	24.990122	0.000511	20.845246
818.220826	-2.995500	3.695700	-11.069000	24.989958	0.000510	20.809995
819.215025	-3.001500	3.695600	-11.091000	24.993301	0.000511	20.828523
820.218114	-2.999500	3.693800	-11.079000	24.959122	0.000510	20.825511
821.220869	-2.981500	3.694100	-11.014000	24.983803	0.000510	20.832739
822.220511	-3.022800	3.693500	-11.165000	24.978440	0.000510	20.833046
823.213497	-3.014400	3.692800	-11.130000	24.972070	0.000510	20.832342
824.219710	-3.009000	3.693300	-11.113000	24.987735	0.000509	20.851384
825.215222	-3.023300	3.691300	-11.159000	24.963337	0.000509	20.858189
826.217883	-3.006100	3.692700	-11.099000	24.979373	0.000508	20.835405
827.218944	-3.001100	3.692600	-11.081000	24.988603	0.000506	20.847040
828.217740	-2.989500	3.691700	-11.036000	24.950121	0.000508	20.855356
829.216589	-2.997500	3.693100	-11.068000	24.930001	0.000508	20.850333
830.218828	-3.001100	3.692300	-11.080000	24.934111	0.000507	20.844028
831.216166	-3.006700	3.692500	-11.102000	24.925902	0.000507	20.826780
832.217155	-3.004100	3.691400	-11.089000	24.930894	0.000507	20.850282
833.221980	-3.003800	3.692000	-11.089000	24.935898	0.000506	20.839184
834.216530	-3.002900	3.690900	-11.083000	24.959264	0.000506	20.855997
835.218871	-3.004600	3.690400	-11.088000	25.016052	0.000509	20.832867
836.219907	-3.016000	3.689900	-11.128000	25.045389	0.000504	20.851884
837.218225	-2.992000	3.691500	-11.044000	25.073665	0.000505	20.831904
838.219427	-3.012600	3.690900	-11.119000	25.057147	0.000503	20.839979
839.225089	-2.989300	3.690700	-11.032000	24.997055	0.000506	20.832765
840.221674	-2.999900	3.690200	-11.069000	24.959991	0.000505	20.859572
841.223689	-2.987400	3.690100	-11.023000	24.983163	0.000502	20.852959
842.226090	-2.997100	3.688900	-11.056000	25.007077	0.000503	20.853255
843.224144	-3.008800	3.687200	-11.093000	24.990645	0.000505	20.859521
844.219207	-3.008500	3.688400	-11.096000	24.987684	0.000506	20.864608
845.223208	-2.990400	3.689400	-11.032000	25.002724	0.000504	20.852679
846.221914	-3.015700	3.688700	-11.123000	25.054927	0.000503	20.851500
847.223211	-2.995200	3.687900	-11.045000	25.028857	0.000506	20.858047
848.225187	-3.009800	3.688500	-11.101000	25.035099	0.000501	20.861942
849.221200	-3.022300	3.687900	-11.144000	25.043322	0.000503	20.869722
850.229800	-3.002900	3.687600	-11.072000	25.010678	0.000504	20.865877
851.227178	-3.014900	3.686800	-11.114000	25.013704	0.000500	20.866071
852.223258	-3.038900	3.685500	-11.199000	25.061311	0.000502	20.852219
853.227495	-2.985500	3.687100	-11.007000	25.060199	0.000501	20.845887
854.229389	-2.986300	3.686700	-11.009000	25.050396	0.000501	20.870185
855.223339	-3.001300	3.687100	-11.065000	25.042686	0.000502	20.843480
856.224485	-2.982600	3.685900	-10.993000	25.038867	0.000500	20.844863
857.231023	-2.995900	3.686100	-11.043000	25.003479	0.000500	20.870980
858.224176	-2.970600	3.687700	-10.954000	25.008777	0.000502	20.859229
859.224266	-3.006500	3.684300	-11.076000	24.976898	0.000499	20.883179
860.225217	-3.019800	3.684800	-11.127000	25.006913	0.000499	20.879641
861.223746	-3.008300	3.685300	-11.085000	25.019184	0.000500	20.876786
862.228681	-3.023200	3.684900	-11.139000	25.022439	0.000499	20.880053
863.230929	-2.997300	3.685100	-11.044000	24.992538	0.000499	20.867584
864.225320	-3.006400	3.683700	-11.074000	24.993523	0.000499	20.856719
865.228615	-2.988500	3.684900	-11.011000	24.970786	0.000499	20.881785
866.230887	-2.983100	3.684200	-10.989000	24.987956	0.000499	20.864881
867.227972	-2.985300	3.682500	-10.993000	25.004580	0.000497	20.881093
868.232212	-2.986500	3.683500	-11.000000	24.969663	0.000498	20.880658
869.236413	-2.990400	3.683000	-11.013000	24.965463	0.000497	20.883080
870.227910	-2.979200	3.682000	-10.968000	24.951763	0.000496	20.878339
871.233203	-2.997300	3.682700	-11.038000	24.934731	0.000497	20.863616
872.235460	-3.001200	3.682200	-11.049000	24.937682	0.000499	20.869896
873.230787	-2.996600	3.683000	-11.036000	24.989849	0.000497	20.877212
874.233431	-3.009900	3.681500	-11.079000	25.047082	0.000499	20.873021
875.233903	-3.004600	3.681700	-11.061000	25.080571	0.000499	20.889568
876.233200	-3.001000	3.681200	-11.046000	25.073918	0.000499	20.879097
877.232567	-3.016400	3.680500	-11.100000	25.116352	0.000497	20.879495
878.236413	-3.018800	3.681000	-11.111000	25.097510	0.000498	20.892347
879.235248	-2.995500	3.681200	-11.026000	25.063872	0.000495	20.886081
880.233306	-2.983400	3.680600	-10.980000	25.024909	0.000495	20.885852
881.239318	-3.018500	3.679700	-11.107000	25.034956	0.000496	20.903521
882.236280	-2.991800	3.679300	-11.007000	25.040741	0.000497	20.876613
883.239132	-2.973700	3.678800	-10.939000	25.093604	0.000495	20.880366
884.240510	-2.993000	3.677500	-11.006000	25.088804	0.000494	20.891195
885.237115	-2.991200	3.679800	-11.007000	25.084720	0.000494	20.891362
886.240819	-2.991900	3.679700	-11.008000	25.093502	0.000494	20.896384
887.240509	-3.002600	3.677300	-11.040000	25.094792	0.000495	20.894834
888.238327	-2.996400	3.676800	-11.017000	25.069849	0.000494	20.889236
889.237558	-3.007400	3.677100	-11.057000	25.091090	0.000495	20.887799
890.240554	-3.004800	3.678400	-11.052000	25.116458	0.000494	20.893824
891.236672	-3.024000	3.678000	-11.120000	25.089331	0.000492	20.914006
892.239058	-2.999500	3.677400	-11.029000	25.070052	0.000494	20.903664
893.241668	-2.994800	3.676500	-11.009000	25.080636	0.000493	20.906227
894.240347	-2.972000	3.677600	-10.928000	25.109449	0.000493	20.899590
895.242115	-2.995800	3.677400	-11.016000	25.102313	0.000491	20.921348
896.246135	-2.997800	3.676600	-11.021000	25.099926	0.000492	20.903306
897.241782	-2.983900	3.675800	-10.968000	25.075441	0.000490	20.893900
898.248559	-2.998400	3.674500	-11.017000	25.084506	0.000492	20.908215
899.242716	-3.003400	3.674900	-11.037000	25.133563	0.000491	20.915261
900.240365	-3.002600	3.675300	-11.035000	25.117711	0.000491	20.897926
901.248575	-2.989900	3.675100	-10.988000	25.126761	0.000491	20.916967
902.245480	-2.999100	3.675100	-11.021000	25.114761	0.000491	20.920567
903.243721	-2.999800	3.674100	-11.020000	25.112679	0.000486	20.909944
904.245800	-2.994900	3.675100	-11.006000	25.137458	0.000491	20.921541
905.246189	-3.001200	3.674300	-11.026000	25.171133	0.000489	20.899874
906.243694	-2.990600	3.674700	-10.989000	25.195718	0.000490	20.926449
907.247043	-2.998100	3.674300	-11.015000	25.206196	0.000490	20.903306
908.248755	-2.992600	3.674500	-10.996000	25.216038	0.000490	20.923142
909.245122	-2.979300	3.673800	-10.944000	25.211751	0.000488	20.939699
910.242777	-3.018400	3.673400	-11.087000	25.215311	0.000486	20.903922
911.252901	-2.967400	3.673400	-10.899000	25.219089	0.000486	20.917671
912.254549	-2.992700	3.672700	-10.990000	25.265997	0.000487	20.911661
913.243950	-3.005800	3.671200	-11.034000	25.264773	0.000489	20.931767
914.248930	-3.011100	3.670600	-11.051000	25.196481	0.000488	20.933853
915.244662	-3.001800	3.671700	-11.021000	25.153426	0.000486	20.909597
916.248578	-3.020800	3.671100	-11.089000	25.140546	0.000487	20.932226
917.248665	-3.015700	3.671800	-11.072000	25.112207	0.000486	20.925589
918.248729	-2.992700	3.671400	-10.986000	25.089698	0.000484	20.917219
919.248068	-2.985700	3.671500	-10.961000	25.113264	0.000486	20.936132
920.248462	-2.994800	3.671400	-10.995000	25.090541	0.000485	20.922807
921.250670	-3.000100	3.670700	-11.012000	25.103563	0.000486	20.934929
922.246998	-3.017800	3.669300	-11.073000	25.088332	0.000486	20.925804
923.250867	-3.009700	3.668900	-11.042000	25.157470	0.000484	20.921716
924.246959	-2.998700	3.669800	-11.004000	25.183868	0.000483	20.933992
925.250992	-3.026100	3.668500	-11.100000	25.212895	0.000483	20.936107
926.250457	-3.001000	3.668400	-11.008000	25.184405	0.000483	20.933109
927.249447	-2.988800	3.670200	-10.968000	25.195457	0.000484	20.922395
928.252388	-2.980900	3.669200	-10.936000	25.256650	0.000482	20.937836
929.252914	-2.972600	3.668700	-10.905000	25.234606	0.000482	20.940359
930.250383	-2.985000	3.666800	-10.945000	25.173299	0.000480	20.924331
931.254618	-3.001200	3.667000	-11.004000	25.170618	0.000481	20.939655
932.254864	-2.992400	3.667800	-10.975000	25.173924	0.000481	20.922588
933.254157	-2.991100	3.667400	-10.969000	25.196874	0.000482	20.927610
934.254798	-3.015300	3.667100	-11.056000	25.189139	0.000481	20.944498
935.255943	-2.971700	3.666500	-10.895000	25.206040	0.000482	20.913580
936.255171	-3.015400	3.665800	-11.053000	25.243899	0.000480	20.934517
937.257054	-2.987500	3.667500	-10.955000	25.244117	0.000480	20.933313
938.257637	-2.991600	3.665600	-10.966000	25.226515	0.000479	20.910903
939.256484	-3.007700	3.664500	-11.020000	25.220848	0.000479	20.919437
940.258395	-2.985100	3.664200	-10.936000	25.219137	0.000479	20.909659
941.257738	-2.993200	3.665600	-10.971000	25.205517	0.000481	20.918270
942.253643	-3.006200	3.664700	-11.016000	25.175228	0.000479	20.925793
943.258963	-3.006400	3.665000	-11.018000	25.147489	0.000479	20.899371
944.254928	-2.994400	3.663700	-10.970000	25.159373	0.000478	20.911774
945.258962	-2.995900	3.665700	-10.982000	25.146824	0.000478	20.929995
946.255791	-2.980300	3.664800	-10.921000	25.180078	0.000478	20.908379
947.258703	-2.978900	3.664800	-10.917000	25.137454	0.000477	20.897358
948.255520	-2.977600	3.664500	-10.910000	25.178138	0.000478	20.900742
949.256524	-2.967100	3.664100	-10.871000	25.209655	0.000479	20.905830
950.254955	-2.977000	3.662100	-10.901000	25.215435	0.000479	20.884134
951.259284	-3.009600	3.661700	-11.019000	25.198651	0.000477	20.895257
952.257343	-2.991700	3.662500	-10.956000	25.145422	0.000477	20.899666
953.258372	-2.991800	3.661800	-10.955000	25.171577	0.000476	20.920706
954.259907	-3.001600	3.661000	-10.988000	25.171283	0.000474	20.926100
955.263634	-3.019300	3.660900	-11.051000	25.214683	0.000477	20.890965
956.259573	-3.017600	3.661100	-11.047000	25.219112	0.000475	20.897781
957.265314	-3.007800	3.662200	-11.014000	25.140670	0.000474	20.902008
958.257453	-3.029300	3.659800	-11.085000	25.182796	0.000473	20.893091
959.261399	-3.008200	3.660400	-11.010000	25.175966	0.000473	20.899036
960.262138	-3.005400	3.658700	-10.995000	25.186894	0.000475	20.880611
961.259003	-2.998900	3.658800	-10.971000	25.212743	0.000474	20.913671
962.257903	-3.006600	3.659800	-11.002000	25.206156	0.000473	20.894732
963.259181	-2.981700	3.659500	-10.911000	25.238297	0.000474	20.890016
964.259554	-2.995500	3.659700	-10.962000	25.244193	0.000472	20.886453
965.262444	-2.986200	3.658800	-10.925000	25.301362	0.000474	20.883634
966.259455	-3.017200	3.658400	-11.037000	25.306379	0.000473	20.891990
967.265688	-3.024600	3.658400	-11.065000	25.299091	0.000470	20.885622
968.260150	-3.011700	3.657700	-11.015000	25.274316	0.000467	20.888248
969.260309	-2.998600	3.658500	-10.970000	25.312594	0.000470	20.886851
970.262869	-2.999400	3.658400	-10.972000	25.274763	0.000470	20.874947
971.267163	-3.013500	3.656600	-11.019000	25.302027	0.000467	20.874345
972.261344	-3.001800	3.656400	-10.975000	25.240902	0.000468	20.885994
973.262132	-3.003200	3.656400	-10.980000	25.199188	0.000469	20.890107
974.265475	-2.976300	3.658000	-10.887000	25.227282	0.000469	20.888915
975.262581	-2.995900	3.657100	-10.955000	25.239191	0.000469	20.875268
976.264160	-3.005800	3.654900	-10.985000	25.232528	0.000470	20.878061
977.266024	-2.995000	3.655600	-10.947000	25.270847	0.000468	20.863903
978.265192	-3.015700	3.655300	-11.022000	25.272097	0.000467	20.879856
979.267240	-2.991600	3.655900	-10.936000	25.276884	0.000467	20.888455
980.267687	-2.993400	3.654200	-10.938000	25.261899	0.000467	20.871515
981.264156	-2.996800	3.653900	-10.949000	25.253079	0.000467	20.864556
982.266525	-3.001200	3.653300	-10.964000	25.242729	0.000467	20.879768
983.263858	-3.017600	3.653300	-11.024000	25.260304	0.000467	20.876551
984.265363	-3.025900	3.653400	-11.054000	25.300127	0.000465	20.862955
985.264353	-3.002500	3.653000	-10.967000	25.300421	0.000466	20.869414
986.265679	-3.023300	3.652100	-11.040000	25.252352	0.000467	20.865723
987.268489	-2.991700	3.654700	-10.932000	25.225418	0.000463	20.869027
988.264431	-2.994000	3.653000	-10.937000	25.253526	0.000463	20.863108
989.268540	-2.996800	3.652600	-10.946000	25.275188	0.000466	20.863046
990.269632	-2.999000	3.652100	-10.951000	25.253809	0.000465	20.864815
991.265635	-2.985600	3.651700	-10.901000	25.279921	0.000464	20.869695
992.268531	-3.010900	3.652400	-10.996000	25.297155	0.000463	20.860920
993.269746	-2.991900	3.652100	-10.927000	25.306484	0.000464	20.862225
994.264216	-3.015800	3.651300	-11.011000	25.294601	0.000463	20.869261
995.269756	-2.961500	3.651900	-10.814000	25.288004	0.000463	20.869275
996.269682	-2.983500	3.650100	-10.889000	25.251985	0.000461	20.855398
997.265633	-2.991400	3.649500	-10.916000	25.255048	0.000462	20.867007
998.275183	-3.006400	3.649800	-10.972000	25.324316	0.000461	20.872543
999.271048	-2.998900	3.651000	-10.948000	25.311413	0.000460	20.861485
1000.268012	-3.000300	3.650200	-10.951000	25.324661	0.000463	20.860562
1001.274595	-2.991200	3.649300	-10.915000	25.362145	0.000461	20.865482
1002.271141	-2.983900	3.649100	-10.887000	25.325707	0.000460	20.867776
1003.269125	-2.997400	3.649200	-10.937000	25.340321	0.000460	20.867751
1004.272542	-3.003700	3.647900	-10.957000	25.277411	0.000458	20.861485
1005.273314	-2.989500	3.648000	-10.905000	25.280321	0.000460	20.860139
1006.268605	-2.994700	3.649600	-10.928000	25.289933	0.000460	20.861729
1007.272022	-2.998800	3.648000	-10.938000	25.294539	0.000459	20.856871
1008.271815	-2.984100	3.648700	-10.887000	25.352715	0.000459	20.843687
1009.268879	-3.004100	3.647800	-10.957000	25.377794	0.000460	20.846582
1010.273948	-3.017500	3.647500	-11.005000	25.385552	0.000461	20.848209
1011.272923	-3.020400	3.644900	-11.008000	25.373097	0.000457	20.853720
1012.269486	-3.005800	3.645900	-10.958000	25.366359	0.000455	20.858334
1013.277000	-3.019300	3.646000	-11.008000	25.354974	0.000455	20.860179
1014.273056	-2.987500	3.646500	-10.893000	25.347088	0.000457	20.845623
1015.268261	-3.010400	3.645400	-10.974000	25.352141	0.000455	20.844059
1016.274497	-3.005600	3.644800	-10.954000	25.283514	0.000454	20.862396
1017.276945	-2.982500	3.646300	-10.874000	25.265848	0.000454	20.853195
1018.271440	-3.002800	3.644100	-10.940000	25.269626	0.000454	20.861729
1019.276378	-3.022200	3.644300	-11.013000	25.263410	0.000455	20.850747
1020.278761	-3.016400	3.644100	-10.991000	25.293558	0.000454	20.820800
1021.273214	-3.002000	3.644800	-10.941000	25.317861	0.000453	20.874122
1022.276321	-2.990600	3.643200	-10.895000	25.290892	0.000457	20.849890
1023.273761	-3.000200	3.642300	-10.927000	25.292730	0.000454	20.847943
1024.273335	-2.981100	3.643700	-10.861000	25.315525	0.000453	20.852812
1025.279587	-3.010300	3.642700	-10.964000	25.266309	0.000453	20.845123
1026.278493	-2.999900	3.641800	-10.925000	25.310087	0.000453	20.844033
1027.275598	-3.014600	3.642000	-10.978000	25.287906	0.000452	20.852108
1028.279302	-2.997200	3.641600	-10.914000	25.335104	0.000450	20.852082
1029.277900	-3.005100	3.641000	-10.940000	25.362697	0.000453	20.836166
1030.278858	-2.998200	3.641400	-10.917000	25.368058	0.000450	20.838704
1031.281809	-2.994200	3.641900	-10.904000	25.391299	0.000451	20.839755
1032.283016	-2.979500	3.641900	-10.850000	25.319815	0.000449	20.833886
1033.279086	-3.003600	3.640000	-10.933000	25.314479	0.000452	20.835641
1034.279642	-3.008400	3.639700	-10.948000	25.285951	0.000448	20.843508
1035.282055	-3.002700	3.640600	-10.931000	25.273469	0.000448	20.838562
1036.280646	-3.013300	3.639900	-10.967000	25.256417	0.000450	20.847520
1037.283005	-3.022900	3.638900	-10.999000	25.263820	0.000449	20.857797
1038.285584	-2.995800	3.638600	-10.899000	25.281563	0.000448	20.831990
1039.280490	-3.004100	3.639200	-10.932000	25.259788	0.000448	20.850904
1040.281084	-3.007600	3.638000	-10.941000	25.264536	0.000447	20.845240
1041.285686	-3.013800	3.637600	-10.962000	25.261779	0.000450	20.860489
1042.289395	-3.002800	3.638100	-10.924000	25.280502	0.000448	20.830925
1043.288219	-3.010400	3.636900	-10.947000	25.292973	0.000445	20.828273
1044.284643	-3.012800	3.637100	-10.956000	25.351658	0.000450	20.843573
1045.282181	-3.002900	3.637400	-10.921000	25.340542	0.000446	20.845689
1046.281635	-2.987000	3.638400	-10.867000	25.331824	0.000446	20.831720
1047.286515	-2.988400	3.637200	-10.868000	25.375167	0.000445	20.826402
1048.282786	-2.994400	3.636600	-10.889000	25.394975	0.000446	20.832066
1049.286647	-2.998500	3.635400	-10.900000	25.413710	0.000447	20.846611
1050.285728	-3.005200	3.635400	-10.924000	25.319023	0.000446	20.859169
1051.288275	-3.016600	3.635000	-10.964000	25.319891	0.000444	20.851506
1052.286324	-2.994300	3.634900	-10.884000	25.324101	0.000444	20.825863
1053.286923	-2.990800	3.634000	-10.867000	25.343031	0.000443	20.850084
1054.288484	-3.014700	3.634500	-10.956000	25.319953	0.000445	20.832129
1055.288531	-2.999500	3.634100	-10.900000	25.316099	0.000444	20.843905
1056.289558	-3.009700	3.632900	-10.934000	25.266436	0.000442	20.837665
1057.287598	-3.002600	3.634400	-10.911000	25.273506	0.000442	20.853771
1058.285140	-3.005100	3.633700	-10.919000	25.285250	0.000443	20.857976
1059.292444	-3.022900	3.632600	-10.979000	25.291593	0.000441	20.834474
1060.289027	-3.020400	3.632500	-10.970000	25.306730	0.000443	20.833551
1061.289073	-3.003300	3.632900	-10.910000	25.336968	0.000441	20.846367
1062.290466	-2.998100	3.632100	-10.889000	25.390888	0.000442	20.842188
1063.290810	-2.985400	3.632600	-10.844000	25.378240	0.000440	20.835178
1064.287040	-3.021700	3.631700	-10.973000	25.376747	0.000440	20.836049
1065.286907	-2.972500	3.631200	-10.793000	25.370761	0.000439	20.830513
1066.289955	-3.001200	3.631700	-10.899000	25.389279	0.000439	20.815917
1067.285187	-2.981700	3.630400	-10.824000	25.392163	0.000438	20.839201
1068.285266	-2.982400	3.630200	-10.826000	25.379123	0.000436	20.843176
1069.289603	-2.993600	3.628600	-10.862000	25.313622	0.000436	20.830513
1070.287772	-2.974000	3.630700	-10.797000	25.349729	0.000437	20.833576
1071.286756	-2.984300	3.631000	-10.835000	25.376148	0.000437	20.834499
1072.290958	-3.015300	3.628500	-10.940000	25.347343	0.000436	20.824068
1073.288510	-2.979100	3.629800	-10.812000	25.306334	0.000438	20.824145
1074.286724	-3.010300	3.627400	-10.919000	25.298996	0.000436	20.823415
1075.288027	-3.026700	3.626800	-10.976000	25.275562	0.000436	20.838292
1076.289554	-2.977500	3.630000	-10.807000	25.277527	0.000434	20.844533
1077.287246	-2.987900	3.627700	-10.839000	25.281152	0.000438	20.829207
1078.290932	-2.997600	3.627600	-10.873000	25.269550	0.000439	20.838894
1079.291981	-3.006900	3.627500	-10.906000	25.309219	0.000438	20.822773
1080.287467	-3.014900	3.626900	-10.934000	25.353227	0.000437	20.827606
1081.291729	-3.007600	3.627100	-10.908000	25.362036	0.000436	20.830286
1082.293994	-2.992700	3.625700	-10.850000	25.382697	0.000436	20.834437
1083.289901	-2.990600	3.626100	-10.843000	25.347967	0.000434	20.802411
1084.294491	-3.014000	3.625700	-10.927000	25.341549	0.000433	20.813509
1085.291263	-2.996000	3.625400	-10.861000	25.368887	0.000434	20.818674
1086.288669	-3.001300	3.625000	-10.879000	25.407786	0.000434	20.816956
1087.294212	-2.979900	3.625200	-10.801000	25.411284	0.000432	20.798183
1088.291608	-2.969100	3.624600	-10.761000	25.393300	0.000435	20.840342
1089.290283	-2.985300	3.625700	-10.823000	25.345123	0.000432	20.803822
1090.293206	-2.991900	3.623600	-10.840000	25.325249	0.000431	20.807575
1091.297043	-2.986100	3.623800	-10.820000	25.321319	0.000429	20.816431
1092.295218	-3.010500	3.623600	-10.908000	25.348658	0.000431	20.820647
1093.293463	-2.966200	3.624200	-10.750000	25.349664	0.000431	20.834933
1094.295664	-2.984900	3.622400	-10.812000	25.351019	0.000428	20.817328
1095.290252	-3.004800	3.621400	-10.881000	25.376224	0.000427	20.812765
1096.293976	-2.982600	3.622200	-10.803000	25.358945	0.000429	20.813907
1097.292518	-3.008200	3.622700	-10.896000	25.337273	0.000428	20.828182
1098.291514	-2.998000	3.620800	-10.854000	25.348007	0.000426	20.806718
1099.294765	-3.012500	3.621900	-10.910000	25.321486	0.000427	20.817073
1100.297287	-3.005300	3.620100	-10.879000	25.330982	0.000425	20.801003
1101.291316	-3.011300	3.619300	-10.898000	25.335947	0.000425	20.799350
1102.295893	-2.996700	3.619900	-10.846000	25.336572	0.000427	20.815625
1103.295360	-2.996300	3.620000	-10.845000	25.331657	0.000427	20.822069
1104.292468	-2.992600	3.619000	-10.829000	25.343939	0.000425	20.804055
1105.296407	-3.007500	3.619000	-10.884000	25.377848	0.000424	20.814395
1106.294813	-2.985300	3.620300	-10.807000	25.380325	0.000423	20.804081
1107.292148	-2.980500	3.620000	-10.789000	25.342050	0.000423	20.811167
1108.294579	-2.999300	3.617700	-10.850000	25.363096	0.000425	20.801480
1109.297492	-2.993600	3.616000	-10.824000	25.387176	0.000424	20.796735
1110.293182	-2.997100	3.617300	-10.840000	25.441380	0.000424	20.816077
1111.298390	-3.027000	3.616200	-10.945000	25.464020	0.000421	20.801352
1112.296684	-2.996900	3.618400	-10.843000	25.488329	0.000424	20.807746
1113.292106	-2.985300	3.617700	-10.799000	25.478566	0.000424	20.810270
1114.297204	-2.999200	3.616700	-10.847000	25.489172	0.000420	20.809541
1115.295327	-3.009700	3.616600	-10.883000	25.414516	0.000422	20.785782
1116.294897	-3.030500	3.614900	-10.953000	25.399279	0.000424	20.834966
1117.299281	-3.012200	3.616100	-10.891000	25.409489	0.000421	20.790691
1118.303568	-2.999400	3.616100	-10.846000	25.436302	0.000421	20.814771
1119.301195	-2.977000	3.615800	-10.764000	25.415704	0.000420	20.806889
1120.301747	-2.999100	3.615000	-10.840000	25.402624	0.000421	20.807031
1121.304044	-2.995700	3.613800	-10.825000	25.368000	0.000418	20.770368
1122.295525	-3.000200	3.614700	-10.844000	25.328536	0.000419	20.773891
1123.305688	-2.976400	3.614300	-10.756000	25.337981	0.000417	20.805660
1124.298674	-3.003800	3.612900	-10.851000	25.334203	0.000420	20.800444
1125.297317	-2.973500	3.613500	-10.744000	25.333720	0.000419	20.786208
1126.303678	-2.988400	3.613000	-10.796000	25.346953	0.000420	20.808505
1127.301379	-3.017100	3.612200	-10.897000	25.397851	0.000420	20.815989
1128.305117	-3.004600	3.612600	-10.852000	25.352889	0.000419	20.801188
1129.304678	-2.975500	3.613400	-10.751000	25.405777	0.000417	20.807352
1130.304910	-2.982100	3.611700	-10.769000	25.444508	0.000417	20.804518
1131.299776	-3.004600	3.611800	-10.851000	25.491547	0.000416	20.780632
1132.305452	-2.995400	3.610800	-10.815000	25.492978	0.000415	20.819053
1133.303080	-3.010900	3.612300	-10.875000	25.476031	0.000414	20.807724
1134.299496	-3.000900	3.610300	-10.833000	25.480164	0.000417	20.802866
1135.304132	-3.005500	3.610000	-10.848000	25.431402	0.000415	20.813170
1136.300158	-3.003200	3.611300	-10.845000	25.401029	0.000415	20.786464
1137.300255	-3.011300	3.609600	-10.868000	25.380111	0.000413	20.797227
1138.304739	-3.003800	3.609900	-10.843000	25.384974	0.000415	20.801637
1139.304023	-2.992700	3.609500	-10.801000	25.383020	0.000412	20.795881
1140.302582	-3.011200	3.607600	-10.863000	25.368051	0.000415	20.784170
1141.315149	-2.997300	3.608900	-10.816000	25.360470	0.000413	20.804533
1142.302655	-3.020200	3.606800	-10.893000	25.385766	0.000414	20.782991
1143.303164	-3.014500	3.607300	-10.873000	25.388661	0.000412	20.789218
1144.307000	-2.992400	3.608100	-10.796000	25.382522	0.000409	20.794433
1145.307779	-2.995600	3.606600	-10.803000	25.405305	0.000412	20.798343
1146.304082	-2.996600	3.607200	-10.809000	25.447904	0.000410	20.796549
1147.311691	-3.006400	3.607900	-10.846000	25.464582	0.000413	20.801918
1148.305512	-3.002500	3.606000	-10.826000	25.416216	0.000409	20.794127
1149.307379	-2.992300	3.607500	-10.794000	25.439684	0.000411	20.778338
1150.313069	-2.980000	3.606900	-10.748000	25.471106	0.000410	20.794244
1151.311028	-2.993100	3.605900	-10.791000	25.512042	0.000411	20.791256
1152.306999	-3.009700	3.605300	-10.849000	25.482856	0.000412	20.801776
1153.310551	-3.007000	3.605400	-10.841000	25.450163	0.000408	20.785067
1154.306942	-2.977100	3.604800	-10.731000	25.417211	0.000408	20.794178
1155.307716	-2.985400	3.605200	-10.762000	25.402548	0.000407	20.777557
1156.309562	-3.009200	3.604400	-10.845000	25.417836	0.000409	20.784374
1157.310866	-3.001800	3.603900	-10.817000	25.411864	0.000406	20.798292
1158.310000	-2.970300	3.602400	-10.699000	25.445659	0.000405	20.793346
1159.312559	-3.003200	3.601600	-10.816000	25.434759	0.000406	20.798996
1160.310474	-2.994800	3.603700	-10.791000	25.431326	0.000407	20.790808
1161.309650	-3.004700	3.603600	-10.827000	25.429372	0.000404	20.784104
1162.314614	-2.996700	3.602400	-10.794000	25.434134	0.000405	20.777032
1163.312276	-3.007800	3.601300	-10.831000	25.450188	0.000404	20.774187
1164.310796	-2.996400	3.602200	-10.792000	25.473376	0.000405	20.789411
1165.314203	-2.995700	3.602100	-10.790000	25.555465	0.000404	20.801199
1166.308437	-2.985900	3.601900	-10.754000	25.573715	0.000403	20.760257
1167.316779	-2.997900	3.600800	-10.794000	25.524395	0.000403	20.774263
1168.313340	-3.005800	3.601000	-10.823000	25.456007	0.000401	20.773392
1169.312346	-2.977700	3.600000	-10.719000	25.473924	0.000400	20.777634
1170.314461	-3.005100	3.600500	-10.819000	25.488358	0.000403	20.785490
1171.314233	-3.006700	3.599200	-10.822000	25.478493	0.000403	20.759936
1172.310231	-3.000000	3.599800	-10.798000	25.451899	0.000401	20.798190
1173.314727	-3.004100	3.598700	-10.810000	25.437504	0.000401	20.793693
1174.315073	-2.992300	3.599300	-10.769000	25.400226	0.000403	20.780916
1175.312787	-3.024600	3.598200	-10.882000	25.331333	0.000400	20.768165
1176.316688	-3.017700	3.597400	-10.854000	25.372264	0.000400	20.788875
1177.316638	-3.013800	3.597300	-10.841000	25.400978	0.000402	20.775033
1178.314119	-2.964900	3.598600	-10.668000	25.383764	0.000402	20.792361
1179.319888	-2.990200	3.597200	-10.756000	25.395759	0.000399	20.781646
1180.320975	-2.990500	3.596900	-10.756000	25.411904	0.000400	20.777943
1181.317380	-2.995300	3.597500	-10.775000	25.474745	0.000397	20.792682
1182.321022	-2.995600	3.597000	-10.775000	25.495023	0.000399	20.780803
1183.322722	-3.004100	3.596200	-10.803000	25.499704	0.000398	20.783134
1184.319483	-2.990300	3.595300	-10.750000	25.472268	0.000397	20.793514
1185.322884	-3.002700	3.595600	-10.795000	25.514087	0.000396	20.787620
1186.320004	-3.013100	3.593500	-10.826000	25.535424	0.000398	20.758313
1187.318914	-2.995400	3.595100	-10.768000	25.481177	0.000397	20.774011
1188.321612	-3.002900	3.594800	-10.794000	25.466921	0.000397	20.774869
1189.323055	-2.990400	3.594000	-10.746000	25.489840	0.000395	20.769434
1190.319495	-3.004500	3.594000	-10.797000	25.490849	0.000396	20.785621
1191.323952	-2.986300	3.594400	-10.733000	25.480360	0.000395	20.776984
1192.330167	-2.981500	3.594100	-10.715000	25.514762	0.000396	20.783083
1193.320467	-3.010000	3.592200	-10.812000	25.508051	0.000395	20.779187
1194.325234	-2.994000	3.592700	-10.756000	25.508908	0.000394	20.771987
1195.323499	-2.998900	3.591500	-10.769000	25.511294	0.000393	20.764900
1196.328718	-2.997700	3.591400	-10.766000	25.538308	0.000393	20.765476
1197.324538	-2.990800	3.591800	-10.741000	25.546578	0.000393	20.787532
1198.323407	-2.981300	3.591300	-10.705000	25.566574	0.000395	20.803347
1199.320722	-2.989600	3.590700	-10.733000	25.572927	0.000392	20.789338
1200.324155	-3.005000	3.590000	-10.787000	25.548415	0.000388	20.778946
1201.324268	-3.008700	3.590800	-10.803000	25.570221	0.000390	20.763861
1202.324127	-2.999200	3.589600	-10.765000	25.571419	0.000393	20.781186
1203.325916	-3.019700	3.588900	-10.836000	25.551019	0.000391	20.794838
1204.327372	-3.011800	3.588800	-10.808000	25.564686	0.000393	20.791493
1205.322214	-2.987900	3.590500	-10.727000	25.523940	0.000389	20.770014
1206.325963	-2.966400	3.589700	-10.648000	25.507237	0.000388	20.763197
1207.327737	-2.980600	3.588900	-10.696000	25.511000	0.000389	20.793529
1208.330104	-2.993000	3.588500	-10.739000	25.464651	0.000390	20.791081
1209.328530	-2.999000	3.588800	-10.762000	25.493286	0.000390	20.781430
1210.329360	-3.013900	3.586200	-10.807000	25.502998	0.000388	20.777433
1211.327447	-2.979200	3.589000	-10.691000	25.545557	0.000387	20.772757
1212.333648	-3.010100	3.586900	-10.795000	25.526991	0.000388	20.800105
1213.334134	-3.011000	3.586600	-10.799000	25.503126	0.000387	20.807432
1214.326570	-3.024600	3.586300	-10.847000	25.513898	0.000388	20.800232
1215.330139	-3.029400	3.584600	-10.858000	25.504531	0.000386	20.773282
1216.330164	-2.989800	3.586500	-10.722000	25.467778	0.000385	20.791377
1217.334076	-2.989300	3.585600	-10.718000	25.456689	0.000386	20.778819
1218.330647	-2.988600	3.585100	-10.714000	25.441107	0.000386	20.787353
1219.333687	-2.988500	3.584500	-10.711000	25.446850	0.000388	20.786482
1220.328538	-2.966800	3.585000	-10.635000	25.477236	0.000387	20.789969
1221.331213	-3.001700	3.584800	-10.760000	25.498291	0.000386	20.786456
1222.333890	-3.004300	3.583700	-10.766000	25.523980	0.000384	20.788072
1223.332436	-2.979800	3.584000	-10.679000	25.546745	0.000382	20.797657
1224.332185	-2.995500	3.583600	-10.734000	25.515202	0.000381	20.795852
1225.334072	-2.995500	3.582800	-10.731000	25.488249	0.000381	20.779216
1226.329363	-2.999100	3.583000	-10.745000	25.449276	0.000381	20.793185
1227.335328	-3.010100	3.582100	-10.782000	25.437944	0.000383	20.808358
1228.331928	-3.015900	3.582500	-10.803000	25.411719	0.000381	20.798146
1229.331265	-3.003600	3.581000	-10.755000	25.375014	0.000382	20.790687
1230.334395	-2.992800	3.583100	-10.722000	25.393150	0.000382	20.808424
1231.335688	-3.003600	3.580000	-10.752000	25.431155	0.000382	20.805809
1232.330369	-3.011400	3.580000	-10.779000	25.519654	0.000382	20.786573
1233.333930	-3.011300	3.580000	-10.780000	25.588038	0.000380	20.797402
1234.335002	-3.003100	3.580600	-10.752000	25.611401	0.000379	20.795735
1235.330558	-3.009500	3.578700	-10.769000	25.547028	0.000380	20.791303
1236.334126	-2.993900	3.579400	-10.716000	25.532722	0.000378	20.791161
1237.334752	-2.980200	3.579800	-10.667000	25.493519	0.000381	20.805371
1238.330118	-3.012600	3.579500	-10.783000	25.499900	0.000378	20.790443
1239.331818	-2.997900	3.578200	-10.727000	25.488401	0.000378	20.789801
1240.335956	-2.998200	3.579000	-10.729000	25.489269	0.000378	20.817699
1241.331089	-3.021200	3.577700	-10.808000	25.494576	0.000377	20.813071
1242.338756	-3.003600	3.577300	-10.743000	25.549055	0.000377	20.799503
1243.338122	-3.004600	3.578100	-10.750000	25.585674	0.000378	20.794553
1244.333615	-2.999200	3.577400	-10.728000	25.607762	0.000375	20.823848
1245.336886	-3.019700	3.576100	-10.798000	25.629453	0.000377	20.799641
1246.337065	-3.011400	3.576300	-10.769000	25.586491	0.000375	20.793003
1247.333070	-2.994800	3.576600	-10.710000	25.517468	0.000374	20.809507
1248.337096	-2.989900	3.576400	-10.693000	25.512670	0.000374	20.792836
1249.337083	-2.996600	3.576000	-10.715000	25.508101	0.000375	20.820489
1250.334336	-2.987400	3.575800	-10.682000	25.542467	0.000374	20.814223
1251.335536	-3.011300	3.574700	-10.763000	25.557767	0.000373	20.812046
1252.337660	-3.002900	3.574300	-10.732000	25.626759	0.000372	20.835341
1253.335688	-2.991000	3.574800	-10.691000	25.637592	0.000372	20.801651
1254.339622	-3.021000	3.573700	-10.795000	25.633252	0.000372	20.811043
1255.335674	-2.989500	3.573300	-10.681000	25.608154	0.000372	20.819501
1256.334104	-3.004500	3.572800	-10.734000	25.564414	0.000371	20.822988
1257.335659	-2.985400	3.573100	-10.666000	25.527344	0.000372	20.818950
1258.338294	-2.992500	3.573100	-10.692000	25.508421	0.000370	20.822233
1259.333653	-2.989700	3.574100	-10.685000	25.491561	0.000370	20.806251
1260.340166	-3.001000	3.571700	-10.718000	25.515718	0.000371	20.817707
1261.343732	-2.994700	3.571900	-10.696000	25.552916	0.000370	20.821398
1262.335920	-2.999300	3.571400	-10.711000	25.602743	0.000369	20.824024
1263.342409	-2.973400	3.571900	-10.620000	25.611190	0.000368	20.802636
1264.338185	-3.015400	3.570600	-10.766000	25.629515	0.000368	20.819618
1265.337428	-3.007500	3.570400	-10.737000	25.657841	0.000369	20.817247
1266.343996	-3.008000	3.571500	-10.742000	25.647735	0.000369	20.812787
1267.338331	-3.006700	3.570500	-10.735000	25.660902	0.000370	20.831701
1268.336917	-2.985400	3.570200	-10.657000	25.617647	0.000369	20.821923
1269.339716	-3.012800	3.568600	-10.751000	25.583375	0.000368	20.825909
1270.345438	-3.009700	3.569000	-10.740000	25.584817	0.000365	20.822142
1271.342658	-2.995800	3.569400	-10.693000	25.592625	0.000367	20.815759
1272.341088	-2.988800	3.569600	-10.668000	25.582634	0.000366	20.839864
1273.340523	-3.016900	3.566300	-10.758000	25.566902	0.000367	20.832124
1274.336370	-3.000900	3.567600	-10.705000	25.550493	0.000364	20.819913
1275.340690	-2.998500	3.567600	-10.697000	25.527739	0.000367	20.824089
1276.341982	-2.986100	3.567800	-10.653000	25.548143	0.000366	20.844579
1277.338886	-3.013000	3.566900	-10.745000	25.580121	0.000364	20.826435
1278.342175	-3.014800	3.565700	-10.749000	25.621246	0.000366	20.823641
1279.341026	-3.004700	3.566800	-10.715000	25.612607	0.000363	20.806903
1280.339939	-2.983600	3.566200	-10.639000	25.624870	0.000365	20.822539
1281.342152	-3.018800	3.566300	-10.764000	25.597985	0.000362	20.814504
1282.342611	-2.994500	3.566400	-10.678000	25.632322	0.000364	20.849463
1283.340689	-3.026500	3.563600	-10.784000	25.617840	0.000364	20.843927
1284.341823	-2.991600	3.565400	-10.665000	25.611205	0.000363	20.850065
1285.344351	-3.011300	3.565900	-10.736000	25.618464	0.000362	20.845502
1286.341302	-3.032500	3.563300	-10.805000	25.606113	0.000362	20.816029
1287.344579	-3.003700	3.563900	-10.704000	25.603575	0.000360	20.829600
1288.344870	-3.032700	3.562500	-10.803000	25.603905	0.000362	20.853639
1289.341300	-2.988300	3.564100	-10.649000	25.629388	0.000363	20.841775
1290.344932	-2.987400	3.563300	-10.643000	25.627307	0.000361	20.847745
1291.343215	-2.979100	3.563600	-10.616000	25.677999	0.000360	20.846502
1292.343807	-2.986700	3.562600	-10.639000	25.670025	0.000362	20.835173
1293.345161	-3.001300	3.562400	-10.691000	25.663670	0.000359	20.861032
1294.344534	-3.001000	3.561300	-10.685000	25.616205	0.000360	20.838018
1295.345280	-3.004400	3.562400	-10.702000	25.626999	0.000356	20.864030
1296.349342	-2.993600	3.561100	-10.659000	25.595331	0.000360	20.840287
1297.349902	-3.000700	3.559600	-10.680000	25.676990	0.000358	20.845014
1298.352909	-2.981800	3.560700	-10.617000	25.646329	0.000359	20.854522
1299.348476	-3.021700	3.560200	-10.757000	25.682005	0.000358	20.852421
1300.349133	-3.018200	3.558600	-10.740000	25.643370	0.000358	20.858661
1301.353271	-2.992100	3.559200	-10.648000	25.606520	0.000358	20.852946
1302.347034	-2.994200	3.561500	-10.663000	25.549302	0.000356	20.850010
1303.351081	-3.010400	3.558600	-10.712000	25.505163	0.000359	20.850729
1304.347538	-2.994500	3.557500	-10.652000	25.523450	0.000357	20.845386
1305.348691	-2.997600	3.557400	-10.663000	25.557328	0.000354	20.835786
1306.348288	-2.991600	3.558900	-10.646000	25.590388	0.000356	20.856185
1307.349553	-3.003900	3.558100	-10.687000	25.589139	0.000355	20.849241
1308.349872	-3.006700	3.557300	-10.695000	25.599794	0.000352	20.860416
1309.357373	-2.999300	3.556700	-10.667000	25.594626	0.000354	20.826778
1310.353154	-2.997700	3.555900	-10.658000	25.582235	0.000352	20.863169
1311.354901	-3.042300	3.554300	-10.812000	25.526893	0.000352	20.874446
1312.350971	-3.026700	3.553700	-10.755000	25.538443	0.000353	20.863760
1313.351423	-2.986900	3.554900	-10.618000	25.516775	0.000352	20.848639
1314.354794	-3.010500	3.554800	-10.701000	25.541581	0.000353	20.857903
1315.350607	-2.997300	3.555100	-10.654000	25.568391	0.000351	20.860171
1316.354458	-2.970600	3.555100	-10.560000	25.596170	0.000353	20.852034
1317.350331	-2.995400	3.553900	-10.644000	25.613013	0.000350	20.875588
1318.351207	-3.005600	3.552600	-10.676000	25.636274	0.000351	20.877138
1319.357275	-2.991400	3.553200	-10.628000	25.602627	0.000351	20.865157
1320.351594	-2.991100	3.553700	-10.629000	25.565061	0.000352	20.864413
1321.357899	-2.990300	3.553700	-10.626000	25.578803	0.000352	20.879636
1322.357902	-2.974100	3.552900	-10.565000	25.574834	0.000350	20.872805
1323.355335	-3.018500	3.551700	-10.720000	25.594485	0.000349	20.873100
1324.358353	-2.996600	3.552500	-10.645000	25.573969	0.000351	20.873359
1325.362813	-3.012000	3.551800	-10.697000	25.563746	0.000350	20.870205
1326.351235	-2.977700	3.552200	-10.577000	25.583666	0.000347	20.873140
1327.358984	-2.999600	3.551100	-10.652000	25.577390	0.000349	20.897182
1328.355604	-3.012700	3.551600	-10.699000	25.565685	0.000348	20.868833
1329.357574	-3.007300	3.550800	-10.677000	25.576457	0.000347	20.881073
1330.358697	-2.961400	3.550900	-10.514000	25.564908	0.000347	20.869001
1331.360865	-3.001600	3.549700	-10.654000	25.575741	0.000347	20.867553
1332.360077	-3.008400	3.548200	-10.673000	25.584087	0.000348	20.883520
1333.356590	-2.980000	3.550800	-10.580000	25.613932	0.000346	20.862287
1334.360743	-3.002900	3.549400	-10.657000	25.647771	0.000345	20.883469
1335.360022	-2.990100	3.549000	-10.611000	25.669640	0.000346	20.895001
1336.357588	-3.000600	3.548300	-10.646000	25.692351	0.000347	20.892207
1337.360343	-3.022200	3.547200	-10.720000	25.666132	0.000344	20.882944
1338.357552	-3.006100	3.546900	-10.661000	25.624231	0.000344	20.894439
1339.362165	-3.007600	3.547900	-10.670000	25.591667	0.000342	20.884494
1340.364776	-2.999900	3.546300	-10.638000	25.598302	0.000343	20.883097
1341.360676	-2.987700	3.546600	-10.596000	25.583513	0.000343	20.891478
1342.362336	-3.036600	3.544500	-10.762000	25.617226	0.000343	20.874603
1343.365332	-2.998800	3.546400	-10.634000	25.609966	0.000340	20.887225
1344.365028	-2.985900	3.546600	-10.589000	25.609149	0.000343	20.897783
1345.362855	-3.014600	3.545100	-10.686000	25.637221	0.000341	20.889468
1346.363388	-2.988300	3.545300	-10.594000	25.650847	0.000342	20.910738
1347.362580	-2.974600	3.544400	-10.542000	25.633190	0.000342	20.895376
1348.361333	-2.999100	3.544000	-10.628000	25.643805	0.000341	20.893710
1349.365526	-3.000600	3.543500	-10.632000	25.661719	0.000341	20.886572
1350.366307	-3.000800	3.543800	-10.633000	25.706567	0.000340	20.880409
1351.362263	-3.000100	3.542500	-10.627000	25.721521	0.000338	20.904910
1352.364765	-2.994000	3.542600	-10.606000	25.737048	0.000341	20.892532
1353.366039	-2.980100	3.542400	-10.556000	25.719658	0.000340	20.883126
1354.363586	-3.008900	3.541300	-10.655000	25.732276	0.000338	20.884895
1355.369082	-3.002500	3.541100	-10.631000	25.693476	0.000341	20.883855
1356.367059	-2.983600	3.541700	-10.566000	25.684546	0.000338	20.908549
1357.363480	-2.993900	3.540900	-10.601000	25.700495	0.000338	20.912240
1358.369561	-2.986500	3.541200	-10.574000	25.629606	0.000339	20.907896
1359.373726	-2.997700	3.541200	-10.614000	25.638601	0.000337	20.904603
1360.364796	-3.025800	3.540300	-10.711000	25.628139	0.000338	20.894570
1361.368413	-2.998600	3.539800	-10.613000	25.624311	0.000338	20.900208
1362.366535	-3.018100	3.540000	-10.683000	25.622550	0.000337	20.898440
1363.365848	-3.010900	3.539100	-10.655000	25.612290	0.000334	20.913265
1364.368700	-2.996700	3.538800	-10.604000	25.599761	0.000336	20.892623
1365.367693	-3.005900	3.538300	-10.634000	25.570566	0.000334	20.906923
1366.366446	-3.024600	3.537700	-10.699000	25.579126	0.000336	20.908407
1367.367400	-3.020900	3.538200	-10.688000	25.607352	0.000334	20.924424
1368.365978	-3.001700	3.537300	-10.617000	25.572109	0.000334	20.925540
1369.367002	-3.008900	3.537200	-10.642000	25.611691	0.000333	20.924990
1370.370658	-2.994600	3.536700	-10.590000	25.642876	0.000334	20.915533
1371.366453	-3.006800	3.537800	-10.637000	25.646180	0.000333	20.916955
1372.368196	-3.004400	3.537500	-10.627000	25.622473	0.000333	20.920646
1373.369212	-2.998400	3.535600	-10.600000	25.640439	0.000334	20.930628
1374.370831	-3.025300	3.535800	-10.695000	25.640874	0.000334	20.921109
1375.364692	-3.022800	3.534800	-10.684000	25.628062	0.000332	20.926733
1376.367989	-3.025700	3.533200	-10.690000	25.621925	0.000331	20.940956
1377.371140	-3.020900	3.534200	-10.676000	25.653683	0.000331	20.921171
1378.370354	-2.974200	3.534400	-10.510000	25.691911	0.000330	20.942495
1379.373844	-2.987000	3.534600	-10.557000	25.711433	0.000331	20.916113
1380.371332	-2.996400	3.535200	-10.592000	25.696965	0.000330	20.924814
1381.366869	-2.986300	3.533500	-10.551000	25.722900	0.000331	20.907244
1382.373503	-2.988900	3.532800	-10.557000	25.688007	0.000330	20.931463
1383.371541	-3.004800	3.532600	-10.614000	25.690022	0.000332	20.922583
1384.368551	-3.007200	3.532700	-10.622000	25.713920	0.000330	20.926671
1385.371150	-2.996100	3.532300	-10.582000	25.711814	0.000332	20.912229
1386.370294	-3.005300	3.532200	-10.614000	25.748482	0.000331	20.922032
1387.369339	-3.009400	3.531200	-10.626000	25.735138	0.000329	20.905310
1388.372958	-3.012200	3.530900	-10.635000	25.745279	0.000329	20.914074
1389.370397	-3.017300	3.529900	-10.649000	25.715158	0.000328	20.912743
1390.367920	-3.024900	3.529900	-10.677000	25.682484	0.000329	20.906003
1391.374157	-3.010800	3.529500	-10.626000	25.732203	0.000328	20.925121
1392.369393	-2.998600	3.531500	-10.588000	25.729524	0.000327	20.899672
1393.370880	-3.021100	3.528400	-10.658000	25.749836	0.000328	20.909169
1394.376207	-2.992500	3.530800	-10.565000	25.699925	0.000329	20.903607
1395.374115	-2.998300	3.529700	-10.582000	25.691148	0.000322	20.900482
1396.372279	-3.002200	3.528800	-10.593000	25.652728	0.000327	20.896981
1397.374250	-2.994800	3.528000	-10.565000	25.634254	0.000325	20.914461
1398.372679	-2.982200	3.528900	-10.523000	25.601486	0.000323	20.900518
1399.376271	-3.007000	3.527300	-10.606000	25.605354	0.000324	20.895868
1400.373711	-2.989300	3.527400	-10.544000	25.628807	0.000325	20.905197
1401.371149	-2.990900	3.527400	-10.549000	25.608339	0.000324	20.888436
1402.376055	-3.017700	3.526200	-10.640000	25.618141	0.000326	20.906813
1403.380264	-2.988200	3.526700	-10.538000	25.629177	0.000325	20.893242
1404.372803	-3.006900	3.524700	-10.598000	25.612054	0.000324	20.876995
1405.375173	-3.001800	3.526200	-10.582000	25.644310	0.000324	20.880467
1406.374956	-3.017400	3.523500	-10.630000	25.618104	0.000324	20.889708
1407.371455	-3.023800	3.523500	-10.653000	25.594804	0.000324	20.881006
1408.373323	-2.978600	3.524800	-10.498000	25.623425	0.000325	20.876086
1409.375616	-3.005800	3.525500	-10.596000	25.643126	0.000323	20.896346
1410.373304	-2.989600	3.523300	-10.533000	25.582136	0.000321	20.904318
1411.376226	-3.009700	3.523700	-10.604000	25.587635	0.000322	20.876652
1412.374760	-2.986100	3.522400	-10.516000	25.613957	0.000319	20.878432
1413.374459	-2.981500	3.522800	-10.503000	25.645846	0.000320	20.865415
1414.375839	-3.002300	3.522300	-10.574000	25.683769	0.000319	20.868891
1415.378627	-2.989900	3.523200	-10.533000	25.696170	0.000319	20.874234
1416.379143	-2.988300	3.522000	-10.524000	25.726687	0.000319	20.856049
1417.379392	-2.987100	3.521900	-10.519000	25.724890	0.000317	20.869416
1418.379560	-2.999600	3.520600	-10.559000	25.690748	0.000319	20.874004
1419.381808	-2.992100	3.521900	-10.537000	25.640031	0.000319	20.875696
1420.380674	-2.997700	3.520300	-10.551000	25.642443	0.000319	20.871954
1421.378034	-3.003700	3.521800	-10.577000	25.627898	0.000318	20.877261
1422.379499	-3.001600	3.520300	-10.565000	25.681092	0.000317	20.868099
1423.377240	-3.016800	3.519100	-10.616000	25.682011	0.000316	20.867599
1424.380643	-3.001700	3.520300	-10.566000	25.693290	0.000315	20.856169
1425.381746	-3.006900	3.520200	-10.584000	25.736593	0.000315	20.875007
1426.381755	-3.008200	3.518500	-10.584000	25.723274	0.000315	20.844086
1427.377798	-3.012000	3.518200	-10.596000	25.679335	0.000314	20.854955
1428.380531	-3.009400	3.518300	-10.587000	25.647959	0.000315	20.859951
1429.383916	-3.012600	3.518000	-10.598000	25.608545	0.000314	20.848816
1430.379904	-3.015000	3.517800	-10.606000	25.606631	0.000314	20.866334
1431.379065	-3.001200	3.516500	-10.553000	25.593554	0.000315	20.874062
1432.382760	-2.996800	3.516100	-10.536000	25.566795	0.000313	20.874215
1433.384607	-2.994600	3.517200	-10.532000	25.614621	0.000314	20.861556
1434.383683	-3.003600	3.515100	-10.558000	25.661039	0.000312	20.878303
1435.380604	-2.980100	3.516600	-10.479000	25.700607	0.000312	20.863518
1436.380650	-3.009000	3.515300	-10.576000	25.703378	0.000312	20.844017
1437.389148	-3.000400	3.515300	-10.546000	25.700556	0.000313	20.840234
1438.385683	-3.007300	3.514200	-10.568000	25.706718	0.000310	20.862544
1439.383564	-2.974200	3.516200	-10.457000	25.686496	0.000311	20.860250
1440.386164	-2.975200	3.514700	-10.456000	25.704906	0.000313	20.843656
1441.382461	-2.991700	3.514800	-10.514000	25.686982	0.000311	20.862161
1442.383116	-2.997400	3.513600	-10.530000	25.660404	0.000312	20.843054
1443.386140	-3.001400	3.513900	-10.546000	25.626311	0.000310	20.851486
1444.384088	-2.995900	3.513100	-10.523000	25.664119	0.000309	20.848681
1445.383260	-3.009600	3.512600	-10.571000	25.708124	0.000311	20.844516
1446.394362	-2.998200	3.512600	-10.531000	25.686982	0.000309	20.861213
1447.385367	-2.996900	3.512500	-10.525000	25.695352	0.000308	20.849232
1448.385861	-3.002300	3.511800	-10.542000	25.725757	0.000308	20.841839
1449.388589	-2.965100	3.511600	-10.411000	25.764898	0.000307	20.845118
1450.394122	-2.983300	3.511400	-10.475000	25.745162	0.000308	20.841416
1451.385678	-2.977900	3.510700	-10.454000	25.721966	0.000306	20.866954
1452.388027	-3.007600	3.510200	-10.556000	25.728691	0.000308	20.851424
1453.388792	-2.983400	3.509800	-10.470000	25.696464	0.000307	20.844184
1454.385456	-2.997600	3.509000	-10.518000	25.683565	0.000308	20.826962
1455.387496	-3.003600	3.509100	-10.539000	25.748212	0.000307	20.850643
1456.387941	-2.998700	3.510100	-10.524000	25.764364	0.000307	20.827039
1457.389570	-2.992700	3.508700	-10.500000	25.711777	0.000306	20.824004
1458.392277	-3.011500	3.508900	-10.566000	25.708625	0.000306	20.849761
1459.386457	-3.001400	3.508500	-10.530000	25.756379	0.000306	20.833243
1460.386386	-2.993400	3.508300	-10.501000	25.788950	0.000306	20.844148
1461.393226	-3.003600	3.507400	-10.534000	25.793823	0.000303	20.849991
1462.386299	-2.985200	3.506200	-10.465000	25.785823	0.000305	20.846697
1463.393603	-3.011400	3.506800	-10.559000	25.785823	0.000305	20.836266
1464.390430	-2.999700	3.505100	-10.514000	25.696899	0.000303	20.827553
1465.393032	-2.997100	3.505700	-10.506000	25.644854	0.000305	20.850195
1466.393112	-2.991200	3.504500	-10.481000	25.610038	0.000303	20.835617
1467.396637	-2.998100	3.505500	-10.509000	25.636563	0.000303	20.834756
1468.388477	-3.002800	3.504700	-10.523000	25.666802	0.000302	20.855170
1469.392778	-2.989900	3.505700	-10.481000	25.682243	0.000302	20.839385
1470.392201	-2.998700	3.502300	-10.501000	25.730841	0.000299	20.832721
1471.392414	-2.998900	3.502400	-10.503000	25.759139	0.000303	20.829377
1472.389154	-2.991000	3.503200	-10.478000	25.789273	0.000300	20.838309
1473.392760	-2.999500	3.502800	-10.505000	25.757261	0.000301	20.827965
1474.390637	-3.017700	3.502400	-10.569000	25.684756	0.000302	20.840960
1475.389819	-3.007300	3.502100	-10.532000	25.633084	0.000303	20.831262
1476.395846	-2.995600	3.501600	-10.488000	25.597636	0.000299	20.825532
1477.392925	-3.015000	3.501800	-10.557000	25.654481	0.000300	20.830941
1478.393373	-2.993400	3.501200	-10.479000	25.677090	0.000299	20.831838
1479.398076	-2.997800	3.502400	-10.498000	25.691481	0.000299	20.817370
1480.391547	-2.973000	3.501100	-10.408000	25.718455	0.000300	20.822177
1481.393884	-2.989000	3.501000	-10.463000	25.704242	0.000298	20.833979
1482.394645	-3.007500	3.500300	-10.526000	25.685755	0.000299	20.833429
1483.389379	-2.997900	3.499400	-10.490000	25.677308	0.000299	20.848178
1484.391364	-2.988400	3.499800	-10.457000	25.731404	0.000297	20.823804
1485.395997	-2.959500	3.499100	-10.354000	25.724820	0.000296	20.835208
1486.393075	-2.993600	3.499800	-10.476000	25.711504	0.000299	20.828946
1487.394846	-2.999900	3.498700	-10.495000	25.711054	0.000298	20.828020
1488.397485	-3.009300	3.498600	-10.527000	25.753198	0.000299	20.831470
1489.394884	-3.007100	3.498200	-10.519000	25.734686	0.000298	20.829471
1490.400599	-2.971500	3.498600	-10.396000	25.776800	0.000295	20.820565
1491.401236	-3.012200	3.496700	-10.531000	25.737184	0.000295	20.833877
1492.394042	-3.018500	3.497100	-10.554000	25.730361	0.000296	20.819438
1493.400201	-2.986100	3.496400	-10.440000	25.730870	0.000297	20.813310
1494.401871	-2.979200	3.496000	-10.415000	25.675830	0.000295	20.812555
1495.394720	-3.018500	3.495500	-10.550000	25.655541	0.000294	20.837696
1496.403674	-3.011400	3.496600	-10.528000	25.705480	0.000293	20.824318
1497.399404	-3.025500	3.495000	-10.574000	25.715967	0.000293	20.816834
1498.396762	-3.012100	3.494100	-10.523000	25.676237	0.000295	20.824817
1499.404475	-3.011700	3.494700	-10.524000	25.713556	0.000292	20.836697
1500.396735	-3.001600	3.494200	-10.487000	25.740195	0.000292	20.801340
1501.396988	-2.982500	3.493900	-10.420000	25.719068	0.000293	20.800982
1502.400007	-3.019200	3.492700	-10.544000	25.676999	0.000292	20.827006
1503.401016	-2.988100	3.493200	-10.437000	25.629449	0.000291	20.814335
1504.407047	-2.981200	3.493400	-10.414000	25.611737	0.000294	20.824048
1505.400666	-3.024300	3.492500	-10.561000	25.581329	0.000291	20.815320
1506.402933	-2.980900	3.493000	-10.411000	25.630494	0.000291	20.819653
1507.404057	-2.980600	3.492800	-10.409000	25.673288	0.000291	20.797200
1508.404198	-2.984100	3.492200	-10.420000	25.733459	0.000291	20.798367
1509.399415	-2.994100	3.491700	-10.453000	25.753093	0.000290	20.821407
1510.403341	-2.986500	3.491500	-10.427000	25.772319	0.000289	20.828866
1511.400898	-2.997500	3.491200	-10.464000	25.755696	0.000289	20.825445
1512.399146	-2.968400	3.489900	-10.358000	25.741814	0.000289	20.825726
1513.404569	-2.989700	3.490800	-10.435000	25.695922	0.000291	20.832736
1514.402219	-3.000100	3.490500	-10.471000	25.722678	0.000286	20.805556
1515.401021	-3.009100	3.489100	-10.498000	25.756909	0.000288	20.824292
1516.404279	-3.009000	3.488300	-10.496000	25.778928	0.000288	20.821754
1517.402706	-3.021900	3.488500	-10.541000	25.771390	0.000286	20.791423
1518.400535	-2.983600	3.489000	-10.409000	25.735641	0.000285	20.833750
1519.400013	-2.987400	3.487800	-10.419000	25.750097	0.000287	20.836416
1520.404256	-3.001700	3.487900	-10.469000	25.751016	0.000286	20.799881
1521.409726	-3.008900	3.487600	-10.492000	25.768928	0.000287	20.812658
1522.405650	-3.002500	3.486500	-10.468000	25.729748	0.000286	20.802226
1523.407109	-3.010100	3.486600	-10.494000	25.745747	0.000286	20.820193
1524.403114	-3.022100	3.485500	-10.532000	25.737696	0.000285	20.830598
1525.406032	-2.997400	3.486500	-10.449000	25.727170	0.000284	20.813861
1526.408380	-2.995100	3.486600	-10.442000	25.747072	0.000283	20.821998
1527.404623	-2.987200	3.485900	-10.412000	25.705901	0.000285	20.810991
1528.407919	-3.027300	3.483900	-10.546000	25.749625	0.000284	20.804648
1529.405147	-2.988700	3.487000	-10.421000	25.823684	0.000285	20.816451
1530.408026	-3.008000	3.484400	-10.480000	25.788652	0.000284	20.815874
1531.409379	-3.037200	3.482300	-10.575000	25.804062	0.000284	20.806698
1532.405764	-2.996800	3.484100	-10.440000	25.801651	0.000282	20.808543
1533.410520	-2.989000	3.484400	-10.414000	25.802341	0.000284	20.792641
1534.409090	-2.988700	3.482100	-10.406000	25.781688	0.000283	20.782326
1535.408231	-3.001900	3.483700	-10.457000	25.722910	0.000282	20.813376
1536.410347	-3.011900	3.482100	-10.486000	25.699764	0.000281	20.815732
1537.411850	-2.973800	3.484000	-10.360000	25.751488	0.000280	20.814105
1538.413146	-3.016300	3.481400	-10.499000	25.790093	0.000280	20.802624
1539.411414	-2.993000	3.481700	-10.419000	25.807660	0.000282	20.799881
1540.413664	-3.032500	3.479100	-10.549000	25.767436	0.000280	20.803572
1541.408978	-3.006200	3.479400	-10.459000	25.770664	0.000278	20.807289
1542.413707	-2.984300	3.480400	-10.386000	25.798692	0.000276	20.809364
1543.413210	-3.026000	3.478300	-10.524000	25.791829	0.000281	20.804841
1544.413853	-2.989700	3.480000	-10.403000	25.791956	0.000279	20.781261
1545.417227	-3.009100	3.478500	-10.467000	25.796891	0.000278	20.799494
1546.418322	-3.004000	3.479600	-10.452000	25.795144	0.000278	20.799162
1547.411916	-3.000500	3.479200	-10.438000	25.807533	0.000277	20.796908
1548.417324	-2.989100	3.478500	-10.397000	25.844300	0.000278	20.793538
1549.416828	-2.996300	3.478300	-10.421000	25.866342	0.000276	20.789603
1550.417822	-3.020900	3.477700	-10.505000	25.780206	0.000276	20.779890
1551.422016	-3.008400	3.477400	-10.461000	25.771096	0.000276	20.778325
1552.418767	-3.007000	3.477300	-10.455000	25.767334	0.000276	20.803470
1553.419399	-3.009900	3.477300	-10.466000	25.785591	0.000272	20.800946
1554.420735	-3.002600	3.477200	-10.440000	25.788779	0.000276	20.790398
1555.418515	-2.997100	3.477000	-10.420000	25.777374	0.000275	20.806917
1556.413861	-2.975800	3.475300	-10.341000	25.738437	0.000275	20.815222
1557.422342	-2.990700	3.475400	-10.393000	25.778383	0.000275	20.790387
1558.424952	-2.973600	3.476800	-10.337000	25.774149	0.000275	20.816480
1559.419228	-2.979000	3.474900	-10.351000	25.752984	0.000274	20.801384
1560.415730	-2.987000	3.474400	-10.377000	25.730757	0.000273	20.792809
1561.422696	-2.999500	3.475000	-10.423000	25.723498	0.000273	20.796897
1562.418275	-3.000700	3.473000	-10.420000	25.742254	0.000274	20.795347
1563.420395	-3.007200	3.473800	-10.446000	25.754044	0.000275	20.796285
1564.419823	-2.979600	3.472200	-10.345000	25.716762	0.000274	20.792977
1565.418431	-2.998200	3.472100	-10.409000	25.730721	0.000274	20.810790
1566.421655	-3.000800	3.472000	-10.418000	25.716889	0.000273	20.800217
1567.424135	-3.001200	3.472600	-10.421000	25.740914	0.000272	20.792579
1568.420720	-2.999200	3.471500	-10.411000	25.788285	0.000272	20.781367
1569.424286	-3.009100	3.470500	-10.442000	25.791539	0.000271	20.800756
1570.426037	-3.014100	3.471100	-10.461000	25.781510	0.000272	20.785467
1571.420302	-3.003500	3.470300	-10.422000	25.765932	0.000269	20.805855
1572.421042	-3.020800	3.470000	-10.482000	25.782810	0.000272	20.794833
1573.424249	-2.985900	3.469500	-10.359000	25.764044	0.000270	20.784518
1574.419276	-2.992900	3.470300	-10.386000	25.762806	0.000271	20.759092
1575.424280	-3.000900	3.469500	-10.411000	25.795504	0.000271	20.782928
1576.423862	-2.983300	3.469400	-10.349000	25.846086	0.000271	20.775892
1577.423302	-2.998200	3.467800	-10.396000	25.817867	0.000270	20.771727
1578.423157	-2.998000	3.468400	-10.398000	25.789865	0.000269	20.791488
1579.426045	-3.001600	3.467800	-10.407000	25.805148	0.000266	20.788822
1580.424355	-3.000800	3.467500	-10.405000	25.787657	0.000269	20.806340
1581.424080	-3.007500	3.467000	-10.426000	25.747228	0.000267	20.775688
1582.422261	-3.011900	3.467200	-10.441000	25.710636	0.000266	20.771650
1583.422867	-3.006200	3.467500	-10.423000	25.715945	0.000267	20.766077
1584.427828	-2.979500	3.466700	-10.328000	25.750340	0.000266	20.784978
1585.425812	-2.991400	3.465600	-10.366000	25.715611	0.000267	20.794191
1586.429013	-2.996000	3.466100	-10.383000	25.744178	0.000264	20.788272
1587.427282	-3.009100	3.465900	-10.428000	25.810275	0.000264	20.764100
1588.427740	-2.988600	3.465300	-10.355000	25.837307	0.000264	20.778927
1589.425911	-3.001700	3.465600	-10.402000	25.837154	0.000265	20.779248
1590.427608	-3.025000	3.464000	-10.478000	25.789723	0.000265	20.786131
1591.429071	-3.004400	3.465300	-10.410000	25.811640	0.000267	20.776377
1592.423434	-3.010400	3.463700	-10.426000	25.803299	0.000265	20.776060
1593.426488	-3.001700	3.463800	-10.397000	25.818887	0.000264	20.749992
1594.426342	-2.995600	3.462200	-10.370000	25.789175	0.000264	20.762820
1595.426304	-2.979100	3.464700	-10.320000	25.755965	0.000264	20.760755
1596.427433	-2.990400	3.462200	-10.353000	25.749955	0.000262	20.761357
1597.424935	-3.002400	3.462800	-10.396000	25.737479	0.000262	20.759731
1598.428733	-2.999100	3.462300	-10.383000	25.765522	0.000265	20.740483
1599.431697	-2.996200	3.462000	-10.372000	25.787210	0.000263	20.765114
1600.424744	-2.992500	3.461300	-10.357000	25.813873	0.000264	20.766292
1601.432635	-3.002600	3.460700	-10.390000	25.800783	0.000261	20.775429
1602.426162	-3.030400	3.460400	-10.485000	25.784567	0.000260	20.765304
1603.428058	-2.995400	3.461300	-10.367000	25.787298	0.000261	20.767098
1604.428282	-2.990900	3.461100	-10.351000	25.769157	0.000259	20.766420
1605.426533	-2.993800	3.460900	-10.360000	25.762737	0.000261	20.782257
1606.431099	-2.983100	3.459500	-10.320000	25.821690	0.000259	20.774145
1607.428663	-3.017200	3.457900	-10.433000	25.856187	0.000258	20.753796
1608.426285	-2.993100	3.459700	-10.354000	25.827877	0.000258	20.770877
1609.432029	-2.988900	3.458900	-10.337000	25.783775	0.000259	20.750758
1610.430601	-3.001500	3.458300	-10.380000	25.765021	0.000257	20.753731
1611.433823	-3.049200	3.456500	-10.538000	25.818655	0.000258	20.746439
1612.432163	-2.974900	3.458700	-10.288000	25.865638	0.000257	20.766610
1613.432696	-3.004500	3.458500	-10.390000	25.891532	0.000257	20.768915
1614.430039	-2.992800	3.457300	-10.346000	25.893663	0.000258	20.762047
1615.432462	-3.013600	3.455700	-10.413000	25.812798	0.000257	20.768058
1616.433220	-3.003500	3.456300	-10.380000	25.803804	0.000256	20.749065
1617.429939	-3.016100	3.456900	-10.426000	25.806890	0.000256	20.752166
1618.433682	-3.040700	3.455600	-10.506000	25.794298	0.000258	20.750422
1619.436018	-3.002500	3.456000	-10.376000	25.757290	0.000256	20.761138
1620.433128	-2.975400	3.455000	-10.279000	25.720405	0.000255	20.757280
1621.441253	-2.998200	3.455000	-10.358000	25.716897	0.000254	20.767033
1622.439387	-2.978700	3.453700	-10.287000	25.748920	0.000253	20.756524
1623.436582	-2.986600	3.454200	-10.315000	25.804621	0.000252	20.775491
1624.441118	-3.010900	3.453800	-10.398000	25.797682	0.000255	20.745761
1625.441734	-3.004200	3.454000	-10.376000	25.765112	0.000250	20.751451
1626.447051	-3.011500	3.452500	-10.396000	25.740845	0.000253	20.741774
1627.444356	-3.007500	3.453500	-10.385000	25.702582	0.000253	20.768776
1628.447569	-3.006700	3.452300	-10.379000	25.764691	0.000252	20.753873
1629.438269	-2.984200	3.452100	-10.301000	25.735500	0.000254	20.756794
1630.444843	-2.982700	3.452900	-10.298000	25.730906	0.000252	20.775889
1631.443778	-2.999300	3.451700	-10.352000	25.715444	0.000251	20.764625
1632.439409	-2.986700	3.450200	-10.304000	25.733473	0.000251	20.761872
1633.444626	-3.013400	3.449200	-10.393000	25.778765	0.000252	20.766588
1634.443719	-2.989000	3.451300	-10.315000	25.800082	0.000250	20.753388
1635.439842	-3.007800	3.450800	-10.378000	25.816157	0.000250	20.758629
1636.441820	-3.021300	3.448900	-10.419000	25.774912	0.000250	20.745648
1637.442593	-3.007200	3.449200	-10.372000	25.736752	0.000249	20.748569
1638.445519	-3.005400	3.448900	-10.364000	25.777247	0.000251	20.768856
1639.442040	-3.003800	3.449200	-10.360000	25.794088	0.000250	20.761117
1640.442057	-2.987100	3.448300	-10.299000	25.808452	0.000249	20.775072
1641.439551	-2.990700	3.447700	-10.310000	25.803833	0.000250	20.780864
1642.443549	-2.985500	3.449200	-10.297000	25.827282	0.000250	20.757951
1643.440994	-3.000100	3.448500	-10.345000	25.862276	0.000249	20.757542
1644.441369	-3.000500	3.447400	-10.343000	25.923010	0.000247	20.760234
1645.441327	-2.999500	3.446600	-10.337000	25.918392	0.000248	20.752275
1646.449330	-2.996200	3.447600	-10.329000	25.929145	0.000250	20.760234
1647.444129	-2.980000	3.446400	-10.269000	25.906759	0.000250	20.748175
1648.442964	-2.976700	3.446300	-10.258000	25.891808	0.000247	20.753544
1649.447243	-2.974300	3.446600	-10.251000	25.922690	0.000247	20.755171
1650.448416	-3.011700	3.444600	-10.374000	25.949658	0.000247	20.756659
1651.447209	-2.997400	3.445500	-10.327000	25.922030	0.000246	20.740282
1652.445535	-2.987300	3.444000	-10.288000	25.932144	0.000247	20.766092
1653.441999	-3.000900	3.445000	-10.337000	25.893823	0.000246	20.767423
1654.443448	-3.011300	3.443300	-10.368000	25.865569	0.000246	20.774127
1655.447039	-3.022800	3.443300	-10.407000	25.848958	0.000247	20.737050
1656.447069	-2.987400	3.444000	-10.288000	25.828879	0.000244	20.765245
1657.447181	-2.978600	3.443900	-10.258000	25.823277	0.000244	20.764359
1658.449402	-2.992700	3.442600	-10.302000	25.852887	0.000244	20.761861
1659.444628	-2.986200	3.442900	-10.280000	25.850730	0.000246	20.743572
1660.447967	-3.004700	3.442500	-10.343000	25.840691	0.000246	20.762411
1661.448555	-3.002900	3.442000	-10.335000	25.864915	0.000243	20.770151
1662.451595	-2.982900	3.442600	-10.268000	25.871229	0.000243	20.758002
1663.445111	-3.021600	3.441700	-10.399000	25.929541	0.000242	20.780072
1664.448162	-3.010500	3.440000	-10.355000	25.959605	0.000243	20.764283
1665.450819	-3.003400	3.440200	-10.331000	25.971887	0.000242	20.761449
1666.447388	-2.999500	3.440100	-10.319000	25.930329	0.000242	20.761897
1667.445640	-2.985200	3.440700	-10.270000	25.862058	0.000239	20.759694
1668.449943	-3.007900	3.440300	-10.347000	25.817268	0.000241	20.756426
1669.444666	-2.992800	3.439200	-10.292000	25.779226	0.000242	20.769422
1670.446588	-2.993200	3.440100	-10.295000	25.829337	0.000239	20.764757
1671.449802	-3.000400	3.439900	-10.320000	25.822460	0.000240	20.770177
1672.448992	-3.006000	3.438100	-10.334000	25.845411	0.000241	20.768576
1673.447965	-3.010900	3.437000	-10.348000	25.857785	0.000241	20.778635
1674.450258	-2.985400	3.438400	-10.264000	25.868757	0.000239	20.794873
1675.450688	-2.994300	3.436900	-10.290000	25.917168	0.000239	20.783289
1676.447593	-2.996000	3.437400	-10.298000	25.939503	0.000238	20.793400
1677.454308	-2.993500	3.436800	-10.287000	25.931415	0.000240	20.784325
1678.451940	-3.003000	3.435800	-10.317000	25.929476	0.000236	20.781429
1679.449876	-2.994200	3.436300	-10.287000	25.919082	0.000238	20.787108
1680.451569	-3.050200	3.433400	-10.471000	25.945051	0.000236	20.777162
1681.453598	-2.985700	3.435400	-10.257000	25.925101	0.000236	20.796949
1682.449538	-2.989900	3.435500	-10.271000	25.941046	0.000238	20.764129
1683.454494	-3.003700	3.433700	-10.313000	25.935677	0.000236	20.772486
1684.452373	-3.000200	3.433800	-10.301000	25.883044	0.000237	20.789311
1685.450454	-3.009400	3.432900	-10.329000	25.896158	0.000236	20.773562
1686.455733	-3.011700	3.433300	-10.339000	25.826084	0.000237	20.778559
1687.450309	-3.017600	3.434300	-10.363000	25.841929	0.000235	20.781199
1688.450874	-3.002100	3.434000	-10.308000	25.838879	0.000236	20.788093
1689.458508	-3.011400	3.432100	-10.334000	25.889804	0.000236	20.776188
1690.465190	-3.012800	3.431800	-10.339000	25.910470	0.000233	20.785095
1691.452720	-3.017900	3.432500	-10.358000	25.895584	0.000234	20.787210
1692.454895	-3.005000	3.432300	-10.313000	25.895239	0.000235	20.776432
1693.454839	-2.988200	3.432400	-10.256000	25.897178	0.000234	20.803984
1694.459836	-2.978700	3.431700	-10.221000	25.896706	0.000232	20.784070
1695.460991	-2.972900	3.431300	-10.200000	25.852796	0.000233	20.784529
1696.457324	-2.976800	3.431300	-10.213000	25.850999	0.000232	20.774663
1697.453841	-2.982500	3.431000	-10.232000	25.857734	0.000232	20.789964
1698.459994	-2.997700	3.429900	-10.280000	25.881973	0.000233	20.793451
1699.459562	-3.006800	3.429900	-10.312000	25.864418	0.000230	20.792411
1700.456126	-2.992600	3.430400	-10.265000	25.838548	0.000232	20.804356
1701.461228	-2.985800	3.429600	-10.239000	25.871204	0.000231	20.789271
1702.460755	-2.980400	3.429900	-10.221000	25.852505	0.000232	20.795617
1703.458062	-2.975100	3.429300	-10.202000	25.871690	0.000230	20.788337
1704.460542	-3.001200	3.427400	-10.286000	25.859596	0.000230	20.809379
1705.461418	-3.023800	3.427000	-10.362000	25.858616	0.000230	20.809342
1706.458717	-3.003200	3.426900	-10.291000	25.896183	0.000230	20.800614
1707.464687	-3.004400	3.425800	-10.291000	25.938610	0.000230	20.787761
1708.460937	-2.983100	3.426500	-10.220000	25.888620	0.000228	20.798232
1709.459435	-3.009000	3.425800	-10.307000	25.877750	0.000227	20.801063
1710.463609	-2.995300	3.427200	-10.265000	25.878171	0.000229	20.795322
1711.463321	-2.997100	3.426600	-10.268000	25.887292	0.000227	20.825346
1712.465312	-2.987300	3.425900	-10.234000	25.919590	0.000227	20.794257
1713.465617	-3.001100	3.425700	-10.280000	25.920051	0.000229	20.807048
1714.465495	-2.995000	3.424300	-10.255000	25.917335	0.000227	20.816648
1715.465296	-3.003500	3.424700	-10.286000	25.924273	0.000227	20.807497
1716.466124	-2.965600	3.424400	-10.154000	25.931287	0.000227	20.834457
1717.461397	-3.019100	3.423400	-10.335000	25.945359	0.000227	20.806869
1718.462644	-2.970300	3.424800	-10.172000	25.929389	0.000225	20.796040
1719.466045	-2.999400	3.424100	-10.269000	25.972454	0.000226	20.816071
1720.462354	-3.016300	3.421700	-10.320000	25.934123	0.000225	20.787994
1721.467312	-2.975000	3.422900	-10.182000	25.950094	0.000226	20.811151
1722.464909	-3.006100	3.422700	-10.288000	25.960208	0.000225	20.807088
1723.461856	-3.011400	3.422000	-10.304000	25.972595	0.000225	20.802463
1724.464816	-3.016000	3.421200	-10.317000	25.956955	0.000226	20.812829
1725.467235	-2.986600	3.422500	-10.220000	25.945171	0.000225	20.803361
1726.462394	-2.981100	3.421900	-10.200000	25.963105	0.000223	20.808576
1727.465221	-2.983000	3.421200	-10.205000	25.998273	0.000223	20.826364
1728.469924	-2.999600	3.420500	-10.260000	25.984790	0.000224	20.798593
1729.464868	-3.008200	3.419400	-10.286000	26.006256	0.000224	20.829643
1730.466891	-3.017700	3.419300	-10.318000	26.026320	0.000222	20.823249
1731.470882	-3.012100	3.418500	-10.295000	25.981511	0.000222	20.825645
1732.463912	-3.011300	3.418500	-10.293000	25.936828	0.000222	20.834333
1733.471338	-2.998700	3.419200	-10.253000	25.902947	0.000221	20.839651
1734.471863	-2.996100	3.417500	-10.239000	25.897410	0.000221	20.824606
1735.468266	-3.009400	3.417900	-10.285000	25.916787	0.000222	20.817045
1736.468370	-2.997800	3.417400	-10.244000	25.944811	0.000221	20.823388
1737.473079	-2.994600	3.417500	-10.233000	25.965973	0.000221	20.837061
1738.466374	-3.004000	3.417300	-10.264000	25.976407	0.000220	20.830474
1739.468124	-3.000100	3.416600	-10.250000	25.955412	0.000218	20.839253
1740.470267	-2.995200	3.416300	-10.231000	25.956712	0.000219	20.814955
1741.467780	-2.996900	3.416100	-10.236000	25.947247	0.000219	20.811137
1742.469291	-2.995700	3.416000	-10.233000	25.946278	0.000218	20.840508
1743.468227	-3.007500	3.416100	-10.273000	25.993884	0.000223	20.839498
1744.476323	-3.022500	3.415500	-10.323000	25.994621	0.000218	20.821746
1745.473410	-2.989700	3.415200	-10.210000	25.964289	0.000218	20.828257
1746.474525	-2.982500	3.415200	-10.186000	26.007951	0.000217	20.837036
1747.473503	-2.987600	3.415700	-10.204000	25.992773	0.000218	20.840752
1748.472285	-2.991700	3.414600	-10.215000	25.957271	0.000219	20.826896
1749.472962	-3.030300	3.413400	-10.343000	25.958676	0.000217	20.842058
1750.470756	-2.992100	3.414100	-10.214000	25.923623	0.000216	20.832447
1751.476408	-2.998900	3.413000	-10.234000	25.915727	0.000216	20.843480
1752.475266	-3.012300	3.413400	-10.281000	25.895305	0.000215	20.844775
1753.477517	-3.006900	3.412700	-10.261000	25.926800	0.000219	20.826630
1754.478903	-3.019900	3.411300	-10.301000	25.946572	0.000217	20.834165
1755.476604	-3.030300	3.411400	-10.336000	25.949135	0.000218	20.820619
1756.474264	-3.016400	3.411100	-10.289000	25.950079	0.000215	20.856180
1757.478153	-2.998100	3.412000	-10.228000	25.953038	0.000214	20.837816
1758.476658	-3.023600	3.409800	-10.309000	25.946979	0.000215	20.842160
1759.473692	-2.995000	3.409900	-10.212000	25.927475	0.000215	20.839636
1760.475733	-2.985200	3.411700	-10.185000	25.955093	0.000212	20.827079
1761.477672	-2.992400	3.409600	-10.202000	26.001191	0.000214	20.840201
1762.476682	-2.984900	3.411300	-10.182000	26.039469	0.000213	20.835037
1763.480492	-3.010700	3.409200	-10.263000	26.082743	0.000212	20.844852
1764.477109	-3.002600	3.409100	-10.235000	26.032096	0.000214	20.853707
1765.478457	-3.014300	3.409300	-10.276000	25.959086	0.000212	20.850530
1766.482955	-3.014400	3.409300	-10.276000	25.963465	0.000213	20.841653
1767.476464	-3.007000	3.408800	-10.249000	25.977888	0.000213	20.840971
1768.478747	-2.987900	3.407400	-10.180000	25.985465	0.000212	20.859488
1769.479810	-2.982300	3.406500	-10.158000	26.026945	0.000212	20.865126
1770.480414	-3.010600	3.406700	-10.255000	26.027914	0.000211	20.851402
1771.481335	-3.011600	3.407200	-10.260000	26.045618	0.000212	20.857810
1772.482631	-2.997400	3.405700	-10.207000	26.014700	0.000213	20.862781
1773.487194	-3.011000	3.405000	-10.251000	26.030974	0.000210	20.854951
1774.480844	-3.003500	3.405300	-10.227000	26.033871	0.000210	20.867818
1775.483851	-3.006100	3.405900	-10.237000	26.039712	0.000208	20.855669
1776.487062	-2.992200	3.405000	-10.188000	26.032902	0.000210	20.875378
1777.479541	-2.987800	3.404500	-10.171000	26.016805	0.000208	20.865371
1778.481206	-2.995500	3.404400	-10.197000	25.994969	0.000206	20.864295
1779.485893	-3.002900	3.404200	-10.221000	26.028284	0.000208	20.870739
1780.481927	-2.983200	3.404200	-10.153000	26.027878	0.000209	20.869856
1781.487793	-3.009600	3.404000	-10.244000	25.963439	0.000208	20.859170
1782.486104	-3.004200	3.403700	-10.225000	25.926880	0.000208	20.875546
1783.488410	-2.998000	3.403100	-10.201000	25.902631	0.000206	20.861144
1784.487616	-3.010600	3.402200	-10.242000	25.858060	0.000206	20.871370
1785.485464	-3.007000	3.401300	-10.226000	25.904062	0.000206	20.882020
1786.487752	-2.991200	3.402800	-10.178000	25.958567	0.000207	20.871819
1787.486877	-2.999300	3.401900	-10.203000	25.988631	0.000206	20.847970
1788.486618	-3.030200	3.400100	-10.302000	25.999231	0.000207	20.859094
1789.488956	-2.998200	3.402100	-10.199000	26.026451	0.000205	20.866053
1790.494444	-3.017900	3.400600	-10.262000	26.082086	0.000205	20.874536
1791.487875	-3.014900	3.400000	-10.250000	26.111816	0.000204	20.882596
1792.491724	-2.985400	3.400400	-10.151000	26.106854	0.000203	20.873343
1793.491179	-2.995400	3.400000	-10.183000	26.079255	0.000204	20.887811
1794.487010	-2.983300	3.400700	-10.144000	26.104175	0.000204	20.871600
1795.488976	-2.986900	3.399400	-10.153000	26.085223	0.000202	20.870101
1796.493377	-2.977600	3.399300	-10.120000	26.106905	0.000203	20.894255
1797.490978	-2.998500	3.399600	-10.193000	26.085121	0.000199	20.876162
1798.490765	-3.011300	3.398600	-10.233000	26.102211	0.000204	20.872946
1799.487148	-3.018500	3.397900	-10.256000	26.102835	0.000203	20.887796
1800.490706	-2.978200	3.398800	-10.122000	26.110948	0.000204	20.876035
1801.493217	-2.997900	3.398800	-10.187000	26.064332	0.000202	20.901739
1802.492630	-2.998700	3.397900	-10.188000	26.063195	0.000200	20.887322
1803.490024	-2.994200	3.397100	-10.170000	26.047201	0.000201	20.895907
1804.487892	-3.001700	3.396400	-10.194000	26.055071	0.000202	20.894806
1805.489491	-2.987200	3.396900	-10.146000	26.043771	0.000203	20.891987
1806.492486	-2.996900	3.395600	-10.175000	26.028527	0.000201	20.881414
1807.491908	-3.007300	3.395000	-10.209000	26.068884	0.000200	20.896356
1808.489606	-2.982300	3.396000	-10.127000	26.035762	0.000199	20.887734
1809.494526	-2.985500	3.395900	-10.137000	26.039919	0.000202	20.905185
1810.492151	-3.007200	3.395400	-10.210000	26.018109	0.000201	20.902713
1811.490242	-2.974000	3.394900	-10.095000	25.993531	0.000197	20.896513
1812.496725	-3.013500	3.393900	-10.227000	25.970482	0.000198	20.889952
1813.493610	-2.993600	3.393800	-10.159000	26.004767	0.000198	20.910171
1814.494298	-2.994800	3.394000	-10.163000	26.029693	0.000198	20.878318
1815.497848	-2.989800	3.394700	-10.149000	26.057957	0.000198	20.902447
1816.495370	-2.971000	3.392700	-10.079000	26.063722	0.000195	20.897808
1817.491121	-2.996300	3.392800	-10.166000	26.092076	0.000199	20.886469
1818.493124	-2.995500	3.391700	-10.159000	26.076478	0.000199	20.893081
1819.491821	-2.979200	3.392400	-10.105000	26.046965	0.000197	20.919850
1820.491329	-2.994900	3.392300	-10.159000	26.064132	0.000198	20.909124
1821.495673	-2.989600	3.393100	-10.143000	26.106426	0.000197	20.912738
1822.490608	-2.990100	3.391900	-10.141000	26.099158	0.000197	20.909704
1823.496910	-3.013900	3.390100	-10.216000	26.074529	0.000197	20.933792
1824.495241	-2.987600	3.391200	-10.130000	26.043894	0.000195	20.912498
1825.491973	-2.978700	3.391200	-10.100000	26.071468	0.000196	20.907961
1826.497393	-3.000000	3.389700	-10.167000	26.037349	0.000194	20.905922
1827.495639	-2.985800	3.390500	-10.122000	26.035193	0.000194	20.905178
1828.495676	-3.004000	3.389700	-10.182000	26.058484	0.000195	20.907242
1829.498620	-2.997300	3.390700	-10.162000	26.077523	0.000194	20.915466
1830.498496	-3.014900	3.387300	-10.210000	26.103198	0.000195	20.901911
1831.494656	-3.014100	3.388100	-10.210000	26.105710	0.000195	20.919606
1832.492311	-3.000800	3.387500	-10.164000	26.082333	0.000193	20.902283
1833.495828	-3.015400	3.386600	-10.211000	26.134405	0.000195	20.901972
1834.498404	-2.997000	3.387400	-10.150000	26.138078	0.000194	20.908034
1835.493199	-3.016800	3.385400	-10.213000	26.175356	0.000193	20.923205
1836.497238	-3.031300	3.385500	-10.262000	26.175204	0.000193	20.930638
1837.494254	-3.000600	3.386400	-10.160000	26.163712	0.000194	20.921462
1838.496120	-3.006900	3.384900	-10.177000	26.136470	0.000191	20.904522
1839.501961	-3.003100	3.385200	-10.166000	26.088156	0.000191	20.917614
1840.500603	-2.993700	3.384500	-10.131000	26.133178	0.000190	20.925867
1841.495465	-2.980200	3.385500	-10.089000	26.125653	0.000191	20.906929
1842.498858	-2.992200	3.385600	-10.130000	26.079088	0.000190	20.929839
1843.499978	-3.023000	3.384300	-10.230000	26.043375	0.000191	20.941370
1844.495696	-3.014200	3.383900	-10.199000	26.034114	0.000189	20.939179
1845.498494	-2.979200	3.383600	-10.080000	26.031907	0.000189	20.934591
1846.495990	-2.977800	3.384400	-10.077000	26.007417	0.000189	20.920419
1847.495614	-2.990500	3.383200	-10.116000	26.037850	0.000188	20.945776
1848.496292	-2.984200	3.384000	-10.098000	26.066241	0.000187	20.938267
1849.497652	-2.996600	3.381300	-10.132000	26.117983	0.000188	20.940470
1850.500079	-2.996300	3.382900	-10.136000	26.174619	0.000187	20.937636
1851.495676	-3.002200	3.380800	-10.149000	26.212814	0.000187	20.930973
1852.495729	-2.989600	3.382100	-10.110000	26.247208	0.000186	20.931870
1853.496239	-2.989900	3.381100	-10.108000	26.231510	0.000188	20.950232
1854.500777	-3.008400	3.380500	-10.169000	26.203504	0.000187	20.952435
1855.501086	-2.977500	3.381700	-10.067000	26.170307	0.000186	20.929511
1856.501780	-3.000700	3.380200	-10.141000	26.140873	0.000186	20.933125
1857.498640	-3.006700	3.380500	-10.164000	26.129218	0.000184	20.936112
1858.503814	-2.977400	3.380100	-10.062000	26.151752	0.000184	20.951640
1859.505128	-2.998100	3.378800	-10.129000	26.187421	0.000185	20.941017
1860.504725	-2.999900	3.379100	-10.136000	26.212419	0.000184	20.957599
1861.505712	-3.004500	3.378700	-10.150000	26.251146	0.000183	20.939146
1862.499867	-2.981800	3.378900	-10.075000	26.269242	0.000183	20.944529
1863.504263	-3.020200	3.376600	-10.197000	26.264295	0.000183	20.931972
1864.506826	-3.006600	3.378800	-10.158000	26.291966	0.000183	20.937968
1865.501247	-3.006500	3.376500	-10.150000	26.304897	0.000182	20.935317
1866.506796	-2.995200	3.377600	-10.116000	26.322049	0.000182	20.936432
1867.505447	-3.017600	3.376300	-10.187000	26.301467	0.000183	20.924285
1868.502859	-3.016300	3.375900	-10.182000	26.266476	0.000182	20.922312
1869.501986	-2.997300	3.376200	-10.119000	26.248928	0.000183	20.907997
1870.504338	-2.998600	3.376000	-10.122000	26.201297	0.000182	20.915134
1871.505595	-3.016900	3.375300	-10.182000	26.204691	0.000181	20.903847
1872.508754	-2.987300	3.376200	-10.084000	26.173091	0.000182	20.927567
1873.501904	-3.023000	3.374300	-10.200000	26.203403	0.000182	20.924361
1874.509705	-3.009600	3.374500	-10.155000	26.236777	0.000179	20.923759
1875.508097	-3.005400	3.376100	-10.146000	26.228603	0.000180	20.906538
1876.502990	-2.998900	3.374200	-10.118000	26.244286	0.000181	20.909022
1877.508649	-3.040500	3.372700	-10.253000	26.283462	0.000179	20.915200
1878.506884	-2.993700	3.374600	-10.101000	26.302527	0.000179	20.907808
1879.504347	-2.993800	3.374000	-10.100000	26.285618	0.000179	20.917840
1880.509165	-3.010200	3.371600	-10.149000	26.272574	0.000180	20.901889
1881.505288	-3.007500	3.372900	-10.143000	26.300767	0.000181	20.917417
1882.507096	-3.039400	3.370600	-10.243000	26.265497	0.000178	20.899044
1883.509555	-3.022400	3.370600	-10.187000	26.270839	0.000179	20.919584
1884.505475	-3.022400	3.369800	-10.184000	26.292670	0.000179	20.908333
1885.507076	-3.013100	3.370900	-10.155000	26.266821	0.000178	20.898479
1886.509752	-3.010600	3.371300	-10.149000	26.236014	0.000178	20.904503
1887.510267	-2.994600	3.370600	-10.093000	26.266197	0.000178	20.915867
1888.509692	-2.989400	3.371400	-10.077000	26.272331	0.000177	20.919186
1889.508061	-2.979300	3.369900	-10.039000	26.253407	0.000176	20.920557
1890.508475	-3.019900	3.368000	-10.170000	26.254619	0.000179	20.912768
1891.508439	-2.984100	3.370900	-10.059000	26.214564	0.000175	20.904285
1892.507618	-2.990500	3.369200	-10.075000	26.215761	0.000174	20.902169
1893.508080	-3.014900	3.370100	-10.158000	26.196902	0.000174	20.907873
1894.510081	-2.998000	3.367600	-10.096000	26.154892	0.000173	20.889368
1895.510214	-2.973600	3.369700	-10.019000	26.180753	0.000176	20.882639
1896.510578	-2.998700	3.368500	-10.100000	26.181240	0.000174	20.883128
1897.508316	-3.014300	3.366900	-10.148000	26.191530	0.000172	20.894416
1898.516286	-2.995300	3.367700	-10.086000	26.281538	0.000175	20.900466
1899.512607	-3.009200	3.367700	-10.133000	26.300690	0.000176	20.885575
1900.508601	-2.980300	3.366400	-10.032000	26.280007	0.000172	20.889919
1901.512504	-3.028000	3.366400	-10.192000	26.269536	0.000171	20.877975
1902.511872	-2.969800	3.367200	-9.999400	26.221424	0.000172	20.880360
1903.515869	-3.000200	3.365800	-10.097000	26.190702	0.000171	20.907334
1904.517870	-2.989700	3.366700	-10.065000	26.248993	0.000172	20.905692
1905.516880	-2.988700	3.365600	-10.058000	26.246289	0.000170	20.882588
1906.514867	-3.011800	3.364900	-10.134000	26.293588	0.000169	20.894084
1907.517870	-3.014900	3.364300	-10.142000	26.291802	0.000169	20.895134
1908.517868	-2.992700	3.365100	-10.070000	26.260459	0.000168	20.889715
1909.518869	-3.011000	3.364600	-10.130000	26.240885	0.000169	20.872891
1910.514868	-3.008500	3.365000	-10.123000	26.233793	0.000170	20.893737
1911.517382	-3.008200	3.362900	-10.115000	26.163247	0.000169	20.899660
1912.517901	-3.027700	3.363400	-10.183000	26.157748	0.000167	20.882756
1913.523915	-3.011300	3.363200	-10.127000	26.137701	0.000168	20.881104
1914.516697	-3.011100	3.362300	-10.124000	26.120368	0.000170	20.899248
1915.519696	-3.018200	3.361300	-10.145000	26.117130	0.000165	20.882720
1916.516695	-3.011900	3.361800	-10.125000	26.134270	0.000167	20.880976
1917.518695	-3.008800	3.361500	-10.113000	26.223275	0.000165	20.863255
1918.520971	-2.997700	3.360700	-10.073000	26.277728	0.000169	20.862974
1919.518823	-3.029800	3.361100	-10.182000	26.261827	0.000166	20.888245
1920.520973	-3.024800	3.358600	-10.158000	26.263166	0.000165	20.878686
1921.516380	-3.008600	3.359400	-10.107000	26.263014	0.000167	20.878533
1922.521001	-2.985700	3.360900	-10.033000	26.273790	0.000166	20.849535
1923.520462	-2.985000	3.360000	-10.029000	26.292038	0.000165	20.869295
1924.517745	-3.002900	3.359300	-10.087000	26.267478	0.000165	20.873536
1925.520804	-3.013900	3.358500	-10.121000	26.270552	0.000164	20.871410
1926.521492	-3.015100	3.358300	-10.124000	26.261969	0.000165	20.877483
1927.520005	-3.001100	3.358300	-10.078000	26.315538	0.000163	20.873945
1928.522040	-3.003000	3.358400	-10.083000	26.287269	0.000163	20.868296
1929.523259	-2.996800	3.357100	-10.059000	26.307749	0.000163	20.885083
1930.523672	-3.006500	3.356900	-10.091000	26.275920	0.000162	20.858787
1931.523146	-2.990200	3.357200	-10.038000	26.300571	0.000162	20.881662
1932.530738	-3.001300	3.358000	-10.077000	26.297624	0.000165	20.884390
1933.523164	-3.010900	3.356300	-10.105000	26.345098	0.000161	20.859083
1934.524493	-3.014500	3.355100	-10.113000	26.323308	0.000162	20.884124
1935.525728	-3.005000	3.355500	-10.082000	26.349830	0.000159	20.861942
1936.527619	-2.998700	3.355400	-10.061000	26.351271	0.000160	20.890889
1937.524153	-2.999500	3.355600	-10.065000	26.315160	0.000161	20.858394
1938.524270	-3.007800	3.354600	-10.089000	26.337756	0.000162	20.873989
1939.528269	-3.006300	3.354000	-10.082000	26.331993	0.000160	20.862982
1940.525279	-3.011800	3.353500	-10.099000	26.298393	0.000160	20.873310
1941.528280	-3.019500	3.353900	-10.126000	26.304628	0.000158	20.878154
1942.527114	-3.015600	3.353900	-10.113000	26.347039	0.000160	20.857715
1943.523223	-3.002800	3.353600	-10.069000	26.388302	0.000161	20.851296
1944.526228	-3.014400	3.353300	-10.107000	26.401232	0.000159	20.872825
1945.529150	-2.998700	3.351100	-10.048000	26.420306	0.000156	20.863547
1946.527365	-3.029000	3.351600	-10.151000	26.345882	0.000158	20.856552
1947.528787	-2.983400	3.351600	-9.997600	26.358453	0.000156	20.845005
1948.527135	-2.997000	3.351300	-10.043000	26.384070	0.000155	20.859845
1949.528291	-2.995600	3.351200	-10.038000	26.384466	0.000157	20.844596
1950.531806	-2.985700	3.351900	-10.007000	26.388509	0.000154	20.856246
1951.526013	-3.007800	3.351100	-10.079000	26.332635	0.000156	20.866472
1952.528506	-2.987500	3.352000	-10.013000	26.337480	0.000154	20.850479
1953.525491	-2.973700	3.351400	-9.965400	26.312221	0.000153	20.890525
1954.525546	-2.988100	3.350100	-10.009000	26.280737	0.000154	20.864101
1955.528918	-2.990300	3.348600	-10.012000	26.323646	0.000155	20.862179
1956.526003	-2.991300	3.349700	-10.020000	26.364808	0.000154	20.858977
1957.529025	-2.989700	3.348800	-10.011000	26.414906	0.000154	20.867129
1958.528381	-2.996700	3.349600	-10.037000	26.420897	0.000152	20.853711
1959.525288	-3.006200	3.348400	-10.065000	26.414460	0.000154	20.857672
1960.527706	-2.968400	3.348900	-9.940300	26.380416	0.000153	20.859966
1961.528359	-2.985200	3.348200	-9.994000	26.373430	0.000153	20.849152
1962.528851	-2.999100	3.347900	-10.040000	26.388019	0.000151	20.851486
1963.529562	-3.015700	3.345900	-10.089000	26.413110	0.000154	20.843988
1964.528291	-3.005400	3.347100	-10.058000	26.448912	0.000151	20.854367
1965.530591	-3.004300	3.347000	-10.054000	26.471341	0.000154	20.842773
1966.528599	-3.019500	3.346100	-10.103000	26.473290	0.000153	20.858956
1967.526622	-3.005800	3.344300	-10.051000	26.426907	0.000154	20.857854
1968.528820	-3.008300	3.346000	-10.065000	26.421667	0.000150	20.834096
1969.530567	-3.010100	3.345600	-10.070000	26.478200	0.000152	20.835916
1970.525608	-3.001300	3.344500	-10.037000	26.442718	0.000151	20.848616
1971.528487	-3.004300	3.345200	-10.049000	26.435885	0.000152	20.840326
1972.530015	-3.014100	3.343200	-10.076000	26.443955	0.000152	20.845118
1973.528133	-2.994500	3.345400	-10.017000	26.434952	0.000151	20.848397
1974.529802	-3.021600	3.342900	-10.100000	26.447689	0.000149	20.864043
1975.525106	-3.017700	3.342900	-10.086000	26.468166	0.000151	20.853332
1976.529175	-3.017400	3.343700	-10.088000	26.501684	0.000150	20.843875
1977.529320	-3.007100	3.342300	-10.050000	26.495374	0.000149	20.847015
1978.527888	-3.018700	3.341100	-10.085000	26.507000	0.000149	20.844476
1979.530571	-3.001700	3.342400	-10.032000	26.551979	0.000146	20.835636
1980.533049	-2.988400	3.342500	-9.987700	26.566486	0.000146	20.840734
1981.531265	-3.008900	3.340600	-10.051000	26.516921	0.000148	20.848284
1982.530882	-2.986400	3.340500	-9.975500	26.494405	0.000148	20.836084
1983.531183	-2.996600	3.341400	-10.012000	26.498103	0.000146	20.836008
1984.532165	-2.972600	3.340700	-9.929800	26.494228	0.000146	20.848707
1985.528683	-2.996700	3.340800	-10.011000	26.495617	0.000143	20.843940
1986.531680	-2.998400	3.338800	-10.010000	26.474796	0.000146	20.843875
1987.532751	-2.977500	3.339600	-9.942500	26.476886	0.000147	20.849768
1988.529749	-2.972600	3.340500	-9.928700	26.499747	0.000143	20.838134
1989.533010	-2.987500	3.338700	-9.973300	26.552872	0.000144	20.849334
1990.529416	-2.973600	3.339900	-9.930500	26.570209	0.000144	20.841157
1991.533120	-2.973100	3.338000	-9.923000	26.531265	0.000145	20.844684
1992.533982	-3.000800	3.336800	-10.012000	26.492163	0.000144	20.837623
1993.530252	-2.965900	3.337800	-9.899000	26.526725	0.000145	20.833010
1994.535297	-2.964100	3.338200	-9.893700	26.555550	0.000141	20.841595
1995.533290	-2.975400	3.337500	-9.929400	26.534095	0.000144	20.829512
1996.530894	-2.976100	3.337200	-9.930900	26.462622	0.000142	20.832112
1997.530490	-2.977200	3.338400	-9.936900	26.427535	0.000139	20.829563
1998.531861	-2.985500	3.334800	-9.954100	26.421950	0.000141	20.842915
1999.540859	-2.983600	3.335400	-9.950800	26.442656	0.000141	20.826744
2000.530991	-2.993800	3.335600	-9.984800	26.443625	0.000140	20.837674
2001.535995	-2.995600	3.335700	-9.991200	26.482997	0.000141	20.838367
2002.534741	-3.006100	3.334700	-10.023000	26.457320	0.000140	20.840060
2003.532092	-2.992500	3.334700	-9.978500	26.497189	0.000140	20.859269
2004.541127	-3.005700	3.334400	-10.021000	26.545126	0.000140	20.853401
2005.533822	-3.002500	3.333700	-10.009000	26.530477	0.000142	20.837729
2006.538836	-3.017600	3.333400	-10.058000	26.521068	0.000142	20.837755
2007.534832	-2.998600	3.332700	-9.992100	26.533511	0.000140	20.820864
2008.535028	-2.990800	3.333200	-9.967600	26.562618	0.000141	20.834002
2009.534028	-2.990800	3.333800	-9.969600	26.588561	0.000141	20.845381
2010.537026	-3.034300	3.331200	-10.106000	26.608346	0.000141	20.850571
2011.534027	-2.985500	3.331800	-9.946000	26.583525	0.000139	20.826569
2012.535151	-2.994700	3.332200	-9.978100	26.525699	0.000137	20.846676
2013.537151	-3.012100	3.332100	-10.036000	26.528797	0.000139	20.820394
2014.537150	-3.000100	3.330900	-9.992500	26.515985	0.000136	20.835016
2015.538416	-2.995700	3.330200	-9.975400	26.545129	0.000138	20.832069
2016.534415	-3.019300	3.329400	-10.052000	26.585542	0.000135	20.816269
2017.538700	-2.996600	3.329600	-9.976800	26.592730	0.000136	20.801683
2018.538962	-2.975800	3.330700	-9.910300	26.591239	0.000137	20.841909
2019.535021	-2.983300	3.330300	-9.934400	26.533986	0.000136	20.821342
2020.538650	-2.982700	3.328100	-9.925800	26.510898	0.000134	20.825635
2021.538649	-2.984700	3.329100	-9.935400	26.504090	0.000133	20.838707
2022.536653	-2.988200	3.328400	-9.945300	26.526896	0.000134	20.826069
2023.540653	-2.994900	3.328000	-9.965800	26.522484	0.000134	20.837281
2024.538684	-2.985300	3.327300	-9.932000	26.507440	0.000134	20.825478
2025.539031	-3.002900	3.327700	-9.991600	26.547063	0.000133	20.826426
2026.538037	-3.000500	3.326900	-9.981700	26.573402	0.000132	20.835359
2027.536747	-2.981900	3.327500	-9.920800	26.595992	0.000134	20.816816
2028.539135	-2.985400	3.326100	-9.928600	26.570840	0.000133	20.818085
2029.537579	-2.996800	3.326400	-9.967700	26.571784	0.000133	20.836103
2030.536583	-3.015100	3.324300	-10.022000	26.550249	0.000133	20.803077
2031.540583	-2.998400	3.325300	-9.970000	26.591337	0.000132	20.820671
2032.537582	-2.987300	3.326100	-9.934500	26.653698	0.000131	20.822196
2033.540582	-2.997300	3.324900	-9.965200	26.678046	0.000132	20.792145
2034.541496	-2.999200	3.324700	-9.971100	26.678391	0.000130	20.795337
2035.542498	-3.019800	3.323400	-10.035000	26.650117	0.000128	20.803897
2036.542455	-3.026000	3.323200	-10.055000	26.599101	0.000130	20.818993
2037.546681	-2.983200	3.323400	-9.912900	26.557872	0.000128	20.832550
2038.542646	-2.993000	3.322200	-9.942600	26.548870	0.000131	20.819234
2039.544187	-2.994200	3.323700	-9.950200	26.556609	0.000127	20.805203
2040.545183	-3.007800	3.322500	-9.992700	26.566464	0.000128	20.811790
2041.547451	-3.001000	3.322200	-9.969100	26.587716	0.000128	20.826514
2042.546451	-3.001500	3.321600	-9.968000	26.625297	0.000126	20.824464
2043.543450	-3.006000	3.321400	-9.983000	26.644265	0.000128	20.815083
2044.547655	-2.981300	3.321700	-9.902700	26.647019	0.000126	20.817378
2045.549274	-2.994000	3.321600	-9.944200	26.628446	0.000129	20.804397
2046.548277	-2.991700	3.320400	-9.933000	26.653100	0.000128	20.797886
2047.547791	-2.988700	3.320900	-9.924600	26.658262	0.000130	20.818249
2048.555800	-3.000800	3.320500	-9.963500	26.668334	0.000125	20.804667
2049.547940	-2.965200	3.320100	-9.843900	26.663897	0.000125	20.818224
2050.548933	-2.990100	3.319500	-9.924400	26.711471	0.000125	20.801092
2051.546934	-3.010800	3.318900	-9.990400	26.716796	0.000126	20.803602
2052.550680	-2.983200	3.317900	-9.896300	26.726294	0.000123	20.812202
2053.551394	-2.995700	3.318400	-9.940500	26.674019	0.000123	20.804692
2054.550813	-3.008800	3.317700	-9.980700	26.683862	0.000124	20.792777
2055.552814	-2.987200	3.317600	-9.908700	26.715193	0.000122	20.805783
2056.554812	-3.026500	3.315700	-10.034000	26.742318	0.000124	20.803657
2057.552846	-3.007100	3.317100	-9.974000	26.728707	0.000123	20.794713
2058.552217	-3.021100	3.315400	-10.016000	26.679440	0.000123	20.806348
2059.555227	-2.980900	3.317100	-9.886800	26.661887	0.000124	20.813358
2060.550226	-3.017800	3.316700	-10.008000	26.759692	0.000124	20.793149
2061.553260	-3.008300	3.314600	-9.970400	26.739580	0.000124	20.783833
2062.550225	-2.995700	3.315500	-9.932100	26.746755	0.000122	20.800057
2063.554225	-3.007300	3.314000	-9.965300	26.701712	0.000119	20.771367
2064.554455	-2.995600	3.314300	-9.927700	26.672583	0.000122	20.780489
2065.551454	-3.009400	3.313900	-9.972200	26.637376	0.000121	20.794881
2066.555190	-3.011800	3.313300	-9.978200	26.652327	0.000119	20.807541
2067.555475	-2.996500	3.314800	-9.932300	26.716804	0.000120	20.793178
2068.555147	-3.028900	3.312500	-10.032000	26.670391	0.000120	20.793933
2069.558084	-3.019800	3.312100	-10.001000	26.658666	0.000120	20.792576
2070.554502	-3.014500	3.312300	-9.984400	26.633526	0.000117	20.788167
2071.556499	-3.016200	3.311700	-9.988100	26.625381	0.000119	20.794203
2072.554959	-2.969300	3.312200	-9.834400	26.588449	0.000118	20.796431
2073.556522	-2.993200	3.311800	-9.911900	26.657541	0.000118	20.787652
2074.558486	-2.977500	3.311500	-9.859300	26.670290	0.000119	20.778184
2075.555214	-2.979700	3.311900	-9.868400	26.669347	0.000117	20.775813
2076.556259	-2.985900	3.311000	-9.885800	26.615679	0.000119	20.783502
2077.557971	-2.995100	3.309200	-9.910700	26.668762	0.000118	20.797037
2078.560077	-2.989900	3.310600	-9.897600	26.748580	0.000116	20.786244
2079.559369	-3.000000	3.309800	-9.928300	26.765573	0.000117	20.787682
2080.557314	-3.026500	3.308800	-10.012000	26.770989	0.000116	20.801188
2081.558971	-2.991900	3.309200	-9.899500	26.766541	0.000116	20.776327
2082.559094	-3.008100	3.308300	-9.950600	26.794913	0.000116	20.806750
2083.561279	-2.978600	3.308500	-9.853900	26.799959	0.000114	20.793805
2084.559589	-2.992000	3.307100	-9.894200	26.807788	0.000117	20.798831
2085.559311	-3.019600	3.306500	-9.983200	26.734588	0.000114	20.781660
2086.558803	-3.006400	3.306000	-9.939000	26.697036	0.000115	20.770459
2087.561584	-3.014100	3.307000	-9.966700	26.719445	0.000115	20.767384
2088.560787	-2.996500	3.306400	-9.905900	26.700555	0.000113	20.766410
2089.562823	-3.006600	3.304800	-9.934400	26.682926	0.000111	20.802267
2090.564418	-2.997400	3.306000	-9.908400	26.727488	0.000111	20.791117
2091.560502	-3.008200	3.304700	-9.940100	26.683692	0.000111	20.774113
2092.561714	-3.012900	3.305100	-9.957300	26.726687	0.000112	20.779406
2093.562864	-3.015700	3.304600	-9.964900	26.697522	0.000112	20.771422
2094.563066	-3.005800	3.303200	-9.927900	26.752767	0.000111	20.762478
2095.570053	-3.008000	3.303700	-9.936800	26.819110	0.000112	20.785559
2096.560659	-3.007900	3.303100	-9.934500	26.820844	0.000108	20.784458
2097.563148	-3.004500	3.302700	-9.921800	26.807944	0.000110	20.789505
2098.562679	-3.007100	3.304300	-9.934500	26.839322	0.000111	20.752776
2099.559951	-3.001200	3.302700	-9.910800	26.888633	0.000112	20.766797
2100.563197	-2.991300	3.302500	-9.878500	26.823709	0.000112	20.770269
2101.563249	-3.025900	3.300400	-9.985400	26.794638	0.000111	20.789877
2102.564213	-2.994200	3.301900	-9.885900	26.761027	0.000110	20.763671
2103.563087	-3.004100	3.301300	-9.916200	26.748943	0.000109	20.767643
2104.564348	-2.997800	3.300300	-9.893000	26.758198	0.000108	20.758455
2105.562875	-2.986700	3.301900	-9.860600	26.725464	0.000108	20.767271
2106.564543	-2.996600	3.300900	-9.890700	26.716311	0.000109	20.781777
2107.560884	-2.999100	3.300000	-9.896000	26.733532	0.000108	20.764003
2108.564432	-2.995300	3.300600	-9.885700	26.729850	0.000108	20.767413
2109.563180	-3.001500	3.299900	-9.904600	26.760298	0.000108	20.743971
2110.565320	-2.992000	3.299900	-9.872300	26.767793	0.000106	20.760516
2111.562986	-2.996200	3.298500	-9.882400	26.754207	0.000107	20.770090
2112.562945	-3.005300	3.298000	-9.910800	26.788188	0.000106	20.770590
2113.561892	-3.005300	3.296700	-9.906100	26.781074	0.000105	20.779559
2114.564859	-2.985100	3.298300	-9.845300	26.793401	0.000105	20.770616
2115.565412	-2.995700	3.297600	-9.877800	26.844661	0.000105	20.766680
2116.570482	-3.004100	3.297200	-9.904100	26.810033	0.000104	20.750828
2117.562119	-3.010400	3.297400	-9.926000	26.812594	0.000103	20.761938
2118.564518	-2.993500	3.294700	-9.861900	26.799927	0.000104	20.751572
2119.566636	-2.990000	3.295700	-9.853000	26.786058	0.000105	20.754224
2120.563479	-3.004100	3.294900	-9.897900	26.841284	0.000105	20.760439
2121.574160	-2.995300	3.293900	-9.865400	26.884643	0.000104	20.753775
2122.567911	-2.984800	3.293800	-9.831200	26.883892	0.000103	20.761081
2123.567284	-3.021500	3.294200	-9.952700	26.871251	0.000102	20.755482
2124.569421	-3.015500	3.292500	-9.927000	26.875774	0.000105	20.757660
2125.568768	-2.993400	3.292800	-9.855600	26.911535	0.000101	20.771334
2126.568765	-2.995200	3.294300	-9.866600	26.957974	0.000101	20.754020
2127.569793	-3.007200	3.291700	-9.898200	26.970501	0.000104	20.785585
2128.568421	-3.001200	3.292700	-9.881300	27.004921	0.000101	20.772308
2129.570273	-2.997800	3.293300	-9.871000	27.034600	0.000102	20.757109
2130.572281	-2.998600	3.292900	-9.873600	26.938413	0.000100	20.758532
2131.567455	-3.008600	3.291100	-9.900200	26.888597	0.000101	20.757751
2132.569848	-2.989100	3.291800	-9.838600	26.871570	9.974981E-5	20.777615
2133.571030	-3.006800	3.291000	-9.894200	26.848605	0.000100	20.754049
2134.571877	-3.008100	3.289700	-9.895000	26.884748	0.000100	20.764787
2135.572788	-3.002300	3.290800	-9.879200	26.925990	9.895776E-5	20.769274
2136.573521	-3.004300	3.288900	-9.880600	26.909014	9.882575E-5	20.768799
2137.577703	-2.987600	3.289100	-9.826100	26.928921	0.000100	20.768427
2138.576064	-3.010100	3.288200	-9.897300	26.975144	9.941979E-5	20.760855
2139.574460	-3.014300	3.289400	-9.914600	26.972761	9.965081E-5	20.758933
2140.571314	-3.017800	3.287600	-9.919100	27.016702	9.912277E-5	20.770404
2141.571694	-3.011500	3.288600	-9.902600	27.028971	0.000100	20.756190
2142.574551	-3.016000	3.286000	-9.909600	27.048241	0.000101	20.778414
2143.577610	-3.023300	3.287100	-9.937100	27.018319	0.000100	20.761599
2144.574356	-2.999900	3.286100	-9.857300	26.946229	9.925478E-5	20.769711
2145.574106	-2.995900	3.285000	-9.840900	26.920437	9.823170E-5	20.773647
2146.583392	-3.008600	3.286000	-9.885600	26.927064	9.770366E-5	20.751861
2147.578071	-3.008200	3.284700	-9.879600	26.950959	9.684560E-5	20.764510
2148.578217	-2.998500	3.285300	-9.850300	27.004138	9.885875E-5	20.753028
2149.575902	-2.997800	3.285400	-9.848400	27.028515	9.443643E-5	20.759050
2150.577832	-2.999300	3.284600	-9.851100	26.995205	9.420541E-5	20.769649
2151.580573	-2.993400	3.284400	-9.831100	27.041209	9.661458E-5	20.772764
2152.575927	-3.018100	3.284400	-9.911600	27.060028	9.529449E-5	20.768931
2153.578534	-3.012000	3.283200	-9.888200	27.065203	9.380938E-5	20.763704
2154.579894	-3.019700	3.283000	-9.913200	27.115787	9.740664E-5	20.756730
2155.577895	-2.998600	3.283100	-9.843700	27.122032	9.413940E-5	20.762537
2156.581167	-3.000400	3.281700	-9.845700	27.046050	9.453543E-5	20.763883
2157.579710	-2.995100	3.281400	-9.826900	27.009426	9.338035E-5	20.771149
2158.582808	-3.021300	3.281900	-9.915000	27.051004	9.189524E-5	20.760330
2159.584435	-2.989800	3.281600	-9.810500	27.076721	9.532749E-5	20.762486
2160.580189	-2.981500	3.280900	-9.781300	27.093056	9.192824E-5	20.781285
2161.582153	-3.022800	3.278800	-9.910500	27.092624	9.169723E-5	20.787015
2162.582683	-2.988600	3.279800	-9.800800	27.018410	9.189524E-5	20.799149
2163.583317	-3.014800	3.279600	-9.886300	27.012422	9.338035E-5	20.776058
2164.585191	-3.017600	3.280100	-9.897500	27.013757	9.034413E-5	20.774081
2165.581185	-3.008000	3.278200	-9.860100	27.062679	9.156522E-5	20.746466
2166.585234	-3.008800	3.278300	-9.862500	27.100457	9.130120E-5	20.787780
2167.584267	-3.009800	3.277300	-9.863200	27.073229	9.107018E-5	20.776992
2168.587234	-3.018000	3.276300	-9.886900	27.110115	8.862800E-5	20.781372
2169.584234	-3.000700	3.276800	-9.831500	27.096559	9.100417E-5	20.754461
2170.584236	-2.981200	3.276800	-9.767700	27.118423	9.041013E-5	20.765072
2171.584235	-3.013800	3.275100	-9.869400	27.161172	9.090517E-5	20.769660
2172.586241	-3.012100	3.276300	-9.867500	27.133419	8.942006E-5	20.788214
2173.584235	-2.994200	3.276100	-9.808200	27.129992	8.740691E-5	20.783345
2174.582392	-2.961800	3.277300	-9.706100	27.140860	8.849599E-5	20.765353
2175.586669	-3.006600	3.275700	-9.847700	27.095931	8.895803E-5	20.784177
2176.583692	-3.003500	3.275200	-9.836100	27.047867	8.664786E-5	20.775193
2177.586691	-3.019200	3.274300	-9.884600	27.074792	8.694488E-5	20.779038
2178.586723	-2.996500	3.274100	-9.810300	27.106887	8.631783E-5	20.778126
2179.593690	-3.026400	3.271400	-9.899000	27.122140	8.892502E-5	20.792518
2180.588818	-2.964800	3.273600	-9.704700	27.115170	8.935405E-5	20.787405
2181.588099	-2.993000	3.273900	-9.798400	27.132396	8.664786E-5	20.777228
2182.588551	-2.995600	3.271700	-9.800000	27.211276	8.635083E-5	20.767424
2183.599552	-2.999300	3.271900	-9.812800	27.232961	8.499774E-5	20.783546
2184.586551	-3.017600	3.271300	-9.870600	27.195937	8.489873E-5	20.789454
2185.589346	-3.009300	3.270400	-9.840000	27.221582	8.489873E-5	20.790118
2186.592349	-3.000500	3.270200	-9.811000	27.162452	8.430469E-5	20.787543
2187.588345	-2.988400	3.272200	-9.777800	27.129426	8.328161E-5	20.778508
2188.591281	-2.985900	3.271100	-9.766200	27.128737	8.625183E-5	20.768806
2189.597307	-2.987700	3.269900	-9.768600	27.166452	8.529476E-5	20.762168
2190.590521	-2.991000	3.270300	-9.780900	27.103761	8.493173E-5	20.777352
2191.593148	-2.996900	3.270100	-9.799400	27.116058	8.295159E-5	20.788772
2192.591570	-2.987100	3.268100	-9.761100	27.114503	8.443669E-5	20.773931
2193.591877	-2.997800	3.269000	-9.798800	27.089287	8.245655E-5	20.795512
2194.592875	-3.011300	3.267000	-9.837000	27.036493	8.272057E-5	20.783195
2195.591875	-3.003100	3.267200	-9.810900	27.015073	8.328161E-5	20.790577
2196.593016	-3.014500	3.266100	-9.845100	27.089835	8.176350E-5	20.790847
2197.593053	-2.992900	3.267800	-9.779000	27.141030	8.120246E-5	20.799663
2198.590055	-3.012300	3.266900	-9.839700	27.181178	8.143348E-5	20.807326
2199.594959	-3.017300	3.265900	-9.853200	27.233504	8.229154E-5	20.788834
2200.595959	-2.979400	3.265900	-9.729600	27.280592	8.295159E-5	20.799689
2201.595655	-3.012500	3.265200	-9.834900	27.283928	8.245655E-5	20.791190
2202.595957	-2.986600	3.264900	-9.750300	27.240688	8.083943E-5	20.801749
2203.593956	-3.010400	3.265200	-9.828900	27.208212	8.262156E-5	20.800852
2204.596011	-3.025900	3.263300	-9.873900	27.210786	8.064142E-5	20.798700
2205.596432	-3.014700	3.262500	-9.834900	27.217295	7.806723E-5	20.809040
2206.596436	-2.997000	3.263800	-9.781000	27.258474	8.017938E-5	20.800199
2207.599674	-2.987900	3.263200	-9.749500	27.287993	8.212653E-5	20.787692
2208.596750	-3.007700	3.262700	-9.812400	27.303570	7.902430E-5	20.812844
2209.598293	-2.997100	3.261200	-9.773500	27.290346	7.852926E-5	20.791008
2210.599328	-3.009900	3.261400	-9.815300	27.265388	8.057541E-5	20.808103
2211.597640	-3.012000	3.261000	-9.821500	27.224185	7.810023E-5	20.794633
2212.601775	-3.007700	3.261300	-9.808600	27.220095	7.958534E-5	20.807588
2213.599774	-3.006300	3.260300	-9.800400	27.265424	8.044340E-5	20.814777
2214.596087	-3.010300	3.259800	-9.812100	27.290640	7.885929E-5	20.822123
2215.599312	-3.030700	3.259300	-9.877400	27.268075	7.879328E-5	20.815073
2216.600654	-2.999200	3.259900	-9.776400	27.291760	7.786921E-5	20.831310
2217.599983	-2.972000	3.259000	-9.684300	27.281248	7.796822E-5	20.812202
2218.599980	-2.995100	3.258700	-9.759400	27.231981	7.757219E-5	20.830923
2219.596164	-2.977200	3.258100	-9.699300	27.207403	7.819924E-5	20.812366
2220.601914	-2.979000	3.257000	-9.701300	27.224576	7.595507E-5	20.824898
2221.597916	-2.989600	3.258700	-9.741300	27.218296	7.651612E-5	20.822374
2222.600915	-3.009300	3.257000	-9.800600	27.247983	7.744018E-5	20.836113
2223.598301	-3.002400	3.256800	-9.777800	27.234744	7.654912E-5	20.827539
2224.599300	-3.017200	3.256500	-9.824900	27.249840	7.608708E-5	20.817119
2225.598507	-2.998900	3.254500	-9.759200	27.314393	7.740718E-5	20.810929
2226.599149	-2.992900	3.255600	-9.743100	27.313095	7.843026E-5	20.817210
2227.601514	-3.012800	3.255400	-9.807100	27.361655	7.744018E-5	20.812005
2228.602515	-3.032400	3.254000	-9.866900	27.370447	7.496500E-5	20.846927
2229.599517	-2.989600	3.254700	-9.728900	27.366165	7.562505E-5	20.810378
2230.602556	-3.008100	3.253200	-9.785000	27.373706	7.509701E-5	20.821284
2231.603285	-2.989300	3.254000	-9.726200	27.391758	7.341389E-5	20.833280
2232.603090	-2.965700	3.254100	-9.649200	27.391845	7.536103E-5	20.824832
2233.604091	-3.028900	3.251800	-9.848300	27.375628	7.473399E-5	20.824639
2234.600093	-2.983100	3.253200	-9.704000	27.375936	7.453597E-5	20.822104
2235.604123	-3.006200	3.251400	-9.773700	27.418392	7.503101E-5	20.820244
2236.600122	-2.986600	3.250300	-9.706400	27.437715	7.387592E-5	20.828779
2237.606122	-3.016200	3.250800	-9.804000	27.392560	7.301786E-5	20.830767
2238.604123	-3.025700	3.248700	-9.828700	27.385718	7.232481E-5	20.836212
2239.604123	-2.993300	3.249000	-9.724300	27.397476	7.377692E-5	20.862738
2240.605581	-3.014700	3.248500	-9.792500	27.424939	7.258883E-5	20.838210
2241.603582	-2.979500	3.249900	-9.682400	27.497341	7.291885E-5	20.838032
2242.602607	-2.984200	3.248700	-9.693600	27.520626	7.456897E-5	20.833484
2243.603693	-3.000400	3.246200	-9.739200	27.457981	7.305086E-5	20.818822
2244.608690	-3.024600	3.246800	-9.819800	27.464732	7.001464E-5	20.827035
2245.602693	-2.993100	3.246500	-9.716300	27.476007	7.113672E-5	20.864930
2246.604689	-3.030800	3.245700	-9.836600	27.508956	6.955261E-5	20.841183
2247.605694	-2.984100	3.248400	-9.691600	27.446264	7.146675E-5	20.855396
2248.602211	-2.975000	3.247200	-9.659000	27.429449	7.090571E-5	20.844170
2249.605211	-3.010000	3.246100	-9.770200	27.430457	7.074069E-5	20.837124
2250.602210	-3.017600	3.244800	-9.791400	27.378344	7.143374E-5	20.841595
2251.603211	-3.003400	3.244700	-9.744100	27.417297	6.819951E-5	20.846169
2252.607265	-3.018000	3.244900	-9.792200	27.444723	7.047667E-5	20.836303
2253.603267	-2.992700	3.244100	-9.708000	27.460048	7.255583E-5	20.845556
2254.606264	-2.981500	3.243200	-9.669400	27.458645	6.928859E-5	20.862161
2255.608306	-2.988500	3.244100	-9.694300	27.502195	6.882655E-5	20.851924
2256.606306	-2.995900	3.243300	-9.715700	27.453486	6.856253E-5	20.834687
2257.605305	-2.992400	3.242800	-9.703000	27.429921	6.701142E-5	20.852230
2258.610306	-3.013500	3.242600	-9.770700	27.445499	6.777048E-5	20.850833
2259.609308	-2.994100	3.243500	-9.710800	27.405235	6.866154E-5	20.868646
2260.610306	-2.992300	3.242000	-9.700200	27.410916	6.773747E-5	20.857293
2261.606306	-2.988400	3.242300	-9.688300	27.375744	6.750646E-5	20.861738
2262.609307	-3.007600	3.242300	-9.750400	27.362891	6.876055E-5	20.861137
2263.609821	-3.016700	3.240200	-9.773800	27.381400	6.704442E-5	20.861264
2264.607822	-2.993200	3.239800	-9.696800	27.344418	6.915658E-5	20.848244
2265.611308	-2.981900	3.238700	-9.656400	27.417206	6.585634E-5	20.860775
2266.610309	-2.995400	3.240600	-9.706100	27.431704	6.691241E-5	20.863033
2267.610827	-2.996700	3.238600	-9.704000	27.442418	6.493227E-5	20.861009
2268.611831	-2.976400	3.237800	-9.636400	27.477420	6.595534E-5	20.858292
2269.611826	-2.990300	3.239300	-9.685200	27.469854	6.549331E-5	20.850680
2270.612831	-3.010300	3.237900	-9.745800	27.471663	6.582333E-5	20.859612
2271.610828	-3.013200	3.238700	-9.757700	27.503316	6.546031E-5	20.844991
2272.622828	-2.998500	3.236300	-9.703100	27.524320	6.499827E-5	20.877027
2273.614833	-3.022900	3.235200	-9.778900	27.492922	6.447023E-5	20.866775
2274.612828	-3.008800	3.235700	-9.734600	27.512933	6.476726E-5	20.865097
2275.613832	-3.003600	3.234800	-9.715300	27.474136	6.539430E-5	20.863996
2276.618844	-3.021400	3.232700	-9.766600	27.477384	6.694542E-5	20.857307
2277.610843	-3.006300	3.232700	-9.716800	27.532879	6.522929E-5	20.876155
2278.611843	-2.998600	3.232700	-9.692700	27.556507	6.519629E-5	20.888074
2279.614843	-2.976900	3.233300	-9.624200	27.464315	6.410721E-5	20.882563
2280.611842	-2.979700	3.232900	-9.632300	27.416231	6.229207E-5	20.869751
2281.613843	-3.002500	3.234100	-9.709300	27.392549	6.232508E-5	20.886229
2282.614843	-3.007400	3.231700	-9.717900	27.449056	6.381019E-5	20.854411
2283.612844	-2.989100	3.231500	-9.658000	27.532128	6.308413E-5	20.876823
2284.612844	-3.023700	3.230400	-9.766300	27.514104	6.437123E-5	20.870068
2285.617844	-2.974700	3.231400	-9.611500	27.523301	6.268810E-5	20.864623
2286.615844	-3.011800	3.229600	-9.726200	27.523773	6.090597E-5	20.872209
2287.612844	-3.016200	3.230400	-9.742900	27.545121	6.364517E-5	20.882782
2288.615839	-2.987000	3.229500	-9.645700	27.591851	6.400820E-5	20.894712
2289.615839	-2.983900	3.229100	-9.634100	27.605400	6.219307E-5	20.873734
2290.615839	-2.995700	3.229200	-9.672900	27.549576	6.146701E-5	20.863084
2291.614839	-3.005900	3.229500	-9.706200	27.585761	6.130200E-5	20.902334
2292.616838	-2.991900	3.227900	-9.656300	27.598611	6.067496E-5	20.878282
2293.614841	-2.992800	3.227100	-9.657900	27.611664	6.004791E-5	20.868657
2294.617906	-3.010400	3.225600	-9.709400	27.629252	6.116999E-5	20.882560
2295.613906	-3.006000	3.227200	-9.699800	27.612110	6.070796E-5	20.900397
2296.616905	-3.013000	3.225800	-9.718100	27.592304	6.034493E-5	20.898960
2297.615909	-2.994100	3.224200	-9.653200	27.581044	5.981689E-5	20.886210
2298.621906	-2.966500	3.225900	-9.568100	27.589222	5.988290E-5	20.897283
2299.623908	-2.958400	3.226500	-9.544100	27.614107	5.968488E-5	20.900984
2300.622906	-3.009300	3.224000	-9.701400	27.652838	5.816677E-5	20.889697
2301.619905	-2.997400	3.224800	-9.665100	27.742897	5.968488E-5	20.872216
2302.618906	-2.993100	3.223800	-9.648400	27.713608	5.773774E-5	20.893475
2303.617908	-2.993200	3.222500	-9.644800	27.685133	5.988290E-5	20.865298
2304.620910	-3.023600	3.222100	-9.740900	27.658503	5.856280E-5	20.898716
2305.620939	-2.972600	3.221900	-9.575800	27.671824	5.813377E-5	20.898844
2306.623940	-3.021600	3.221400	-9.733300	27.656999	5.882682E-5	20.897676
2307.621999	-3.006400	3.221500	-9.683600	27.658311	5.602162E-5	20.889040
2308.623000	-2.994200	3.222000	-9.646600	27.663342	5.678067E-5	20.902162
2309.623039	-3.003900	3.220800	-9.673700	27.648771	6.017992E-5	20.890820
2310.623056	-2.996000	3.221000	-9.648200	27.629425	5.605462E-5	20.917345
2311.625158	-3.017700	3.219200	-9.712800	27.595754	5.727571E-5	20.889631
2312.621158	-2.999500	3.219700	-9.656700	27.551363	5.615362E-5	20.913716
2313.622155	-2.994700	3.218100	-9.636100	27.565439	5.777074E-5	20.919343
2314.623158	-3.034500	3.216000	-9.757700	27.602308	5.602162E-5	20.893854
2315.620156	-3.018600	3.216600	-9.708800	27.610218	5.750672E-5	20.899442
2316.623160	-2.993300	3.217300	-9.628900	27.596588	5.559258E-5	20.916072
2317.625158	-3.017100	3.216000	-9.702200	27.609250	5.582360E-5	20.934026
2318.621159	-2.978000	3.218400	-9.583100	27.609337	5.529556E-5	20.914675
2319.624372	-2.990100	3.216800	-9.617700	27.632619	5.447050E-5	20.912972
2320.624372	-2.992100	3.216300	-9.623000	27.593162	5.229234E-5	20.938701
2321.622370	-3.006900	3.215200	-9.666200	27.575357	5.542757E-5	20.910831
2322.625371	-2.986800	3.213800	-9.598000	27.577637	5.437149E-5	20.915970
2323.622370	-3.017300	3.213800	-9.695700	27.627167	5.588961E-5	20.909383
2324.624372	-3.000300	3.214000	-9.641700	27.613324	5.496554E-5	20.916790
2325.625507	-2.995800	3.213000	-9.625000	27.638629	5.344743E-5	20.927078
2326.622505	-2.977400	3.213300	-9.566400	27.677192	5.539457E-5	20.908986
2327.624949	-3.002300	3.211300	-9.639400	27.746035	5.390946E-5	20.916148
2328.626589	-2.985100	3.211600	-9.586000	27.744151	5.341442E-5	20.917097
2329.621591	-2.993000	3.211700	-9.612200	27.794413	5.536157E-5	20.915995
2330.625803	-3.009500	3.209800	-9.658900	27.840417	5.522956E-5	20.923887
2331.622324	-3.005600	3.210000	-9.646400	27.913733	5.608762E-5	20.922286
2332.626399	-3.010600	3.208500	-9.658600	27.929066	5.460251E-5	20.936768
2333.626397	-2.994100	3.208600	-9.606000	27.947728	5.186331E-5	20.929474
2334.626409	-2.993100	3.208700	-9.603400	27.922162	5.496554E-5	20.926028
2335.628532	-3.015700	3.207900	-9.673300	27.827190	5.252336E-5	20.930962
2336.628589	-3.006800	3.208500	-9.647000	27.786621	5.110425E-5	20.935178
2337.627000	-3.005100	3.207900	-9.639100	27.765100	5.199532E-5	20.923953
2338.629150	-2.997000	3.207000	-9.610600	27.783819	5.410747E-5	20.937100
2339.630491	-2.999400	3.205700	-9.614000	27.831926	5.291939E-5	20.935255
2340.629406	-2.990800	3.207100	-9.591200	27.845093	5.414048E-5	20.928592
2341.627404	-3.002200	3.205900	-9.623200	27.852823	5.113726E-5	20.931630
2342.633820	-3.014200	3.203500	-9.655000	27.879687	5.156629E-5	20.931166
2343.631818	-2.999200	3.204400	-9.609900	27.869642	5.080723E-5	20.958037
2344.631067	-2.992100	3.204100	-9.585500	27.833811	5.331542E-5	20.933358
2345.628247	-3.006600	3.203000	-9.629400	27.809286	5.018019E-5	20.929066
2346.631962	-3.009000	3.202400	-9.634200	27.771112	5.338142E-5	20.938063
2347.630962	-3.005800	3.201800	-9.623100	27.831187	5.018019E-5	20.939252
2348.632963	-2.991800	3.202100	-9.579400	27.864409	5.189631E-5	20.942815
2349.635963	-3.003900	3.202000	-9.617700	27.826896	5.400847E-5	20.931141
2350.631964	-3.016800	3.200400	-9.653900	27.826541	5.021319E-5	20.958281
2351.633964	-3.011800	3.200700	-9.639400	27.817245	5.093924E-5	20.943712
2352.634965	-3.004900	3.198600	-9.610200	27.855088	5.113726E-5	20.952399
2353.634965	-3.011100	3.200200	-9.635300	27.907852	4.915711E-5	20.944813
2354.635964	-2.991400	3.198700	-9.568300	27.884793	5.117026E-5	20.941520
2355.630962	-3.024100	3.197800	-9.669500	27.884195	5.140128E-5	20.956563
2356.631963	-3.008600	3.198400	-9.622200	27.901191	5.057622E-5	20.957548
2357.636963	-3.020500	3.197400	-9.656800	27.851993	4.991617E-5	20.937906
2358.630962	-2.989300	3.197700	-9.558500	27.824464	5.097225E-5	20.945287
2359.633963	-3.018600	3.196700	-9.648600	27.780278	5.047721E-5	20.948708
2360.639971	-2.975600	3.197000	-9.512400	27.822681	5.011418E-5	20.941597
2361.634962	-2.975400	3.197200	-9.512300	27.799266	4.849706E-5	20.939368
2362.637962	-2.989500	3.196200	-9.553900	27.834829	4.971815E-5	20.968043
2363.636963	-2.998500	3.194500	-9.578400	27.869805	5.018019E-5	20.961519
2364.631965	-2.999800	3.194100	-9.580900	27.865463	5.107125E-5	20.937713
2365.635963	-2.979700	3.193400	-9.514700	27.827570	4.909111E-5	20.954576
2366.633966	-3.000200	3.192600	-9.577100	27.857302	4.909111E-5	20.944671
2367.632964	-3.000800	3.192100	-9.578100	27.900988	4.922312E-5	20.935535
2368.636964	-3.005300	3.191900	-9.592400	27.895629	4.915711E-5	20.947209
2369.639962	-2.992500	3.192400	-9.551700	27.882590	4.516382E-5	20.929821
2370.638968	-3.005800	3.190500	-9.589100	27.856182	4.800203E-5	20.939277
2371.635962	-3.002500	3.190600	-9.578700	27.875154	4.671493E-5	20.926604
2372.642967	-3.004700	3.190100	-9.584900	27.933468	4.549384E-5	20.926502
2373.636963	-3.004500	3.189500	-9.582400	27.849764	4.579087E-5	20.938034
2374.638963	-3.022600	3.188300	-9.636100	27.854642	4.648392E-5	20.904066
2375.641483	-2.991300	3.188100	-9.535900	27.863223	4.684694E-5	20.921710
2376.636478	-3.009100	3.186700	-9.588300	27.836764	4.602188E-5	20.933486
2377.635476	-3.022700	3.185900	-9.629200	27.897336	4.466878E-5	20.925222
2378.638477	-3.003200	3.186600	-9.569600	27.938716	4.602188E-5	20.938420
2379.635476	-2.998300	3.187000	-9.554500	27.991845	4.671493E-5	20.903709
2380.639476	-3.000500	3.184400	-9.554400	27.973601	4.503181E-5	20.913792
2381.640475	-3.017300	3.184400	-9.606900	27.998440	4.552685E-5	20.934999
2382.638480	-2.995100	3.183300	-9.533700	27.981062	4.542784E-5	20.934102
2383.641477	-2.998900	3.182400	-9.542900	27.917238	4.437176E-5	20.912064
2384.641574	-2.986400	3.183300	-9.506000	27.917491	4.371171E-5	20.904733
2385.639159	-3.001900	3.181600	-9.550100	27.894828	4.206159E-5	20.913216
2386.641589	-3.003100	3.181000	-9.551900	27.902047	4.344769E-5	20.910999
2387.639036	-2.991400	3.182100	-9.518200	27.975753	4.308467E-5	20.900787
2388.642590	-2.978600	3.180000	-9.471100	28.022160	4.371171E-5	20.916677
2389.642709	-2.997400	3.180500	-9.532700	28.069608	4.265564E-5	20.909912
2390.639707	-3.022500	3.177300	-9.602700	28.098847	4.192958E-5	20.903785
2391.642503	-2.997500	3.179000	-9.528100	28.079282	4.136854E-5	20.887884
2392.642504	-2.993400	3.178200	-9.513000	28.135904	4.186358E-5	20.906951
2393.639170	-2.966400	3.177200	-9.423400	28.079434	4.156656E-5	20.897045
2394.642984	-3.010700	3.176800	-9.563900	28.011655	4.087350E-5	20.899941
2395.639891	-3.014000	3.175500	-9.570000	27.971666	4.179757E-5	20.918957
2396.644178	-3.032600	3.174400	-9.624600	27.948025	4.258963E-5	20.908913
2397.641567	-3.019100	3.174100	-9.582200	27.942499	3.948740E-5	20.894343
2398.640578	-2.988400	3.175000	-9.486800	27.953424	4.034547E-5	20.891115
2399.643702	-3.011600	3.172400	-9.553000	27.947731	4.212760E-5	20.917151
2400.641932	-2.994400	3.172600	-9.498900	27.969249	4.008145E-5	20.885707
2401.644096	-3.009600	3.171400	-9.543600	27.953421	4.199559E-5	20.886371
2402.646070	-3.002600	3.171800	-9.522000	27.997042	3.945440E-5	20.911783
2403.641459	-3.023000	3.170600	-9.583600	27.992063	4.100551E-5	20.888756
2404.644847	-3.031900	3.169000	-9.607300	27.974036	4.090651E-5	20.889576
2405.646235	-2.968900	3.170900	-9.413100	27.924699	3.701222E-5	20.887808
2406.645943	-2.969100	3.169500	-9.409200	27.992063	3.981743E-5	20.892549
2407.647353	-2.966500	3.169500	-9.401300	28.074724	4.074149E-5	20.875710
2408.646931	-2.958600	3.168400	-9.373000	28.056774	3.981743E-5	20.892727
2409.644144	-2.991300	3.166900	-9.471900	28.104488	3.833232E-5	20.889551
2410.645550	-2.973100	3.168100	-9.418100	28.159812	3.839832E-5	20.894511
2411.644554	-3.009300	3.166000	-9.527100	28.116825	3.793629E-5	20.869255
2412.647550	-3.025300	3.164600	-9.573000	28.102224	3.869534E-5	20.888220
2413.644193	-3.031200	3.162200	-9.584600	28.003611	3.681421E-5	20.882363
2414.647685	-3.008200	3.163100	-9.514400	27.978355	3.622016E-5	20.879226
2415.645170	-2.993400	3.163600	-9.469200	27.926891	3.595614E-5	20.891436
2416.650167	-2.981400	3.163900	-9.431600	27.893433	3.757326E-5	20.888107
2417.648108	-2.996100	3.162300	-9.474100	27.913002	3.592314E-5	20.876509
2418.646533	-2.987700	3.161000	-9.442800	27.949123	3.730924E-5	20.884890
2419.647531	-2.971600	3.161700	-9.394500	28.015137	3.711123E-5	20.874999
2420.650453	-2.992100	3.159800	-9.453700	28.081564	3.816731E-5	20.857942
2421.649478	-2.986900	3.157600	-9.429800	28.094246	3.628617E-5	20.896309
2422.650353	-3.017900	3.157200	-9.526800	28.126745	3.711123E-5	20.880663
2423.647467	-2.998500	3.158700	-9.470300	28.147378	3.668220E-5	20.860659
2424.650597	-2.984600	3.158400	-9.426300	28.127024	3.641818E-5	20.870987
2425.650776	-2.981000	3.158100	-9.413100	28.145904	3.711123E-5	20.885725
2426.648194	-2.991400	3.155200	-9.437700	28.152067	3.876135E-5	20.865378
2427.652622	-3.020200	3.152800	-9.521300	28.170421	3.711123E-5	20.885277
2428.651621	-3.025800	3.153600	-9.540900	28.146045	3.582413E-5	20.874489
2429.648334	-3.019600	3.153700	-9.522400	28.128988	3.707823E-5	20.873438
2430.651253	-3.006600	3.153200	-9.479100	28.118079	3.684721E-5	20.874310
2431.653379	-2.988100	3.151900	-9.417300	28.112311	3.704522E-5	20.860444
2432.655026	-3.001500	3.150500	-9.455200	28.113713	3.516409E-5	20.865174
2433.653369	-3.006000	3.149900	-9.467300	28.110162	3.453704E-5	20.864919
2434.650779	-3.005900	3.150000	-9.467200	28.116528	3.321694E-5	20.850939
2435.654941	-3.011700	3.149500	-9.484400	28.163015	3.457004E-5	20.885408
2436.656851	-3.011000	3.146800	-9.474300	28.114416	3.513108E-5	20.882950
2437.652617	-3.017500	3.146800	-9.493500	28.048752	3.447103E-5	20.884179
2438.654065	-2.991100	3.146300	-9.409800	28.004017	3.433902E-5	20.876608
2439.656061	-2.990000	3.146800	-9.407300	28.011018	3.367898E-5	20.857577
2440.651062	-2.985700	3.144700	-9.387600	28.028563	3.318394E-5	20.865754
2441.654433	-3.005300	3.144400	-9.449300	28.002321	3.549411E-5	20.869686
2442.656724	-3.026300	3.142900	-9.510600	28.041560	3.159982E-5	20.864138
2443.655724	-3.001000	3.142300	-9.429500	28.132147	3.387699E-5	20.864766
2444.657941	-2.995000	3.142000	-9.409200	28.161287	3.126980E-5	20.872764
2445.652872	-3.001600	3.140500	-9.426000	28.160791	3.275491E-5	20.863256
2446.655870	-3.001400	3.138800	-9.419400	28.197310	3.298593E-5	20.854028
2447.656899	-3.027800	3.137800	-9.499600	28.163874	3.031273E-5	20.851187
2448.657019	-3.000700	3.139200	-9.418600	28.177862	3.258990E-5	20.863847
2449.658373	-2.994600	3.137300	-9.394100	28.251140	3.328295E-5	20.857964
2450.653966	-3.009800	3.137500	-9.442800	28.221126	3.123680E-5	20.872315
2451.657073	-3.036000	3.134100	-9.514300	28.219829	3.159982E-5	20.876699
2452.658251	-2.986600	3.135300	-9.362800	28.228940	3.219387E-5	20.846993
2453.656713	-2.976800	3.135400	-9.332200	28.250441	3.285392E-5	20.846355
2454.659715	-2.997100	3.133300	-9.389000	28.243859	3.120379E-5	20.862012
2455.659095	-3.003300	3.132400	-9.406400	28.240374	3.249089E-5	20.858504
2456.656347	-2.993200	3.133100	-9.376900	28.238642	3.074176E-5	20.852493
2457.658753	-2.993500	3.131100	-9.371500	28.279654	3.146781E-5	20.856800
2458.660349	-2.996500	3.131100	-9.381700	28.292101	3.163283E-5	20.861746
2459.660392	-3.010900	3.128600	-9.419300	28.344489	2.925665E-5	20.853803
2460.662501	-3.008900	3.128700	-9.413000	28.356211	3.054375E-5	20.826726
2461.657501	-3.010500	3.127300	-9.414000	28.374702	3.430602E-5	20.873318
2462.660670	-2.999500	3.125500	-9.373400	28.321555	3.060975E-5	20.837350
2463.660037	-3.010100	3.124400	-9.404600	28.327855	3.295292E-5	20.871666
2464.660746	-2.996500	3.125000	-9.362900	28.316680	2.981769E-5	20.849510
2465.661743	-2.973300	3.125500	-9.292400	28.352711	2.862961E-5	20.850702
2466.657637	-2.984200	3.123300	-9.318900	28.380266	2.833258E-5	20.851421
2467.661854	-3.003500	3.122800	-9.378100	28.406063	2.892663E-5	20.856060
2468.663739	-3.000900	3.121200	-9.365200	28.350498	2.843159E-5	20.856534
2469.660927	-3.005800	3.120100	-9.377700	28.232017	2.737551E-5	20.827805
2470.660927	-2.995200	3.119800	-9.343900	28.184438	2.796956E-5	20.856243
2471.665093	-3.010800	3.118000	-9.387100	28.190612	2.734251E-5	20.858664
2472.663091	-3.008300	3.116800	-9.374600	28.269529	2.902563E-5	20.840917
2473.661177	-2.996600	3.117200	-9.339300	28.332734	2.668246E-5	20.826795
2474.659270	-2.982100	3.116400	-9.292500	28.355428	2.955367E-5	20.844430
2475.661348	-3.026400	3.114100	-9.423500	28.292083	2.971869E-5	20.832806
2476.663347	-2.986800	3.113400	-9.297700	28.283581	2.760653E-5	20.826617
2477.660627	-3.000600	3.112400	-9.338200	28.231980	2.909164E-5	20.843416
2478.663684	-2.999800	3.112800	-9.337200	28.204082	2.952067E-5	20.851363
2479.664101	-3.001400	3.112000	-9.339600	28.210726	2.671546E-5	20.843828
2480.664835	-3.025900	3.109000	-9.406900	28.179768	2.734251E-5	20.848697
2481.665771	-3.020500	3.109700	-9.392100	28.167882	2.862961E-5	20.850955
2482.664636	-3.054400	3.106300	-9.486800	28.256408	2.595641E-5	20.855207
2483.665143	-2.998700	3.108000	-9.318300	28.316879	2.681447E-5	20.837383
2484.666149	-3.009500	3.105000	-9.342900	28.398142	2.866261E-5	20.849033
2485.665741	-3.026800	3.103700	-9.394100	28.447558	2.757353E-5	20.844266
2486.662262	-3.004500	3.104000	-9.325800	28.432009	2.625343E-5	20.858479
2487.664280	-3.006600	3.103700	-9.330000	28.434490	2.697948E-5	20.834900
2488.666396	-2.973700	3.104500	-9.231000	28.414344	2.559338E-5	20.832157
2489.666395	-2.999000	3.101400	-9.300000	28.367346	2.856360E-5	20.842679
2490.664744	-2.987400	3.101700	-9.265600	28.392662	2.592341E-5	20.837351
2491.661035	-3.009800	3.098700	-9.326400	28.424986	2.747452E-5	20.826752
2492.665921	-3.021600	3.099500	-9.364800	28.472988	2.681447E-5	20.867976
2493.666936	-3.030700	3.096200	-9.382700	28.527148	2.717750E-5	20.822474
2494.664187	-3.006000	3.097100	-9.309300	28.528688	2.549438E-5	20.837774
2495.668190	-3.002400	3.095700	-9.293700	28.446736	2.523036E-5	20.857188
2496.665240	-2.982300	3.096300	-9.233000	28.441941	2.506534E-5	20.807790
2497.666576	-3.019400	3.094200	-9.341700	28.454386	2.625343E-5	20.835020
2498.668575	-2.989500	3.092900	-9.245700	28.413522	2.565939E-5	20.845554
2499.673443	-3.013400	3.091600	-9.315900	28.415496	2.532936E-5	20.820990
2500.669444	-3.003700	3.090600	-9.282300	28.440705	2.414128E-5	20.839736
2501.670880	-2.988400	3.090400	-9.234100	28.459590	2.651745E-5	20.850692
2502.667882	-2.990400	3.089500	-9.238400	28.459145	2.532936E-5	20.848821
2503.668609	-2.993800	3.087100	-9.240800	28.464466	2.499934E-5	20.831895
2504.671609	-3.001000	3.087400	-9.264000	28.462785	2.367924E-5	20.822142
2505.671158	-3.002100	3.086200	-9.264400	28.477280	2.285418E-5	20.853333
2506.671161	-3.014800	3.084400	-9.297500	28.513994	2.526336E-5	20.831512
2507.668491	-3.002700	3.082700	-9.255400	28.541950	2.394326E-5	20.838803
2508.668736	-3.017300	3.080600	-9.294200	28.573596	2.526336E-5	20.819465
2509.672910	-2.976300	3.081200	-9.169300	28.532509	2.295319E-5	20.825027
2510.673882	-2.995400	3.080300	-9.225900	28.561431	2.259016E-5	20.829973
2511.676456	-2.998400	3.079300	-9.231800	28.598918	2.499934E-5	20.826475
2512.679455	-3.007000	3.077900	-9.254500	28.669114	2.295319E-5	20.817043
2513.676142	-3.005300	3.076700	-9.245500	28.578775	2.727651E-5	20.839379
2514.674512	-2.968400	3.076300	-9.131300	28.593739	2.212813E-5	20.828372
2515.675776	-3.013100	3.074500	-9.262700	28.585978	2.298619E-5	20.835254
2516.675776	-2.978300	3.074300	-9.155100	28.551852	2.229314E-5	20.823171
2517.675888	-3.001200	3.071600	-9.217300	28.480960	2.437229E-5	20.835229
2518.674889	-3.007900	3.071200	-9.237000	28.473401	2.325021E-5	20.827617
2519.676056	-2.992900	3.070100	-9.187600	28.451514	2.285418E-5	20.841611
2520.676568	-2.988500	3.068100	-9.168000	28.460819	2.321721E-5	20.821585
2521.676568	-2.988000	3.068000	-9.166200	28.498037	2.169910E-5	20.822080
2522.681657	-2.981200	3.067100	-9.142200	28.493130	2.490033E-5	20.817613
2523.674653	-2.985700	3.066400	-9.154600	28.480301	2.080803E-5	20.822711
2524.674921	-2.985600	3.064200	-9.147400	28.507139	2.031299E-5	20.816073
2525.677923	-2.994000	3.064200	-9.173000	28.552783	2.424028E-5	20.815574
2526.674489	-2.990000	3.063300	-9.158600	28.581071	2.166609E-5	20.837899
2527.679729	-3.003100	3.061200	-9.192500	28.611293	2.245815E-5	20.815705
2528.683989	-2.983500	3.060500	-9.130000	28.665265	2.334922E-5	20.827391
2529.675978	-3.005600	3.059200	-9.193500	28.637327	2.189711E-5	20.814899
2530.679086	-3.005100	3.057400	-9.187000	28.586862	2.044500E-5	20.809118
2531.679273	-2.983100	3.057900	-9.121200	28.614259	2.057701E-5	20.818693
2532.681032	-2.986000	3.055900	-9.124100	28.544975	2.308520E-5	20.827151
2533.680034	-3.032300	3.053400	-9.257800	28.464934	2.196312E-5	20.802021
2534.677034	-2.999000	3.052300	-9.153000	28.457987	2.080803E-5	20.815414
2535.680114	-2.971100	3.052400	-9.067900	28.453648	2.057701E-5	20.827639
2536.681111	-3.013200	3.049300	-9.187500	28.517541	2.282118E-5	20.798574
2537.678328	-3.014400	3.048600	-9.188700	28.554685	2.173210E-5	20.833610
2538.681282	-3.014800	3.047800	-9.187700	28.605672	2.034600E-5	20.811467
2539.679319	-2.975400	3.048200	-9.068500	28.639442	2.031299E-5	20.815607
2540.680320	-2.999600	3.045700	-9.135400	28.685895	1.928992E-5	20.797436
2541.682260	-3.019600	3.043700	-9.189200	28.742576	2.186411E-5	20.816122
2542.682575	-3.015100	3.043200	-9.173600	28.746125	2.143508E-5	20.821592
2543.683143	-2.976800	3.042100	-9.055000	28.713659	2.196312E-5	20.812124
2544.685882	-2.969000	3.041200	-9.028000	28.704740	2.001597E-5	20.796977
2545.682034	-3.005600	3.040300	-9.137200	28.701865	1.998297E-5	20.807831
2546.685426	-2.959500	3.040200	-8.996100	28.747081	1.938893E-5	20.793632
2547.693234	-2.963000	3.038100	-9.000700	28.746559	2.044500E-5	20.810177
2548.688236	-2.982900	3.034900	-9.052400	28.709017	1.968595E-5	20.806974
2549.687442	-2.995400	3.032900	-9.082600	28.620680	1.899290E-5	20.815203
2550.684409	-2.979500	3.032600	-9.033900	28.595906	1.833285E-5	20.799735
2551.687961	-3.006600	3.031300	-9.113400	28.560661	1.985096E-5	20.802645
2552.688926	-3.009200	3.030400	-9.118700	28.522931	1.955394E-5	20.811588
2553.689106	-3.000300	3.030300	-9.090400	28.524231	1.942193E-5	20.794880
2554.689198	-3.022700	3.027400	-9.150700	28.527947	1.895989E-5	20.804312
2555.686165	-2.979200	3.027600	-9.018900	28.537085	2.024699E-5	20.801661
2556.690180	-2.996600	3.026600	-9.068800	28.564746	1.793682E-5	20.814820
2557.687877	-3.032600	3.022700	-9.165300	28.516151	1.879488E-5	20.788640
2558.687141	-3.007200	3.023200	-9.090700	28.497459	1.849786E-5	20.801110
2559.690183	-3.007000	3.020000	-9.080200	28.526600	1.872888E-5	20.810068
2560.690691	-3.019800	3.020500	-9.120300	28.567155	1.826684E-5	20.791642
2561.693936	-3.006600	3.018700	-9.075600	28.611881	1.787081E-5	20.800651
2562.691517	-2.990300	3.018900	-9.026900	28.624921	2.004897E-5	20.781542
2563.692518	-3.007900	3.015600	-9.069800	28.630165	2.123706E-5	20.799152
2564.692120	-3.027100	3.014200	-9.123400	28.677140	1.919091E-5	20.822283
2565.694380	-2.984900	3.014900	-8.998500	28.703821	1.780481E-5	20.786568
2566.691382	-3.013500	3.011900	-9.075600	28.775767	1.988396E-5	20.790285
2567.693759	-2.992500	3.010500	-9.006700	28.745717	1.532963E-5	20.797948
2568.695603	-2.977400	3.008800	-8.957200	28.752089	2.004897E-5	20.788246
2569.696108	-2.975900	3.008500	-8.951900	28.795587	1.988396E-5	20.801242
2570.701370	-2.988500	3.006500	-8.983800	28.837327	1.846486E-5	20.766001
2571.692067	-2.986900	3.006800	-8.979800	28.822022	1.961994E-5	20.777136
2572.695840	-2.982200	3.005700	-8.963200	28.799863	1.787081E-5	20.784212
2573.695458	-2.985700	3.003000	-8.965000	28.739612	2.024699E-5	20.806972
2574.695459	-2.968100	3.001900	-8.907700	28.720757	1.905890E-5	20.795567
2575.696546	-3.006900	3.000100	-9.019200	28.741201	1.955394E-5	20.775382
2576.696178	-3.040200	2.998100	-9.112700	28.729802	1.796982E-5	20.781918
2577.692256	-3.015400	2.996700	-9.034800	28.716303	1.823384E-5	20.791080
2578.696255	-2.983600	2.996500	-8.939500	28.793223	1.948793E-5	20.796489
2579.699356	-2.995100	2.995100	-8.969400	28.786658	1.952094E-5	20.774229
2580.696440	-3.009200	2.992000	-9.002800	28.704803	1.813483E-5	20.777600
2581.696439	-3.023100	2.991700	-9.043300	28.667258	1.905890E-5	20.776768
2582.695438	-3.008300	2.989600	-8.992900	28.612953	1.773881E-5	20.760953
2583.698440	-2.972800	2.989200	-8.885500	28.676062	1.790382E-5	20.776626
2584.699103	-2.986300	2.986900	-8.918100	28.646530	1.978496E-5	20.775805
2585.696235	-2.965300	2.986600	-8.854800	28.631045	1.925692E-5	20.775382
2586.701139	-3.012300	2.984300	-8.988900	28.664419	1.678173E-5	20.774383
2587.701172	-3.028700	2.982600	-9.031900	28.673682	2.070902E-5	20.775178
2588.699248	-3.026700	2.980900	-9.021600	28.678821	1.777181E-5	20.769448
2589.698685	-2.996700	2.980300	-8.930700	28.656380	1.971895E-5	20.763915
2590.700601	-2.965000	2.979400	-8.832300	28.704868	1.876188E-5	20.768182
2591.701634	-2.955500	2.979300	-8.804100	28.673769	1.803583E-5	20.770998
2592.703282	-3.009500	2.975300	-8.952800	28.674497	1.592367E-5	20.768412
2593.699285	-2.992700	2.974600	-8.900900	28.681225	1.922391E-5	20.765705
2594.700727	-3.009700	2.972300	-8.944800	28.671010	1.622069E-5	20.797616
2595.708924	-3.014300	2.972100	-8.957600	28.696329	1.783781E-5	20.771910
2596.707766	-3.019200	2.969800	-8.965500	28.815270	1.724377E-5	20.773179
2597.706768	-2.998900	2.967800	-8.898800	28.927810	1.806883E-5	20.776075
2598.702765	-2.987700	2.968000	-8.866900	28.939348	1.763980E-5	20.757827
2599.704987	-3.005400	2.964100	-8.906900	28.927274	1.892689E-5	20.776958
2600.703238	-3.015500	2.963200	-8.934100	28.930609	1.773881E-5	20.780317
2601.707396	-3.005900	2.961300	-8.900700	28.917724	2.051101E-5	20.779664
2602.706863	-3.017000	2.959700	-8.928200	28.923564	1.803583E-5	20.768478
2603.708908	-3.036300	2.958500	-8.981900	28.932962	1.945493E-5	20.783162
2604.704302	-3.011500	2.956900	-8.903300	28.950629	1.826684E-5	20.770141
2605.706598	-2.980700	2.957200	-8.812900	28.956990	1.750779E-5	20.766118
2606.708519	-3.009300	2.953700	-8.888200	28.958123	1.803583E-5	20.753034
2607.707634	-2.981300	2.952900	-8.802700	28.893478	1.612169E-5	20.756660
2608.710630	-3.005300	2.950500	-8.865800	28.872758	1.902590E-5	20.756175
2609.705807	-3.002600	2.949900	-8.857100	28.839760	1.668273E-5	20.759917
2610.708622	-3.065200	2.947700	-9.034100	28.854721	1.655072E-5	20.779730
2611.705170	-3.002900	2.946600	-8.846800	28.790464	1.968595E-5	20.768580
2612.708170	-2.991000	2.945700	-8.810100	28.790920	1.869588E-5	20.760504
2613.709884	-3.022300	2.944300	-8.898300	28.777780	1.849786E-5	20.753906
2614.709190	-3.006400	2.943000	-8.846700	28.751865	1.773881E-5	20.740130
2615.706176	-3.018200	2.940800	-8.875000	28.670873	1.727677E-5	20.751010
2616.709566	-3.006600	2.938900	-8.834900	28.697503	1.638571E-5	20.754599
2617.709567	-2.975400	2.938500	-8.741800	28.674639	1.648471E-5	20.772822
2618.709748	-2.984100	2.935900	-8.759800	28.683836	1.820084E-5	20.755059
2619.709675	-3.011300	2.933300	-8.832000	28.710274	1.631970E-5	20.761774
2620.706721	-3.013400	2.933400	-8.838700	28.727069	1.661672E-5	20.746447
2621.706266	-3.003200	2.931700	-8.803600	28.841274	1.859687E-5	20.772348
2622.710707	-3.011900	2.930300	-8.824600	28.912511	1.638571E-5	20.765877
2623.710727	-3.000400	2.927600	-8.782600	28.942350	1.724377E-5	20.776972
2624.712947	-2.991200	2.926400	-8.752500	28.972991	1.730977E-5	20.771808
2625.708945	-3.048300	2.922400	-8.906600	29.003469	1.839885E-5	20.762686
2626.712946	-2.990300	2.923900	-8.742600	29.013924	1.773881E-5	20.760891
2627.712813	-3.005000	2.920200	-8.773900	28.989452	1.496660E-5	20.761365
2628.710865	-2.993100	2.919700	-8.738700	29.023235	1.605568E-5	20.767427
2629.712085	-2.989200	2.918400	-8.722500	28.935573	1.539563E-5	20.759239
2630.713570	-2.984900	2.917400	-8.707000	28.867125	1.750779E-5	20.759035
2631.709708	-2.993900	2.915500	-8.728200	28.907956	1.740878E-5	20.755599
2632.712226	-3.003000	2.911100	-8.741200	28.982838	1.820084E-5	20.759917
2633.714261	-3.012200	2.911400	-8.768900	28.986705	1.674873E-5	20.760019
2634.714687	-2.994700	2.909000	-8.710300	29.004932	1.730977E-5	20.763211
2635.714679	-3.000300	2.907400	-8.722600	28.990723	2.001597E-5	20.768809
2636.711906	-3.004800	2.905500	-8.729200	29.004269	1.655072E-5	20.744999
2637.712703	-3.023500	2.904200	-8.779600	29.047767	1.661672E-5	20.763222
2638.716736	-2.991600	2.902300	-8.681600	29.050591	1.734278E-5	20.763696
2639.716720	-2.980200	2.901500	-8.646300	29.019035	1.806883E-5	20.764144
2640.721928	-2.984300	2.899800	-8.652600	29.004751	1.714476E-5	20.769666
2641.714285	-2.978800	2.898500	-8.633900	28.940239	1.694675E-5	20.775320
2642.714470	-2.987500	2.895000	-8.648600	28.912076	1.608868E-5	20.774448
2643.717513	-2.992600	2.893700	-8.658500	28.910168	1.701275E-5	20.767310
2644.715327	-2.992600	2.892100	-8.653900	28.904126	1.638571E-5	20.774025
2645.718549	-2.988400	2.889300	-8.633700	28.971807	1.721077E-5	20.759709
2646.720503	-3.009100	2.888200	-8.690100	28.952653	1.846486E-5	20.762696
2647.715818	-2.998400	2.886400	-8.654100	29.040010	1.631970E-5	20.775320
2648.719383	-3.001100	2.884900	-8.657100	29.097931	1.466958E-5	20.771567
2649.725384	-3.022400	2.882400	-8.711000	29.083597	1.823384E-5	20.772297
2650.721532	-3.029400	2.880100	-8.723900	29.088849	1.704575E-5	20.785650
2651.721724	-3.010500	2.878300	-8.663900	29.060857	1.744178E-5	20.761238
2652.716724	-2.993100	2.877900	-8.613200	29.041993	1.816784E-5	20.784905
2653.719586	-3.008600	2.876100	-8.651300	29.058276	1.754079E-5	20.774285
2654.720136	-2.977400	2.874300	-8.557500	29.116461	1.879488E-5	20.777436
2655.716192	-2.994600	2.871000	-8.596900	29.088176	1.684774E-5	20.775962
2656.722602	-2.975800	2.869200	-8.537600	29.003408	1.460357E-5	20.766417
2657.717950	-3.007500	2.866800	-8.621100	28.959575	1.681474E-5	20.776783
2658.721474	-2.988900	2.866400	-8.566600	28.956053	1.664973E-5	20.777027
2659.720477	-3.006600	2.864500	-8.612000	28.918543	1.681474E-5	20.753936
2660.720548	-2.984700	2.863500	-8.545100	28.922051	1.440556E-5	20.767427
2661.720572	-3.011500	2.859400	-8.609900	28.998601	1.589067E-5	20.788127
2662.722111	-3.000500	2.857900	-8.574700	29.037281	1.559365E-5	20.790115
2663.720265	-2.991800	2.856400	-8.544600	29.044133	1.721077E-5	20.788010
2664.723536	-2.977800	2.855100	-8.500700	28.995929	1.816784E-5	20.777848
2665.722736	-3.016200	2.851700	-8.601100	29.019054	1.803583E-5	20.794035
2666.728830	-2.972500	2.851700	-8.475500	29.063862	1.711176E-5	20.777068
2667.723226	-3.006600	2.848200	-8.562500	29.127338	1.813483E-5	20.763740
2668.721197	-2.980600	2.846700	-8.483200	29.176695	1.829985E-5	20.805415
2669.724230	-3.004300	2.843400	-8.541700	29.217808	1.892689E-5	20.781886
2670.721698	-3.037600	2.841500	-8.630400	29.285049	1.773881E-5	20.790855
2671.724863	-2.998200	2.839500	-8.513200	29.277713	1.800282E-5	20.790574
2672.724829	-3.012100	2.838000	-8.547400	29.293952	1.622069E-5	20.785603
2673.724832	-3.030500	2.835200	-8.590800	29.317451	1.526362E-5	20.777991
2674.725381	-3.024200	2.833100	-8.566700	29.296037	1.803583E-5	20.805721
2675.726602	-2.995000	2.831200	-8.478200	29.240023	1.661672E-5	20.773927
2676.722988	-3.004000	2.828100	-8.494600	29.264337	1.783781E-5	20.776619
2677.726680	-2.998200	2.827300	-8.476000	29.346174	1.730977E-5	20.782758
2678.723737	-2.999100	2.824400	-8.470300	29.313444	1.767280E-5	20.760676
2679.730639	-2.988000	2.822100	-8.431400	29.322090	1.787081E-5	20.786934
2680.728105	-2.988500	2.820300	-8.427100	29.340898	1.565965E-5	20.778862
2681.725903	-2.961200	2.818100	-8.343900	29.342183	1.631970E-5	20.795804
2682.729081	-2.985900	2.815200	-8.405400	29.305765	1.813483E-5	20.794188
2683.730479	-3.023300	2.812100	-8.501100	29.289769	1.754079E-5	20.802723
2684.726635	-3.004600	2.808300	-8.437300	29.311704	1.638571E-5	20.798751
2685.728311	-3.018300	2.806700	-8.469800	29.356818	1.737578E-5	20.799649
2686.728096	-2.991900	2.804900	-8.391200	29.283946	1.747479E-5	20.795432
2687.732005	-2.979100	2.804100	-8.352400	29.369788	1.631970E-5	20.790910
2688.734054	-2.997000	2.801500	-8.395200	29.317107	1.671573E-5	20.797559
2689.729552	-3.015100	2.796300	-8.430000	29.265596	1.556064E-5	20.784527
2690.733585	-3.011400	2.793800	-8.412300	29.309949	1.711176E-5	20.793189
2691.736886	-3.006600	2.791500	-8.392000	29.322904	1.783781E-5	20.779220
2692.733077	-2.988600	2.789900	-8.337000	29.407752	1.882789E-5	20.771801
2693.733915	-2.993900	2.786800	-8.342300	29.476928	1.872888E-5	20.802173
2694.736916	-2.990700	2.783100	-8.322500	29.467951	1.740878E-5	20.796442
2695.733212	-2.975900	2.780400	-8.273000	29.454602	1.843186E-5	20.810014
2696.733823	-2.971800	2.778500	-8.255900	29.466120	1.681474E-5	20.800761
2697.737442	-2.969000	2.775300	-8.239000	29.453267	1.717776E-5	20.802030
2698.738442	-2.998400	2.772400	-8.312300	29.422259	1.664973E-5	20.800648
2699.733759	-2.994100	2.770300	-8.294000	29.381469	1.787081E-5	20.800786
2700.731755	-2.974300	2.767200	-8.229600	29.339269	1.539563E-5	20.807093
2701.733180	-2.996500	2.764500	-8.282700	29.311027	1.820084E-5	20.810397
2702.733535	-3.013300	2.760400	-8.316500	29.313202	1.889389E-5	20.798365
2703.733623	-2.994300	2.757000	-8.254600	29.374322	1.816784E-5	20.804014
2704.734515	-3.021400	2.753200	-8.318100	29.382804	1.717776E-5	20.818253
2705.731687	-3.041700	2.750800	-8.366300	29.388829	1.655072E-5	20.814369
2706.735687	-3.039300	2.746100	-8.345100	29.463105	1.820084E-5	20.815266
2707.737684	-3.017400	2.744600	-8.279900	29.512204	1.985096E-5	20.825876
2708.733200	-3.033100	2.741700	-8.315100	29.482609	1.754079E-5	20.815011
2709.738373	-3.003700	2.738600	-8.225400	29.488977	1.664973E-5	20.810050
2710.737931	-2.992100	2.734900	-8.181000	29.450683	1.688074E-5	20.809383
2711.737106	-3.009700	2.732200	-8.222200	29.489191	1.862987E-5	20.812162
2712.738189	-3.021800	2.728500	-8.244100	29.489231	1.810183E-5	20.801771
2713.737291	-2.996000	2.724500	-8.160900	29.534908	1.635270E-5	20.802770
2714.736387	-3.006200	2.722100	-8.182200	29.609149	2.037900E-5	20.822608
2715.739391	-3.011600	2.718800	-8.186200	29.668193	1.688074E-5	20.807690
2716.736636	-2.987700	2.714700	-8.109300	29.675592	1.909190E-5	20.829373
2717.739667	-2.992300	2.709700	-8.107400	29.709110	1.707876E-5	20.827604
2718.740092	-3.003500	2.707400	-8.131100	29.682227	1.810183E-5	20.821838
2719.739318	-3.002300	2.703400	-8.115300	29.634381	1.684774E-5	20.830974
2720.740427	-2.973300	2.699800	-8.026500	29.630133	1.800282E-5	20.825744
2721.738429	-2.994400	2.695800	-8.070700	29.612680	1.757379E-5	20.825693
2722.740426	-3.006400	2.690800	-8.088200	29.585566	1.849786E-5	20.823016
2723.742103	-2.989000	2.687600	-8.031900	29.511451	1.595667E-5	20.836970
2724.740689	-2.965700	2.685500	-7.963400	29.500288	1.846486E-5	20.831408
2725.742717	-2.973200	2.680700	-7.969300	29.562150	1.579166E-5	20.818851
2726.743762	-2.980100	2.675200	-7.971000	29.530888	1.724377E-5	20.836175
2727.739715	-2.982800	2.672200	-7.969700	29.562049	1.787081E-5	20.839137
2728.745265	-2.970600	2.667200	-7.922500	29.613762	1.744178E-5	20.827258
2729.742531	-2.986500	2.662500	-7.950300	29.721030	1.843186E-5	20.841518
2730.746535	-2.981400	2.658400	-7.924500	29.731658	1.658372E-5	20.853182
2731.740607	-2.983700	2.653100	-7.915500	29.728771	1.849786E-5	20.832255
2732.739608	-3.001700	2.647900	-7.947700	29.682364	1.810183E-5	20.843313
2733.748654	-2.983000	2.644800	-7.888900	29.652405	1.961994E-5	20.825438
2734.756655	-2.978900	2.640500	-7.865200	29.692942	1.965295E-5	20.859193
2735.744998	-2.967800	2.635900	-7.821800	29.767132	1.998297E-5	20.848171
2736.749700	-3.010300	2.630400	-7.917400	29.836689	1.671573E-5	20.844338
2737.742041	-3.009300	2.624900	-7.898500	29.808196	1.965295E-5	20.840264
2738.745623	-3.012200	2.620200	-7.891500	29.821859	1.839885E-5	20.850720
2739.749857	-2.981800	2.613800	-7.793300	29.807473	1.981796E-5	20.834319
2740.746855	-2.993600	2.609600	-7.810900	29.825302	1.895989E-5	20.836649
2741.749619	-3.007600	2.603400	-7.828700	29.807813	1.757379E-5	20.834661
2742.750830	-3.011500	2.599800	-7.828600	29.822658	1.899290E-5	20.850104
2743.748883	-2.996600	2.592700	-7.768700	29.867801	2.044500E-5	20.842043
2744.747990	-3.019900	2.587400	-7.811800	29.931254	2.008198E-5	20.829216
2745.746578	-3.007400	2.581600	-7.762600	29.936603	1.833285E-5	20.841248
2746.748038	-3.022100	2.576400	-7.785500	29.917846	1.820084E-5	20.838455
2747.748035	-2.996800	2.572100	-7.707400	29.916244	2.008198E-5	20.846796
2748.746037	-3.000600	2.564900	-7.695000	29.828514	1.998297E-5	20.862646
2749.748650	-3.004900	2.558100	-7.686400	29.770496	1.919091E-5	20.846821
2750.748647	-3.032500	2.552400	-7.739500	29.795571	2.001597E-5	20.849345
2751.748811	-3.009100	2.547700	-7.665500	29.804926	1.958694E-5	20.861621
2752.748099	-3.013100	2.541800	-7.657800	29.787436	2.044500E-5	20.858211
2753.749099	-2.996100	2.535100	-7.594200	29.853397	1.912491E-5	20.851701
2754.746102	-3.009200	2.530400	-7.614100	29.937236	2.110505E-5	20.862274
2755.746096	-3.026600	2.522400	-7.633300	29.981650	1.869588E-5	20.837364
2756.749270	-3.017300	2.516400	-7.592000	30.023152	2.179810E-5	20.866888
2757.756889	-2.992300	2.511100	-7.513300	30.049465	1.978496E-5	20.865925
2758.746558	-3.017000	2.504800	-7.555300	30.113974	2.014798E-5	20.870294
2759.749515	-2.990900	2.499700	-7.474800	30.118281	1.975195E-5	20.847612
