LabVIEW Measurement	
Writer_Version	2
Reader_Version	2
Separator	Tab
Decimal_Separator	.
Multi_Headings	No
X_Columns	One
Time_Pref	Absolute
Operator	admin
Description	Clolumns are: time, Current, Voltage, Power, Battery Temp, and Chamber Temp
Date	2024/08/16
Time	13:07:17.8513970375061035156
***End_of_Header***	
	
Channels	6						
Samples	1	1	1	1	1	1	
Date	2024/09/11	2024/09/11	2024/09/11	2024/09/11	2024/09/11	2024/09/11	
Time	02:05:29.2513232231140136719	02:05:29.2603178024291992188	02:05:29.2682967185974121094	02:05:29.2320914268493652344	02:05:29.2320914268493652344	02:05:29.2320914268493652344	
X_Dimension	Time	Time	Time	Time	Time	Time	
X0	0.0000000000000000E+0	0.0000000000000000E+0	0.0000000000000000E+0	0.0000000000000000E+0	0.0000000000000000E+0	0.0000000000000000E+0	
Delta_X	1.000000	1.000000	1.000000	1.000000	1.000000	1.000000	
***End_of_Header***							
X_Value	Untitled	Untitled 1	Untitled 2	Untitled 3	Untitled 4	Untitled 5	Comment
0.000000	-0.000796	4.085200	-0.003118	20.850703	0.000449	20.796176
1.003030	-3.012500	3.918400	-11.804000	20.863610	0.000451	20.845593
2.003979	-2.993000	3.912000	-11.708000	20.847015	0.000450	20.832791
3.001975	-2.999300	3.908300	-11.721000	20.862507	0.000448	20.838800
4.001244	-3.033200	3.904600	-11.842000	20.869341	0.000450	20.823350
5.001464	-3.014900	3.901900	-11.762000	20.879502	0.000447	20.836356
5.999578	-3.018200	3.899300	-11.768000	20.871491	0.000447	20.848733
6.999788	-3.030000	3.896200	-11.804000	20.882526	0.000446	20.825156
8.011922	-3.007600	3.895600	-11.715000	20.890357	0.000445	20.832514
9.003374	-3.008100	3.893300	-11.710000	20.881651	0.000444	20.830919
10.004489	-2.962800	3.893900	-11.536000	20.884496	0.000443	20.857471
11.008064	-2.995900	3.890200	-11.654000	20.921118	0.000443	20.813017
12.007701	-2.980100	3.889600	-11.591000	20.924943	0.000443	20.831541
13.004540	-2.994600	3.888300	-11.643000	20.916711	0.000444	20.860291
14.006843	-3.002900	3.887200	-11.672000	20.918755	0.000443	20.835783
15.006152	-3.007400	3.885300	-11.684000	20.945614	0.000442	20.853162
16.002363	-3.002600	3.886300	-11.668000	20.941789	0.000442	20.828001
17.002954	-2.989400	3.885100	-11.613000	20.960303	0.000442	20.846991
18.006136	-3.011700	3.884200	-11.696000	20.975572	0.000442	20.854201
19.005250	-2.978900	3.883600	-11.568000	20.970789	0.000439	20.830927
20.008655	-3.009800	3.881300	-11.681000	20.992916	0.000441	20.860168
21.006798	-3.004000	3.880000	-11.654000	21.007441	0.000439	20.847669
22.012227	-2.993500	3.880500	-11.615000	21.013129	0.000439	20.841031
23.007810	-3.025000	3.878700	-11.732000	20.997281	0.000439	20.838930
24.009953	-3.009300	3.878000	-11.670000	21.009035	0.000438	20.840255
25.008252	-3.014400	3.876400	-11.684000	21.039382	0.000441	20.851641
26.010642	-2.970600	3.878200	-11.520000	21.036260	0.000440	20.856579
27.011330	-2.971800	3.877400	-11.522000	21.013962	0.000436	20.839019
28.008298	-3.018900	3.875100	-11.698000	21.042725	0.000435	20.822743
29.012955	-2.995700	3.876200	-11.610000	21.052484	0.000437	20.848624
30.010998	-3.010000	3.877100	-11.669000	21.056104	0.000437	20.856513
31.008458	-3.005600	3.875300	-11.646000	21.052361	0.000434	20.851821
32.011655	-3.019500	3.874600	-11.698000	21.072050	0.000437	20.879573
33.014793	-2.991000	3.875500	-11.590000	21.087170	0.000435	20.858662
34.008741	-3.004900	3.875300	-11.644000	21.074975	0.000436	20.860689
35.007410	-2.991100	3.873700	-11.585000	21.113698	0.000435	20.870498
36.011704	-2.997400	3.873000	-11.608000	21.120538	0.000432	20.865487
37.014084	-3.007700	3.872600	-11.646000	21.117129	0.000436	20.845482
38.014904	-3.011400	3.872400	-11.660000	21.126251	0.000437	20.846072
39.012425	-3.009500	3.872500	-11.653000	21.153628	0.000436	20.850698
40.023415	-3.024000	3.871400	-11.706000	21.129405	0.000434	20.860131
41.017066	-2.992800	3.871800	-11.585000	21.164833	0.000435	20.860008
42.024881	-2.992000	3.870500	-11.579000	21.167480	0.000432	20.846062
43.019842	-3.004600	3.870100	-11.628000	21.167055	0.000432	20.854172
44.013738	-2.989200	3.871700	-11.572000	21.179362	0.000435	20.855103
45.022082	-2.980600	3.870300	-11.534000	21.215786	0.000432	20.875890
46.017560	-3.008700	3.868500	-11.638000	21.202578	0.000432	20.873584
47.015197	-3.001200	3.869700	-11.612000	21.202922	0.000435	20.845006
48.016461	-2.992500	3.868900	-11.577000	21.199015	0.000433	20.860537
49.027597	-2.995200	3.870300	-11.590000	21.205773	0.000432	20.856867
50.016700	-3.004800	3.869800	-11.627000	21.241248	0.000432	20.857741
51.024331	-2.995200	3.868300	-11.585000	21.265518	0.000432	20.874908
52.018821	-2.991900	3.868400	-11.572000	21.230599	0.000432	20.867477
53.022308	-3.003600	3.867700	-11.616000	21.264104	0.000434	20.867803
54.019871	-2.995700	3.867400	-11.584000	21.277930	0.000433	20.868359
55.023197	-2.994300	3.867200	-11.579000	21.274097	0.000434	20.852197
56.024705	-2.977400	3.867100	-11.513000	21.274219	0.000432	20.858957
57.020863	-2.991400	3.866700	-11.566000	21.302983	0.000435	20.835577
58.023097	-3.014400	3.866300	-11.653000	21.316924	0.000431	20.844308
59.024915	-2.999800	3.866600	-11.598000	21.299118	0.000434	20.849254
60.022734	-2.998000	3.866000	-11.589000	21.334116	0.000434	20.855818
61.022528	-2.979400	3.867000	-11.520000	21.336959	0.000436	20.852499
62.026132	-2.986800	3.866300	-11.546000	21.346283	0.000433	20.850922
63.024463	-2.992800	3.866800	-11.571000	21.346912	0.000434	20.844439
64.028437	-2.998300	3.866500	-11.592000	21.351005	0.000434	20.851853
65.026596	-2.995200	3.865500	-11.577000	21.360484	0.000432	20.835258
66.026325	-3.013000	3.863900	-11.641000	21.376369	0.000436	20.838348
67.030811	-2.986700	3.865100	-11.543000	21.402017	0.000433	20.852155
68.027928	-2.993900	3.864100	-11.567000	21.368941	0.000434	20.856994
69.029994	-2.996400	3.864100	-11.578000	21.392637	0.000435	20.832814
70.024465	-3.005300	3.863300	-11.610000	21.415735	0.000435	20.847389
71.029003	-3.008600	3.862700	-11.620000	21.401297	0.000435	20.850487
72.030953	-2.990500	3.864000	-11.555000	21.435305	0.000433	20.839943
73.028520	-3.027700	3.862400	-11.692000	21.439275	0.000435	20.833010
74.030903	-3.002000	3.863900	-11.598000	21.437151	0.000434	20.843213
75.032254	-3.007200	3.862500	-11.614000	21.460846	0.000434	20.827092
76.027059	-3.004600	3.862500	-11.604000	21.455739	0.000436	20.842844
77.028287	-3.012200	3.863100	-11.636000	21.488510	0.000434	20.816366
78.030878	-3.017000	3.861500	-11.649000	21.483297	0.000436	20.818737
79.027038	-3.014900	3.861400	-11.641000	21.488934	0.000436	20.840972
80.027701	-3.019500	3.861900	-11.659000	21.506738	0.000435	20.833182
81.031910	-2.995100	3.861900	-11.566000	21.496263	0.000434	20.818435
82.035858	-2.974600	3.862400	-11.488000	21.517636	0.000438	20.833656
83.031249	-3.007700	3.860400	-11.610000	21.521329	0.000434	20.816489
84.027934	-2.978700	3.861400	-11.500000	21.544874	0.000436	20.832462
85.029702	-3.012100	3.860500	-11.628000	21.524720	0.000435	20.827468
86.031718	-2.985700	3.862300	-11.530000	21.547742	0.000437	20.812573
87.034656	-2.965700	3.861800	-11.452000	21.559809	0.000436	20.845510
88.036737	-2.986600	3.861100	-11.530000	21.575470	0.000437	20.815189
89.032619	-2.988200	3.861100	-11.536000	21.567292	0.000437	20.838773
90.029528	-2.998700	3.860600	-11.576000	21.585821	0.000437	20.841193
91.028247	-3.000300	3.860500	-11.582000	21.588369	0.000439	20.834735
92.038368	-2.987700	3.859800	-11.530000	21.596270	0.000436	20.838847
93.033978	-3.000500	3.860700	-11.582000	21.621831	0.000437	20.821754
94.030506	-2.994100	3.860200	-11.557000	21.610060	0.000439	20.811396
95.036230	-3.004400	3.859900	-11.595000	21.636414	0.000437	20.826863
96.030041	-2.989600	3.859600	-11.538000	21.665299	0.000440	20.818786
97.036969	-3.006700	3.860900	-11.608000	21.638464	0.000438	20.819432
98.033872	-3.010900	3.860300	-11.622000	21.654384	0.000437	20.805018
99.036905	-2.998600	3.858700	-11.570000	21.658788	0.000439	20.834081
100.031500	-3.014900	3.860200	-11.637000	21.665846	0.000439	20.811747
101.031878	-2.988700	3.860600	-11.537000	21.664940	0.000439	20.818427
102.034694	-3.000200	3.859100	-11.577000	21.683728	0.000440	20.818263
103.034982	-2.992100	3.859500	-11.547000	21.701577	0.000438	20.811470
104.037810	-2.995500	3.858300	-11.557000	21.713691	0.000439	20.813162
105.031326	-3.012300	3.858100	-11.620000	21.712628	0.000440	20.804512
106.036717	-3.018100	3.856700	-11.639000	21.725315	0.000440	20.813890
107.034026	-2.998200	3.856700	-11.563000	21.751495	0.000440	20.805952
108.034296	-2.985700	3.858900	-11.521000	21.752842	0.000438	20.812042
109.034118	-2.996800	3.858000	-11.560000	21.745157	0.000441	20.796290
110.035677	-2.993400	3.856800	-11.544000	21.752859	0.000440	20.786929
111.034714	-3.014900	3.856000	-11.625000	21.747525	0.000439	20.815256
112.031024	-2.995300	3.856400	-11.551000	21.766648	0.000438	20.810212
113.034781	-3.022300	3.856400	-11.654000	21.764082	0.000441	20.808593
114.034878	-3.020000	3.856300	-11.645000	21.771385	0.000441	20.819221
115.037542	-2.980900	3.856400	-11.495000	21.805267	0.000440	20.833216
116.034382	-2.990100	3.856200	-11.529000	21.814047	0.000441	20.816400
117.039746	-2.987300	3.854800	-11.514000	21.797311	0.000440	20.809133
118.037549	-2.998400	3.855700	-11.560000	21.813043	0.000442	20.801645
119.037707	-2.989000	3.856000	-11.524000	21.826430	0.000442	20.820260
120.042132	-3.017500	3.855200	-11.632000	21.820942	0.000443	20.818560
121.039008	-2.994800	3.857000	-11.550000	21.849773	0.000442	20.807588
122.039177	-2.994000	3.855400	-11.542000	21.834606	0.000443	20.798572
123.040174	-2.991900	3.856500	-11.537000	21.859338	0.000441	20.805308
124.038557	-2.989800	3.855800	-11.527000	21.870061	0.000444	20.804662
125.036796	-2.993500	3.855200	-11.539000	21.884518	0.000443	20.787838
126.044326	-2.988700	3.855200	-11.521000	21.883620	0.000443	20.799267
127.038630	-3.024400	3.853800	-11.654000	21.888308	0.000442	20.812968
128.040637	-3.004800	3.854300	-11.580000	21.906024	0.000445	20.786605
129.040848	-3.017700	3.854300	-11.630000	21.912835	0.000444	20.820923
130.038711	-3.013900	3.855200	-11.618000	21.927200	0.000446	20.812069
131.042453	-3.002300	3.853600	-11.569000	21.936944	0.000443	20.818029
132.040954	-3.013500	3.853800	-11.613000	21.917873	0.000445	20.813165
133.037185	-2.987800	3.854400	-11.515000	21.946164	0.000445	20.798336
134.038176	-3.006900	3.853700	-11.587000	21.974494	0.000444	20.816737
135.041721	-3.007700	3.851300	-11.583000	21.959231	0.000445	20.811416
136.043888	-3.014100	3.851500	-11.607000	21.956740	0.000446	20.825517
137.043038	-3.005300	3.853600	-11.580000	21.963691	0.000445	20.799284
138.045935	-3.008600	3.853300	-11.592000	21.988942	0.000446	20.803699
139.044986	-3.011700	3.851300	-11.597000	21.994307	0.000447	20.813811
140.043558	-2.987800	3.851700	-11.506000	21.999647	0.000447	20.804932
141.042807	-3.008600	3.851100	-11.585000	22.014478	0.000448	20.800812
142.046380	-3.002200	3.852500	-11.565000	22.026817	0.000448	20.781871
143.040423	-2.992300	3.851300	-11.523000	22.020309	0.000449	20.780571
144.042976	-2.996000	3.851700	-11.539000	22.026270	0.000450	20.809298
145.042138	-3.012600	3.851300	-11.602000	22.030852	0.000450	20.799186
146.045738	-3.003300	3.851800	-11.567000	22.050875	0.000448	20.784617
147.045190	-2.998600	3.851000	-11.547000	22.046335	0.000450	20.792875
148.044809	-3.012400	3.851000	-11.600000	22.078370	0.000448	20.805031
149.045639	-3.004600	3.851300	-11.571000	22.088881	0.000449	20.806544
150.045246	-2.990800	3.851300	-11.517000	22.107973	0.000450	20.794363
151.042636	-2.965200	3.851300	-11.419000	22.106135	0.000452	20.805325
152.042495	-2.993800	3.850400	-11.527000	22.093968	0.000453	20.781765
153.047399	-2.968400	3.850700	-11.430000	22.086382	0.000451	20.786025
154.042555	-2.992400	3.850800	-11.521000	22.095732	0.000452	20.780686
155.045344	-3.013600	3.849600	-11.600000	22.106306	0.000450	20.782738
156.049326	-2.990500	3.850500	-11.513000	22.125121	0.000453	20.808686
157.042597	-3.017500	3.849300	-11.614000	22.131260	0.000453	20.792548
158.046659	-2.988900	3.849100	-11.503000	22.168022	0.000449	20.798532
159.046774	-2.998300	3.848800	-11.539000	22.150622	0.000451	20.796759
160.047409	-2.980900	3.849000	-11.473000	22.154859	0.000452	20.802898
161.045177	-2.997300	3.849500	-11.537000	22.197057	0.000452	20.787774
162.052761	-2.992000	3.849000	-11.515000	22.189897	0.000452	20.774915
163.046266	-2.989000	3.850100	-11.507000	22.194118	0.000453	20.794314
164.050478	-2.988400	3.848500	-11.500000	22.178841	0.000455	20.788976
165.053762	-3.004200	3.848300	-11.561000	22.200944	0.000451	20.807787
166.049116	-3.001100	3.848800	-11.550000	22.188558	0.000453	20.796808
167.046010	-3.003400	3.848100	-11.556000	22.214636	0.000454	20.775028
168.047518	-2.997700	3.847000	-11.531000	22.229187	0.000455	20.785330
169.050179	-2.979400	3.848100	-11.465000	22.244007	0.000454	20.783099
170.048837	-2.999400	3.847800	-11.540000	22.230485	0.000456	20.790897
171.046801	-2.998000	3.847400	-11.534000	22.242937	0.000457	20.785821
172.048404	-2.994900	3.847000	-11.521000	22.224549	0.000456	20.798230
173.046935	-2.987100	3.846800	-11.489000	22.243295	0.000455	20.764368
174.048323	-3.008000	3.847200	-11.572000	22.266067	0.000459	20.790489
175.051603	-3.005400	3.846100	-11.559000	22.279481	0.000456	20.763617
176.049416	-2.976800	3.847400	-11.452000	22.272901	0.000457	20.781684
177.049745	-3.000300	3.845200	-11.536000	22.283343	0.000458	20.787398
178.054819	-2.994000	3.846400	-11.515000	22.293965	0.000458	20.782861
179.053758	-3.011600	3.846400	-11.581000	22.304628	0.000460	20.786900
180.064571	-3.006200	3.845500	-11.559000	22.284543	0.000459	20.790022
181.052552	-3.015700	3.844400	-11.593000	22.301737	0.000458	20.787799
182.055917	-2.986400	3.845600	-11.484000	22.315519	0.000458	20.781210
183.057992	-3.006400	3.845100	-11.558000	22.313576	0.000461	20.773100
184.065270	-3.004200	3.844000	-11.546000	22.332419	0.000460	20.793390
185.062730	-3.015600	3.843200	-11.588000	22.362201	0.000459	20.782436
186.055053	-2.997000	3.844600	-11.520000	22.358609	0.000461	20.766037
187.060912	-2.975800	3.844600	-11.440000	22.372316	0.000462	20.767434
188.059355	-3.008300	3.843500	-11.561000	22.388415	0.000463	20.771702
189.061366	-3.004200	3.842700	-11.542000	22.406064	0.000460	20.778945
190.057978	-3.016400	3.842000	-11.588000	22.407804	0.000461	20.776419
191.057788	-3.000300	3.842900	-11.529000	22.430352	0.000461	20.773395
192.059542	-2.994700	3.843200	-11.509000	22.442221	0.000463	20.776272
193.059835	-3.015000	3.843000	-11.586000	22.418220	0.000461	20.768832
194.061806	-3.008700	3.841400	-11.557000	22.444360	0.000461	20.776991
195.062178	-3.034400	3.840900	-11.653000	22.434400	0.000462	20.769388
196.061217	-3.001400	3.842000	-11.531000	22.409084	0.000464	20.749726
197.060863	-2.983200	3.841700	-11.459000	22.444286	0.000462	20.763641
198.067871	-2.990000	3.841700	-11.485000	22.438605	0.000463	20.762219
199.061761	-2.974300	3.843000	-11.429000	22.411027	0.000463	20.768267
200.062461	-3.020400	3.841700	-11.602000	22.424825	0.000464	20.774498
201.059781	-3.011000	3.839200	-11.558000	22.429012	0.000466	20.748819
202.064800	-3.013100	3.840600	-11.571000	22.409460	0.000465	20.773336
203.062376	-3.009400	3.840100	-11.556000	22.464196	0.000464	20.767933
204.061275	-2.998900	3.841000	-11.518000	22.464604	0.000466	20.775453
205.064943	-2.971500	3.840700	-11.411000	22.478636	0.000467	20.763902
206.064565	-2.979600	3.839700	-11.440000	22.507614	0.000466	20.768267
207.064392	-2.989400	3.840700	-11.481000	22.538935	0.000468	20.768341
208.067052	-2.982600	3.840900	-11.455000	22.529295	0.000467	20.785239
209.064273	-2.993400	3.838600	-11.489000	22.538714	0.000467	20.756740
210.066789	-2.973800	3.840000	-11.419000	22.545318	0.000468	20.775208
211.063859	-3.030500	3.837400	-11.628000	22.546844	0.000466	20.762037
212.067824	-3.010500	3.838400	-11.555000	22.559945	0.000469	20.789858
213.064440	-2.993500	3.837500	-11.487000	22.563315	0.000469	20.737282
214.064853	-3.005900	3.837800	-11.535000	22.564988	0.000469	20.744647
215.068648	-2.994300	3.839400	-11.495000	22.543579	0.000468	20.769199
216.070688	-3.025800	3.837300	-11.609000	22.537081	0.000470	20.760794
217.071251	-3.024400	3.837400	-11.605000	22.538045	0.000470	20.753224
218.069067	-2.991500	3.838000	-11.480000	22.560082	0.000471	20.753959
219.071980	-2.983100	3.837800	-11.448000	22.565854	0.000470	20.745989
220.078731	-2.996200	3.836900	-11.495000	22.552255	0.000470	20.759396
221.074642	-3.029400	3.835800	-11.620000	22.584693	0.000470	20.747787
222.070240	-2.990600	3.836900	-11.473000	22.601417	0.000472	20.761693
223.078410	-3.000700	3.837200	-11.513000	22.632538	0.000470	20.762044
224.076835	-3.000500	3.836400	-11.510000	22.642806	0.000471	20.745301
225.072053	-2.999200	3.836600	-11.506000	22.625143	0.000472	20.745628
226.073720	-3.017700	3.835100	-11.573000	22.627331	0.000471	20.766312
227.075059	-3.000400	3.836200	-11.509000	22.640064	0.000471	20.759150
228.072701	-2.992500	3.836200	-11.479000	22.625992	0.000472	20.746478
229.074561	-2.990300	3.835600	-11.468000	22.632767	0.000473	20.744254
230.071529	-2.987400	3.835600	-11.458000	22.631322	0.000472	20.750868
231.082194	-3.030300	3.834000	-11.617000	22.672082	0.000474	20.746176
232.076006	-2.979600	3.836300	-11.429000	22.677412	0.000474	20.731599
233.076206	-2.997900	3.835300	-11.497000	22.692363	0.000473	20.746102
234.080000	-3.008200	3.832900	-11.529000	22.686332	0.000476	20.746225
235.072859	-3.006900	3.834700	-11.530000	22.688577	0.000474	20.739938
236.077900	-3.014500	3.833500	-11.555000	22.711094	0.000474	20.760597
237.078450	-2.999300	3.833800	-11.497000	22.728054	0.000473	20.729695
238.080716	-3.005600	3.833000	-11.520000	22.725972	0.000475	20.719548
239.074781	-3.013600	3.832300	-11.548000	22.724471	0.000474	20.745547
240.073766	-2.990200	3.833800	-11.463000	22.743910	0.000475	20.751269
241.074627	-3.006200	3.833700	-11.524000	22.729889	0.000477	20.737223
242.078621	-3.000300	3.832100	-11.496000	22.749085	0.000477	20.739382
243.079017	-3.018500	3.832100	-11.567000	22.805444	0.000477	20.744630
244.080552	-3.000500	3.832800	-11.499000	22.809525	0.000477	20.754883
245.076203	-3.001700	3.832200	-11.502000	22.793839	0.000479	20.725417
246.077739	-3.012100	3.831700	-11.540000	22.796941	0.000478	20.735164
247.076264	-3.014800	3.831200	-11.549000	22.782969	0.000478	20.722589
248.078594	-2.992800	3.832200	-11.468000	22.782398	0.000476	20.716801
249.077443	-2.998200	3.831700	-11.487000	22.798866	0.000478	20.746102
250.079865	-3.018400	3.830600	-11.562000	22.813490	0.000478	20.722344
251.084565	-2.977800	3.832100	-11.411000	22.848164	0.000477	20.749969
252.083733	-2.994200	3.831500	-11.471000	22.828415	0.000479	20.724019
253.083673	-2.999000	3.829600	-11.483000	22.831606	0.000478	20.726267
254.081911	-2.991100	3.830100	-11.455000	22.822459	0.000481	20.707145
255.088986	-2.982800	3.829500	-11.422000	22.853925	0.000481	20.735351
256.079286	-3.010000	3.829500	-11.526000	22.816355	0.000480	20.736594
257.082814	-2.998700	3.829400	-11.482000	22.847225	0.000481	20.729113
258.080184	-3.003900	3.829800	-11.503000	22.854749	0.000481	20.748979
259.084745	-2.999100	3.827600	-11.479000	22.866883	0.000483	20.726521
260.083343	-2.992600	3.829200	-11.458000	22.846082	0.000482	20.708526
261.084043	-3.006700	3.828800	-11.511000	22.839733	0.000481	20.727771
262.083092	-3.014100	3.828500	-11.539000	22.851541	0.000481	20.724427
263.084949	-3.014300	3.827700	-11.537000	22.865365	0.000483	20.738277
264.083249	-2.985000	3.828500	-11.427000	22.885773	0.000483	20.708460
265.082440	-2.995500	3.827700	-11.465000	22.913444	0.000483	20.732390
266.086108	-2.977700	3.828100	-11.398000	22.913746	0.000483	20.749288
267.085634	-3.003400	3.827900	-11.496000	22.900648	0.000485	20.728580
268.081324	-2.995100	3.825900	-11.458000	22.927691	0.000484	20.714420
269.086253	-3.006700	3.827000	-11.506000	22.957163	0.000485	20.736363
270.081484	-2.986700	3.825700	-11.425000	22.948368	0.000485	20.731818
271.082413	-2.975400	3.828200	-11.390000	22.943120	0.000485	20.743156
272.084910	-2.994300	3.826000	-11.455000	22.942142	0.000485	20.742176
273.081325	-3.026500	3.825100	-11.576000	22.957237	0.000485	20.719366
274.082357	-2.989500	3.825800	-11.437000	22.966131	0.000486	20.731122
275.085571	-3.005700	3.825800	-11.498000	22.973131	0.000486	20.711108
276.085486	-2.997600	3.825100	-11.465000	22.975473	0.000485	20.716300
277.087597	-2.988800	3.824600	-11.430000	23.008705	0.000488	20.710241
278.083347	-3.008600	3.824900	-11.506000	23.018366	0.000488	20.714231
279.087989	-2.999900	3.824700	-11.473000	23.043994	0.000486	20.733746
280.093564	-2.971800	3.825100	-11.366000	23.039409	0.000487	20.724410
281.090043	-2.989900	3.824800	-11.435000	23.010476	0.000486	20.720550
282.087929	-2.992700	3.824600	-11.444000	23.040762	0.000489	20.709170
283.088323	-2.994000	3.823400	-11.446000	23.047363	0.000487	20.714836
284.087926	-3.008700	3.823900	-11.503000	23.054812	0.000488	20.703806
285.089154	-2.985000	3.823000	-11.410000	23.027985	0.000488	20.704428
286.092073	-3.012200	3.822600	-11.514000	23.028858	0.000489	20.718106
287.089606	-2.991600	3.823000	-11.435000	23.032970	0.000491	20.707052
288.092020	-2.998800	3.822300	-11.462000	23.085122	0.000487	20.711418
289.088631	-3.007900	3.824000	-11.501000	23.086899	0.000487	20.704190
290.089222	-3.003800	3.822200	-11.480000	23.065654	0.000490	20.689539
291.085701	-2.986200	3.822000	-11.412000	23.069888	0.000491	20.714172
292.089757	-2.981100	3.822800	-11.394000	23.044931	0.000490	20.726150
293.086949	-2.984600	3.821700	-11.405000	23.046088	0.000492	20.717352
294.089751	-2.993200	3.822100	-11.440000	23.066282	0.000491	20.714352
295.088752	-2.998000	3.820800	-11.453000	23.076251	0.000491	20.703477
296.092680	-2.993100	3.820400	-11.433000	23.066086	0.000492	20.699455
297.088866	-3.025400	3.818800	-11.552000	23.095498	0.000492	20.717074
298.095307	-3.010800	3.819400	-11.498000	23.094110	0.000493	20.691026
299.091212	-3.007100	3.820500	-11.488000	23.102039	0.000492	20.690910
300.091964	-2.993000	3.820100	-11.433000	23.083357	0.000493	20.714391
301.093541	-2.988100	3.819500	-11.412000	23.103606	0.000493	20.712870
302.090629	-2.989800	3.820000	-11.421000	23.142684	0.000493	20.703664
303.093921	-3.019200	3.818400	-11.528000	23.145359	0.000493	20.723416
304.094808	-2.990800	3.818900	-11.421000	23.154423	0.000495	20.708315
305.097110	-3.006900	3.818400	-11.480000	23.162541	0.000495	20.718347
306.093554	-2.997500	3.817300	-11.442000	23.196307	0.000495	20.728477
307.094379	-2.994700	3.817900	-11.432000	23.200940	0.000495	20.689495
308.096886	-2.949100	3.817900	-11.259000	23.210656	0.000496	20.716777
309.102337	-3.006500	3.816800	-11.474000	23.197530	0.000499	20.716426
310.092313	-2.982200	3.818100	-11.385000	23.221840	0.000496	20.687205
311.093893	-2.985000	3.817000	-11.393000	23.252071	0.000495	20.716082
312.096473	-3.010500	3.817200	-11.491000	23.245668	0.000498	20.716777
313.098770	-3.006800	3.817400	-11.477000	23.246124	0.000497	20.701586
314.100114	-2.986000	3.816400	-11.395000	23.249885	0.000498	20.715787
315.099130	-3.004200	3.815800	-11.463000	23.249461	0.000498	20.710146
316.098641	-3.020800	3.815100	-11.524000	23.253849	0.000498	20.705060
317.098083	-3.007300	3.815900	-11.474000	23.260441	0.000499	20.718779
318.101171	-3.010800	3.816300	-11.489000	23.266746	0.000498	20.708502
319.099366	-2.990000	3.817700	-11.414000	23.290353	0.000498	20.712721
320.094225	-2.996600	3.814800	-11.430000	23.294236	0.000498	20.720880
321.101139	-2.996600	3.814500	-11.429000	23.264650	0.000499	20.725369
322.101297	-2.994700	3.814700	-11.423000	23.260066	0.000500	20.708920
323.102882	-3.000500	3.815800	-11.448000	23.290394	0.000499	20.726040
324.102261	-2.995000	3.814400	-11.423000	23.286014	0.000501	20.707898
325.099068	-3.000500	3.814800	-11.445000	23.323715	0.000500	20.708699
326.100549	-3.025300	3.812800	-11.534000	23.320779	0.000501	20.707178
327.101316	-3.008300	3.812000	-11.467000	23.357459	0.000502	20.724976
328.100526	-3.001600	3.813900	-11.447000	23.341244	0.000502	20.713939
329.100945	-2.971000	3.813900	-11.330000	23.325093	0.000502	20.733315
330.099379	-2.996300	3.812400	-11.422000	23.285874	0.000500	20.726251
331.098533	-3.015900	3.812100	-11.496000	23.284210	0.000502	20.704193
332.103225	-2.998300	3.812300	-11.429000	23.293493	0.000501	20.714446
333.102953	-2.996400	3.812300	-11.423000	23.323828	0.000502	20.724460
334.102225	-3.008500	3.811100	-11.464000	23.282121	0.000501	20.694987
335.118366	-3.006400	3.811000	-11.457000	23.302097	0.000502	20.729234
336.099557	-2.999100	3.810700	-11.428000	23.300001	0.000502	20.715753
337.101892	-2.985400	3.810300	-11.374000	23.342058	0.000502	20.717126
338.104493	-2.993100	3.811800	-11.408000	23.360492	0.000504	20.715212
339.102019	-2.994100	3.811100	-11.410000	23.377589	0.000504	20.712433
340.102731	-2.995900	3.810500	-11.415000	23.346569	0.000503	20.711689
341.102989	-2.986900	3.810700	-11.381000	23.369498	0.000504	20.714281
342.103543	-3.020200	3.810100	-11.506000	23.389717	0.000502	20.706571
343.103837	-3.036500	3.808700	-11.564000	23.400728	0.000502	20.727092
344.107920	-3.006900	3.809500	-11.454000	23.405378	0.000504	20.727485
345.105764	-2.990700	3.808100	-11.388000	23.407694	0.000505	20.701829
346.106412	-2.985800	3.810300	-11.376000	23.425866	0.000506	20.725261
347.105274	-3.022100	3.809200	-11.511000	23.423060	0.000508	20.727664
348.110785	-3.007200	3.808100	-11.451000	23.379391	0.000505	20.744587
349.107461	-3.007300	3.808600	-11.453000	23.389847	0.000505	20.720927
350.111603	-2.979400	3.807400	-11.343000	23.400858	0.000507	20.724851
351.112197	-3.013900	3.807100	-11.473000	23.426673	0.000507	20.723699
352.109469	-2.985600	3.807600	-11.367000	23.452593	0.000506	20.720281
353.109709	-3.019800	3.806800	-11.494000	23.462975	0.000507	20.739698
354.111843	-2.993900	3.806800	-11.396000	23.444624	0.000507	20.738374
355.108907	-2.990800	3.807200	-11.385000	23.461034	0.000507	20.726372
356.105998	-2.964900	3.807400	-11.288000	23.490044	0.000507	20.725104
357.109692	-3.000700	3.805900	-11.419000	23.502416	0.000508	20.711901
358.110581	-3.008900	3.805400	-11.449000	23.479637	0.000508	20.719414
359.110292	-3.013100	3.806700	-11.469000	23.448588	0.000510	20.718637
360.111209	-3.012300	3.804500	-11.460000	23.496291	0.000508	20.732789
361.114366	-2.971400	3.806600	-11.310000	23.485436	0.000508	20.730443
362.107518	-3.002200	3.804200	-11.420000	23.484938	0.000509	20.725202
363.109804	-3.012000	3.805100	-11.461000	23.496886	0.000509	20.752353
364.109966	-3.023400	3.804100	-11.500000	23.492205	0.000509	20.740548
365.110953	-3.003200	3.803700	-11.423000	23.496168	0.000510	20.732666
366.111283	-2.999900	3.804200	-11.412000	23.494945	0.000512	20.720534
367.109781	-2.998300	3.804400	-11.405000	23.497090	0.000511	20.732168
368.112454	-2.990300	3.804700	-11.376000	23.490394	0.000513	20.728775
369.108149	-3.002000	3.803700	-11.418000	23.501722	0.000511	20.730647
370.115870	-3.004500	3.802800	-11.424000	23.517959	0.000511	20.733173
371.109159	-3.004900	3.802700	-11.426000	23.515195	0.000510	20.721866
372.110327	-2.990700	3.802500	-11.371000	23.548110	0.000512	20.719773
373.117370	-3.012600	3.801900	-11.453000	23.542100	0.000510	20.740302
374.110374	-2.994900	3.802500	-11.387000	23.565652	0.000511	20.750162
375.114447	-3.011800	3.801900	-11.450000	23.589603	0.000512	20.735765
376.111954	-3.012600	3.800400	-11.448000	23.598867	0.000512	20.750267
377.111724	-3.002400	3.802000	-11.414000	23.624881	0.000513	20.729878
378.112629	-3.017600	3.800900	-11.467000	23.617183	0.000513	20.733541
379.116395	-3.010000	3.800000	-11.437000	23.628885	0.000512	20.752859
380.113979	-3.006800	3.799300	-11.422000	23.598239	0.000512	20.738258
381.113442	-3.017000	3.798700	-11.459000	23.594326	0.000511	20.738128
382.111045	-3.019000	3.800600	-11.473000	23.590027	0.000516	20.742828
383.114005	-2.968900	3.800800	-11.283000	23.565253	0.000512	20.752132
384.111555	-3.001600	3.799700	-11.404000	23.589890	0.000512	20.746484
385.114886	-2.994700	3.799400	-11.377000	23.612257	0.000512	20.761321
386.116442	-2.988300	3.798900	-11.352000	23.635972	0.000512	20.728195
387.111029	-2.976500	3.800400	-11.311000	23.636095	0.000515	20.743965
388.115089	-2.990400	3.798200	-11.357000	23.616254	0.000513	20.743042
389.115258	-2.995500	3.798300	-11.377000	23.592997	0.000512	20.741538
390.115430	-3.009300	3.797000	-11.426000	23.622763	0.000513	20.757154
391.114906	-2.991800	3.797000	-11.359000	23.624964	0.000514	20.766947
392.121388	-3.008100	3.796600	-11.418000	23.626456	0.000514	20.747105
393.111841	-3.010800	3.797400	-11.432000	23.672929	0.000513	20.762402
394.113132	-2.997900	3.797100	-11.382000	23.651369	0.000517	20.737941
395.114794	-3.015400	3.796200	-11.445000	23.672929	0.000515	20.749125
396.117887	-3.001900	3.796600	-11.397000	23.684679	0.000516	20.742887
397.116254	-3.003800	3.795200	-11.399000	23.698664	0.000516	20.765443
398.112695	-3.023800	3.794900	-11.474000	23.683922	0.000515	20.741653
399.119634	-2.982500	3.795500	-11.317000	23.695223	0.000516	20.754881
400.121396	-2.998800	3.794900	-11.378000	23.743242	0.000517	20.748970
401.115530	-3.000900	3.794100	-11.385000	23.702325	0.000516	20.757259
402.116544	-2.988800	3.794000	-11.339000	23.744107	0.000517	20.758846
403.115992	-3.001800	3.794300	-11.389000	23.732316	0.000516	20.747972
404.114592	-3.006600	3.793900	-11.405000	23.731737	0.000517	20.749763
405.117713	-2.994700	3.794900	-11.364000	23.735447	0.000518	20.759173
406.118436	-3.010900	3.793600	-11.421000	23.735675	0.000518	20.731900
407.116285	-2.991800	3.794000	-11.350000	23.709370	0.000518	20.761478
408.117258	-3.015500	3.792200	-11.435000	23.684174	0.000517	20.748071
409.113582	-2.997100	3.792500	-11.366000	23.709885	0.000517	20.754881
410.119771	-3.012300	3.791800	-11.421000	23.726192	0.000517	20.753213
411.121168	-2.999900	3.792100	-11.375000	23.733409	0.000518	20.756181
412.117405	-3.010600	3.791300	-11.413000	23.766275	0.000518	20.747882
413.117745	-2.993200	3.791600	-11.348000	23.751901	0.000520	20.763342
414.117522	-3.008200	3.790500	-11.401000	23.799403	0.000518	20.746958
415.123197	-3.003700	3.791400	-11.387000	23.842632	0.000519	20.748103
416.117999	-3.014100	3.790900	-11.424000	23.863169	0.000518	20.770593
417.118398	-3.010800	3.790900	-11.414000	23.863838	0.000518	20.762254
418.120683	-3.008700	3.790700	-11.404000	23.836190	0.000518	20.737376
419.118328	-2.996800	3.791400	-11.361000	23.868647	0.000520	20.763758
420.118008	-3.017600	3.790300	-11.437000	23.893839	0.000519	20.761043
421.126513	-2.981900	3.789600	-11.299000	23.908742	0.000520	20.760340
422.118646	-2.990900	3.789700	-11.334000	23.890904	0.000517	20.755729
423.121685	-2.975900	3.790200	-11.278000	23.868451	0.000518	20.772570
424.123571	-2.982900	3.790200	-11.304000	23.868304	0.000517	20.766259
425.121161	-3.016600	3.788500	-11.427000	23.865418	0.000520	20.760520
426.121994	-3.027400	3.788300	-11.468000	23.864081	0.000520	20.769610
427.121533	-3.013800	3.788300	-11.416000	23.837974	0.000520	20.769512
428.122499	-3.026500	3.788700	-11.465000	23.832829	0.000521	20.757240
429.124120	-3.024800	3.786700	-11.454000	23.854028	0.000520	20.762849
430.125388	-3.020800	3.788100	-11.442000	23.847366	0.000521	20.772765
431.130398	-3.015300	3.786700	-11.417000	23.827057	0.000519	20.758090
432.123094	-3.009600	3.787100	-11.397000	23.815112	0.000521	20.756071
433.122159	-3.009400	3.785800	-11.391000	23.839555	0.000521	20.775838
434.126559	-2.998000	3.787000	-11.352000	23.853268	0.000519	20.759243
435.126779	-3.005500	3.785600	-11.377000	23.899658	0.000521	20.792483
436.130476	-3.007300	3.785500	-11.383000	23.913672	0.000522	20.779509
437.129573	-3.004900	3.785400	-11.373000	23.924450	0.000522	20.735313
438.125751	-2.981900	3.786300	-11.289000	23.939157	0.000522	20.760019
439.129009	-3.007400	3.784200	-11.380000	23.954939	0.000522	20.759724
440.124205	-2.993600	3.783400	-11.325000	23.938716	0.000520	20.789923
441.138721	-3.009700	3.784200	-11.388000	23.928786	0.000521	20.774750
442.122809	-2.999200	3.784500	-11.350000	23.927718	0.000524	20.768463
443.127768	-3.013900	3.784000	-11.402000	23.957654	0.000522	20.779991
444.127864	-3.008000	3.783700	-11.381000	23.958852	0.000521	20.774554
445.128443	-3.015200	3.782900	-11.405000	23.980234	0.000521	20.772763
446.132384	-2.988200	3.783200	-11.304000	24.001308	0.000523	20.794844
447.129908	-2.996600	3.783100	-11.335000	24.030825	0.000524	20.788884
448.130502	-2.990400	3.783700	-11.314000	23.999017	0.000524	20.771684
449.127530	-2.997600	3.783500	-11.340000	24.004323	0.000524	20.786489
450.135371	-3.005100	3.783100	-11.367000	23.995022	0.000523	20.773841
451.132453	-2.987000	3.782700	-11.298000	23.994328	0.000523	20.819613
452.129275	-3.008200	3.781600	-11.375000	23.982549	0.000524	20.777455
453.137252	-2.993500	3.781800	-11.320000	24.001477	0.000523	20.780789
454.129633	-3.015700	3.781600	-11.402000	23.971437	0.000523	20.780536
455.130631	-2.979900	3.781200	-11.266000	23.970393	0.000525	20.802723
456.130144	-2.990900	3.781100	-11.308000	23.990553	0.000523	20.770309
457.129877	-2.996000	3.780600	-11.326000	23.985401	0.000525	20.788376
458.128742	-2.995600	3.779400	-11.321000	23.982996	0.000523	20.776955
459.133164	-2.988700	3.779100	-11.294000	23.990757	0.000527	20.779996
460.128310	-3.006200	3.778900	-11.359000	24.035257	0.000525	20.794751
461.128762	-2.989600	3.778800	-11.296000	24.038468	0.000528	20.787541
462.132537	-2.992300	3.780200	-11.311000	24.036398	0.000527	20.792103
463.136610	-3.004400	3.777400	-11.348000	24.030406	0.000525	20.805060
464.132275	-2.979400	3.780000	-11.261000	24.033317	0.000525	20.771469
465.130010	-2.991300	3.779800	-11.306000	24.043914	0.000526	20.784467
466.133574	-2.992300	3.777700	-11.303000	24.052228	0.000524	20.799444
467.128782	-3.011800	3.776400	-11.373000	24.081257	0.000526	20.791572
468.131530	-2.987000	3.778700	-11.286000	24.107144	0.000526	20.781026
469.131785	-2.984400	3.778400	-11.275000	24.094208	0.000525	20.805035
470.133699	-2.988200	3.778700	-11.291000	24.068523	0.000525	20.783069
471.132872	-2.978400	3.777000	-11.249000	24.080360	0.000525	20.793044
472.133851	-2.984500	3.776700	-11.270000	24.080294	0.000527	20.810521
473.138443	-2.974200	3.777200	-11.234000	24.091592	0.000526	20.799093
474.137750	-3.009000	3.775300	-11.359000	24.083701	0.000527	20.780748
475.137239	-2.989000	3.776800	-11.288000	24.065638	0.000526	20.806728
476.135118	-2.968300	3.776300	-11.208000	24.080017	0.000526	20.802657
477.133397	-2.984500	3.774900	-11.265000	24.082447	0.000525	20.802249
478.135941	-2.994800	3.776900	-11.310000	24.091934	0.000527	20.802281
479.143670	-2.993300	3.775100	-11.299000	24.105270	0.000526	20.803328
480.137569	-3.003200	3.775400	-11.337000	24.122167	0.000524	20.796567
481.140342	-3.005900	3.775000	-11.345000	24.137841	0.000526	20.805649
482.136099	-3.017000	3.773700	-11.384000	24.129062	0.000525	20.802534
483.134592	-2.991300	3.773400	-11.286000	24.131622	0.000527	20.815059
484.138611	-3.020100	3.771900	-11.390000	24.150434	0.000527	20.810219
485.150057	-2.984000	3.774500	-11.262000	24.145013	0.000528	20.818533
486.135308	-3.015100	3.771900	-11.372000	24.154811	0.000528	20.822195
487.138609	-3.005000	3.771500	-11.332000	24.156955	0.000527	20.803009
488.136073	-3.000500	3.772300	-11.318000	24.143000	0.000526	20.795177
489.138307	-3.019900	3.771500	-11.389000	24.169344	0.000525	20.810219
490.136162	-3.011300	3.772200	-11.358000	24.202940	0.000526	20.817363
491.139011	-3.016900	3.771300	-11.377000	24.234962	0.000527	20.817241
492.141008	-3.019800	3.771800	-11.390000	24.223739	0.000528	20.814993
493.140160	-2.978000	3.771300	-11.230000	24.219933	0.000529	20.809278
494.143613	-2.962700	3.770600	-11.170000	24.200243	0.000526	20.805649
495.142529	-2.970200	3.770600	-11.199000	24.213185	0.000529	20.815786
496.142898	-3.004800	3.771500	-11.332000	24.191896	0.000527	20.830942
497.142295	-2.976500	3.770600	-11.222000	24.190600	0.000529	20.818263
498.145431	-3.014200	3.769700	-11.362000	24.182465	0.000528	20.812000
499.137364	-3.006900	3.769800	-11.335000	24.172082	0.000528	20.805853
500.141144	-3.009200	3.769600	-11.343000	24.213511	0.000526	20.797147
501.139441	-2.983600	3.770400	-11.248000	24.220839	0.000529	20.828679
502.143456	-3.007400	3.767700	-11.330000	24.226502	0.000528	20.824876
503.141624	-2.999000	3.768600	-11.301000	24.252283	0.000530	20.833191
504.145313	-3.005600	3.768200	-11.325000	24.234082	0.000527	20.823471
505.143258	-2.974500	3.768900	-11.210000	24.265852	0.000529	20.826414
506.142189	-3.007500	3.766600	-11.327000	24.267343	0.000529	20.833599
507.143173	-2.993200	3.767200	-11.275000	24.273432	0.000528	20.838758
508.138746	-3.021400	3.766000	-11.378000	24.299405	0.000529	20.838260
509.141671	-2.987400	3.767000	-11.252000	24.296415	0.000529	20.822458
510.144221	-3.008400	3.766500	-11.330000	24.249495	0.000526	20.833241
511.146266	-3.009800	3.766100	-11.333000	24.294695	0.000529	20.839699
512.144614	-2.994300	3.766000	-11.275000	24.312290	0.000530	20.823684
513.148012	-2.993900	3.767500	-11.279000	24.297188	0.000527	20.832243
514.147423	-2.990000	3.765800	-11.258000	24.306838	0.000527	20.833388
515.150381	-2.989400	3.765200	-11.255000	24.327929	0.000529	20.823726
516.144041	-2.971800	3.765100	-11.188000	24.337904	0.000527	20.834206
517.144591	-3.001800	3.764000	-11.298000	24.356093	0.000528	20.828745
518.143014	-2.998300	3.765200	-11.289000	24.357935	0.000528	20.858092
519.142745	-3.015800	3.763600	-11.350000	24.348734	0.000530	20.844595
520.147955	-2.995200	3.764500	-11.275000	24.315787	0.000528	20.839994
521.148486	-2.997000	3.764600	-11.282000	24.334799	0.000529	20.823505
522.140501	-3.002400	3.763600	-11.298000	24.322762	0.000529	20.843197
523.143221	-3.019000	3.762600	-11.358000	24.357438	0.000528	20.849059
524.146563	-3.001200	3.763100	-11.292000	24.341140	0.000528	20.827494
525.143333	-3.010400	3.763500	-11.329000	24.333675	0.000530	20.837549
526.146245	-3.000600	3.763200	-11.291000	24.334302	0.000530	20.830592
527.145888	-3.014200	3.761700	-11.337000	24.312079	0.000528	20.852869
528.143084	-3.003000	3.761900	-11.296000	24.327041	0.000531	20.849386
529.143468	-3.016000	3.761700	-11.345000	24.332118	0.000530	20.847841
530.147872	-2.994100	3.762300	-11.263000	24.360893	0.000528	20.846836
531.147442	-2.984400	3.761200	-11.224000	24.370868	0.000528	20.834557
532.150625	-2.975700	3.761300	-11.192000	24.355075	0.000529	20.851430
533.151662	-2.991600	3.761000	-11.251000	24.337065	0.000527	20.863708
534.149822	-3.000500	3.760200	-11.282000	24.319225	0.000528	20.858615
535.148507	-2.976800	3.761200	-11.195000	24.321939	0.000529	20.867975
536.150477	-2.999400	3.759700	-11.275000	24.315224	0.000529	20.856972
537.151696	-3.007600	3.760300	-11.309000	24.340006	0.000528	20.856228
538.146154	-3.010800	3.759500	-11.318000	24.375749	0.000528	20.863160
539.147553	-2.986500	3.760500	-11.230000	24.398306	0.000529	20.856392
540.153042	-3.003900	3.759700	-11.293000	24.401989	0.000529	20.871466
541.151517	-2.987300	3.758600	-11.227000	24.420593	0.000529	20.846983
542.148549	-3.004300	3.758700	-11.292000	24.415475	0.000526	20.855599
543.154767	-2.985800	3.757500	-11.218000	24.406275	0.000528	20.856800
544.151339	-2.987200	3.757600	-11.224000	24.402339	0.000530	20.853326
545.158016	-3.011400	3.757500	-11.314000	24.408263	0.000529	20.856424
546.158550	-3.014500	3.756000	-11.322000	24.383752	0.000529	20.852223
547.155056	-3.020100	3.756600	-11.344000	24.381193	0.000529	20.865776
548.163435	-2.999700	3.755700	-11.265000	24.402934	0.000529	20.868147
549.158354	-3.007400	3.756400	-11.295000	24.433396	0.000531	20.872628
550.158055	-2.996400	3.755400	-11.251000	24.468678	0.000526	20.875308
551.160118	-3.011000	3.756100	-11.308000	24.455616	0.000526	20.856989
552.159425	-3.015600	3.754900	-11.322000	24.469437	0.000527	20.849044
553.156199	-2.989500	3.755200	-11.225000	24.447322	0.000529	20.881857
554.156836	-3.004500	3.755300	-11.281000	24.428841	0.000529	20.875644
555.154945	-2.980800	3.755300	-11.193000	24.431033	0.000529	20.861723
556.160254	-2.983700	3.754300	-11.201000	24.443810	0.000527	20.880231
557.159211	-2.987900	3.755400	-11.220000	24.461549	0.000526	20.861519
558.157149	-2.971600	3.754600	-11.157000	24.486321	0.000528	20.865508
559.159289	-2.996700	3.753900	-11.249000	24.496067	0.000530	20.875285
560.160046	-3.015900	3.752700	-11.317000	24.472591	0.000526	20.865958
561.163294	-3.025500	3.753500	-11.355000	24.447853	0.000527	20.856787
562.165870	-3.002000	3.754000	-11.269000	24.471589	0.000527	20.883444
563.161458	-3.002000	3.752900	-11.265000	24.505959	0.000529	20.843961
564.159089	-3.006000	3.753300	-11.282000	24.517122	0.000529	20.862273
565.171028	-2.986000	3.753600	-11.207000	24.548891	0.000527	20.852422
566.159295	-3.010100	3.752900	-11.296000	24.540769	0.000527	20.860867
567.161785	-3.010800	3.751300	-11.294000	24.510702	0.000527	20.866736
568.162046	-3.010600	3.751600	-11.294000	24.521694	0.000526	20.861644
569.162888	-3.004800	3.752800	-11.276000	24.505153	0.000526	20.878238
570.159952	-3.012500	3.751000	-11.299000	24.495880	0.000529	20.875573
571.166577	-2.991000	3.750400	-11.218000	24.505227	0.000526	20.858398
572.158463	-3.001400	3.751500	-11.259000	24.537135	0.000527	20.845368
573.164138	-3.030300	3.750000	-11.363000	24.549821	0.000528	20.852407
574.168879	-3.007400	3.750000	-11.277000	24.562475	0.000527	20.869369
575.162523	-3.008200	3.749200	-11.277000	24.582404	0.000528	20.841477
576.165939	-2.993600	3.749600	-11.224000	24.571877	0.000527	20.850355
577.164299	-2.994700	3.749900	-11.228000	24.530046	0.000528	20.853429
578.162390	-3.021200	3.747900	-11.323000	24.551956	0.000528	20.855971
579.162395	-3.004700	3.748400	-11.261000	24.590836	0.000529	20.844248
580.163432	-2.981800	3.749500	-11.179000	24.573449	0.000529	20.841976
581.165307	-3.011700	3.748300	-11.288000	24.559192	0.000527	20.865601
582.162241	-2.988700	3.749700	-11.206000	24.563893	0.000527	20.847085
583.159640	-3.005600	3.748200	-11.264000	24.567502	0.000527	20.855448
584.163986	-2.983700	3.748100	-11.181000	24.562850	0.000530	20.828022
585.160381	-2.997800	3.746100	-11.229000	24.556258	0.000528	20.835158
586.170457	-3.017700	3.746200	-11.303000	24.533721	0.000529	20.831513
587.163330	-2.998500	3.746600	-11.233000	24.509074	0.000526	20.835232
588.161520	-3.003100	3.746900	-11.252000	24.501715	0.000527	20.840177
589.163719	-3.018800	3.745900	-11.307000	24.545739	0.000528	20.842622
590.168437	-2.993400	3.746300	-11.213000	24.582852	0.000528	20.850461
591.165003	-2.963800	3.747300	-11.105000	24.605860	0.000527	20.843676
592.162589	-3.003900	3.745300	-11.250000	24.634506	0.000528	20.841600
593.168712	-3.004100	3.744900	-11.250000	24.649978	0.000528	20.821563
594.164350	-3.012300	3.744900	-11.279000	24.655004	0.000530	20.824710
595.167403	-3.017400	3.744800	-11.298000	24.649456	0.000528	20.797807
596.178482	-2.990900	3.744800	-11.199000	24.673188	0.000526	20.832525
597.165866	-2.989800	3.745200	-11.197000	24.638889	0.000528	20.824661
598.165730	-3.011300	3.742500	-11.269000	24.612165	0.000526	20.808277
599.168159	-2.985400	3.744000	-11.176000	24.570678	0.000526	20.832557
600.166645	-3.008900	3.742900	-11.261000	24.601117	0.000526	20.814262
601.168211	-2.989800	3.744600	-11.194000	24.650139	0.000528	20.823148
602.170308	-2.983900	3.742700	-11.167000	24.670213	0.000527	20.816738
603.170465	-3.005800	3.743900	-11.253000	24.674221	0.000528	20.824079
604.165672	-3.014800	3.742700	-11.283000	24.663084	0.000528	20.808636
605.168531	-3.006200	3.742500	-11.250000	24.639922	0.000526	20.816215
606.170490	-3.008600	3.742400	-11.258000	24.627188	0.000526	20.824300
607.169595	-3.000900	3.741700	-11.228000	24.594566	0.000527	20.829024
608.171361	-2.977100	3.743100	-11.143000	24.610380	0.000527	20.816444
609.171365	-3.005700	3.741000	-11.244000	24.585832	0.000526	20.826425
610.172997	-2.977300	3.742400	-11.141000	24.603674	0.000525	20.815405
611.168870	-2.992000	3.741100	-11.193000	24.607447	0.000526	20.802121
612.174539	-3.009000	3.741000	-11.256000	24.605141	0.000526	20.820195
613.170059	-2.993800	3.740900	-11.199000	24.562561	0.000525	20.834844
614.172287	-2.985200	3.740400	-11.165000	24.561486	0.000526	20.837085
615.177316	-3.008500	3.740000	-11.250000	24.595095	0.000527	20.824814
616.173067	-2.988500	3.740500	-11.178000	24.626430	0.000527	20.816901
617.175519	-3.018500	3.739400	-11.287000	24.667760	0.000527	20.824708
618.171940	-3.002800	3.738500	-11.225000	24.683116	0.000524	20.812142
619.177316	-2.989100	3.739200	-11.176000	24.664533	0.000528	20.810565
620.172907	-2.989100	3.739500	-11.177000	24.627260	0.000525	20.802087
621.173826	-2.992000	3.737400	-11.182000	24.624522	0.000524	20.807875
622.170569	-3.012100	3.737700	-11.257000	24.662822	0.000526	20.801261
623.171793	-2.992300	3.737200	-11.182000	24.676606	0.000526	20.823153
624.177647	-3.016000	3.738100	-11.273000	24.701544	0.000523	20.809297
625.175557	-3.000400	3.737400	-11.213000	24.710823	0.000524	20.811970
626.179665	-2.994000	3.737000	-11.187000	24.706815	0.000525	20.796095
627.177152	-3.015100	3.736900	-11.266000	24.719906	0.000524	20.809231
628.177866	-3.018900	3.734900	-11.275000	24.711327	0.000523	20.800149
629.182447	-2.992500	3.736300	-11.180000	24.738039	0.000524	20.816523
630.178766	-2.990900	3.735500	-11.172000	24.729478	0.000524	20.799871
631.178015	-2.986800	3.736300	-11.159000	24.710358	0.000523	20.793012
632.177319	-3.014100	3.735100	-11.257000	24.703792	0.000525	20.808234
633.174405	-3.006700	3.733900	-11.226000	24.725730	0.000525	20.787575
634.179467	-2.992900	3.735300	-11.179000	24.682788	0.000524	20.791425
635.183380	-3.006300	3.734400	-11.226000	24.655553	0.000524	20.796338
636.180606	-2.998700	3.735700	-11.201000	24.654388	0.000523	20.812238
637.177012	-2.995800	3.734200	-11.186000	24.649712	0.000523	20.794744
638.182403	-2.995200	3.734400	-11.185000	24.690486	0.000521	20.798675
639.179163	-3.004400	3.733400	-11.215000	24.695204	0.000524	20.795348
640.185841	-2.995400	3.732700	-11.181000	24.711969	0.000524	20.792732
641.180637	-3.019200	3.732000	-11.267000	24.736018	0.000523	20.789838
642.181495	-3.032500	3.732200	-11.317000	24.702127	0.000524	20.806090
643.192821	-2.991200	3.732100	-11.163000	24.666436	0.000521	20.781655
644.179028	-2.998600	3.732100	-11.190000	24.656611	0.000522	20.786969
645.182752	-2.980500	3.732100	-11.123000	24.683178	0.000522	20.781384
646.179871	-2.991800	3.732500	-11.166000	24.690266	0.000522	20.801299
647.182946	-2.999200	3.732100	-11.193000	24.727772	0.000524	20.784409
648.182703	-2.992400	3.731000	-11.164000	24.664211	0.000523	20.803604
649.182076	-2.991800	3.731100	-11.162000	24.658215	0.000521	20.799484
650.183011	-3.020600	3.730500	-11.268000	24.676644	0.000522	20.792845
651.183301	-2.977200	3.731700	-11.109000	24.690420	0.000521	20.791971
652.180955	-3.010400	3.731300	-11.230000	24.718249	0.000524	20.805198
653.183182	-3.011500	3.730800	-11.235000	24.739088	0.000520	20.782488
654.189472	-2.980300	3.730000	-11.116000	24.743120	0.000522	20.792698
655.187249	-2.991400	3.730800	-11.160000	24.733646	0.000522	20.777975
656.184347	-2.996500	3.729300	-11.173000	24.700864	0.000521	20.766415
657.187213	-3.004000	3.730100	-11.204000	24.732847	0.000522	20.776699
658.188103	-3.025300	3.728500	-11.278000	24.757564	0.000521	20.792968
659.184022	-2.994400	3.729900	-11.168000	24.769946	0.000522	20.792118
660.184254	-3.003600	3.728400	-11.197000	24.762435	0.000522	20.780313
661.183560	-3.010200	3.727800	-11.220000	24.825761	0.000522	20.774638
662.186405	-3.012000	3.727700	-11.227000	24.863297	0.000521	20.777223
663.188422	-3.018900	3.726900	-11.250000	24.847983	0.000520	20.803105
664.190103	-3.035000	3.725600	-11.306000	24.873674	0.000520	20.793327
665.185286	-2.993100	3.728400	-11.159000	24.884914	0.000520	20.768573
666.186520	-2.985900	3.727700	-11.129000	24.853481	0.000521	20.778277
667.184446	-3.011800	3.726400	-11.222000	24.838737	0.000518	20.790033
668.183202	-2.997500	3.727800	-11.174000	24.837296	0.000521	20.777206
669.183194	-2.989500	3.726500	-11.139000	24.815563	0.000520	20.797120
670.188497	-2.979800	3.727000	-11.105000	24.827700	0.000518	20.776584
671.187859	-3.008800	3.725500	-11.208000	24.828302	0.000520	20.782404
672.190989	-2.999900	3.726700	-11.179000	24.818878	0.000519	20.756824
673.190872	-3.007000	3.726300	-11.204000	24.804532	0.000518	20.769455
674.186409	-3.010000	3.725600	-11.213000	24.846980	0.000517	20.791192
675.187718	-2.996000	3.725200	-11.160000	24.853969	0.000518	20.776395
676.194742	-3.018100	3.724000	-11.239000	24.871278	0.000518	20.765318
677.190065	-3.009800	3.724600	-11.210000	24.901579	0.000519	20.754004
678.192143	-3.033400	3.722300	-11.290000	24.850473	0.000517	20.780474
679.193151	-3.007800	3.722800	-11.196000	24.813101	0.000517	20.791330
680.190802	-2.976700	3.724800	-11.087000	24.786178	0.000517	20.780906
681.198477	-2.998200	3.724300	-11.165000	24.794038	0.000516	20.740430
682.192163	-2.988300	3.723000	-11.124000	24.781127	0.000517	20.779631
683.189798	-2.987900	3.723400	-11.124000	24.781299	0.000518	20.781700
684.196313	-2.994600	3.724100	-11.151000	24.828031	0.000516	20.765063
685.191413	-3.000300	3.722600	-11.168000	24.837488	0.000518	20.764596
686.192262	-2.990000	3.723100	-11.131000	24.838058	0.000514	20.777971
687.192642	-3.005500	3.721700	-11.183000	24.860735	0.000516	20.770384
688.189967	-3.013100	3.721500	-11.212000	24.838832	0.000516	20.784437
689.191906	-2.994700	3.721200	-11.143000	24.828022	0.000515	20.770269
690.192034	-3.018500	3.719800	-11.226000	24.832347	0.000515	20.757540
691.191447	-3.002200	3.722000	-11.174000	24.800668	0.000515	20.748032
692.195663	-2.994400	3.722200	-11.145000	24.841177	0.000515	20.763083
693.191691	-3.004300	3.721500	-11.179000	24.865027	0.000515	20.760466
694.191278	-3.019200	3.720800	-11.233000	24.871844	0.000516	20.766835
695.190987	-3.004900	3.721100	-11.181000	24.869205	0.000515	20.762289
696.191551	-3.004900	3.719200	-11.174000	24.874507	0.000514	20.754334
697.189074	-3.029300	3.719300	-11.266000	24.832908	0.000512	20.745775
698.194989	-2.986100	3.719300	-11.105000	24.830521	0.000514	20.773252
699.192861	-2.980400	3.719600	-11.084000	24.817268	0.000513	20.761847
700.195555	-2.989000	3.718100	-11.112000	24.849990	0.000514	20.766238
701.192439	-2.982800	3.718200	-11.089000	24.854819	0.000514	20.746428
702.193559	-3.014500	3.718600	-11.209000	24.849574	0.000515	20.757285
703.192747	-3.024200	3.717200	-11.241000	24.860944	0.000512	20.760636
704.194064	-3.012800	3.717400	-11.198000	24.832614	0.000513	20.760653
705.188787	-2.996900	3.719300	-11.146000	24.839400	0.000513	20.761299
706.190915	-3.016700	3.716900	-11.212000	24.864790	0.000515	20.757857
707.193226	-2.999500	3.717000	-11.147000	24.853703	0.000514	20.761430
708.204147	-3.016300	3.716600	-11.209000	24.876209	0.000512	20.747507
709.197176	-2.985900	3.718300	-11.101000	24.876706	0.000514	20.760334
710.194997	-2.995100	3.717500	-11.134000	24.846413	0.000513	20.753639
711.197387	-2.991400	3.716100	-11.116000	24.850869	0.000512	20.773284
712.191710	-2.978700	3.716900	-11.071000	24.861123	0.000514	20.756548
713.201660	-3.012200	3.716900	-11.195000	24.894186	0.000513	20.750851
714.195838	-3.001100	3.716600	-11.153000	24.854501	0.000509	20.738996
715.198006	-3.021800	3.714800	-11.225000	24.858281	0.000513	20.740893
716.199965	-2.992400	3.715500	-11.117000	24.869456	0.000510	20.739780
717.195071	-3.006800	3.714600	-11.168000	24.889909	0.000513	20.732808
718.197774	-2.997900	3.714700	-11.135000	24.883100	0.000511	20.738301
719.199622	-2.993600	3.714300	-11.118000	24.888052	0.000510	20.750384
720.199930	-3.003700	3.715100	-11.158000	24.885242	0.000510	20.745667
721.200903	-3.019500	3.713400	-11.211000	24.863909	0.000509	20.747490
722.200671	-2.992800	3.715000	-11.118000	24.889721	0.000511	20.743051
723.200564	-3.018400	3.712400	-11.204000	24.868340	0.000510	20.752411
724.201277	-3.007200	3.713800	-11.166000	24.883710	0.000510	20.756458
725.200591	-2.974200	3.712900	-11.042000	24.907208	0.000507	20.747326
726.197324	-2.950000	3.714300	-10.956000	24.936302	0.000509	20.755190
727.198499	-3.022200	3.712100	-11.217000	24.914246	0.000510	20.745380
728.202979	-3.005600	3.712800	-11.158000	24.876753	0.000509	20.744260
729.197788	-3.000900	3.710800	-11.135000	24.930886	0.000509	20.723199
730.201992	-3.012400	3.712400	-11.182000	24.947045	0.000508	20.733730
731.201610	-2.987700	3.713500	-11.094000	24.933720	0.000508	20.756392
732.202194	-3.006400	3.712500	-11.160000	24.944463	0.000506	20.737302
733.202198	-3.009400	3.711300	-11.168000	24.940366	0.000506	20.729396
734.200477	-3.020000	3.711300	-11.208000	24.939397	0.000507	20.752132
735.202842	-2.985600	3.709900	-11.075000	24.961795	0.000508	20.725774
736.199508	-2.990400	3.711900	-11.100000	24.961428	0.000508	20.733467
737.202946	-2.993700	3.710200	-11.107000	24.972359	0.000507	20.737801
738.204519	-3.011500	3.709900	-11.171000	24.947077	0.000507	20.720010
739.205813	-3.024200	3.708900	-11.215000	24.958814	0.000505	20.740801
740.203708	-3.017300	3.710600	-11.195000	25.002061	0.000505	20.737742
741.204277	-2.998600	3.709700	-11.124000	25.017341	0.000506	20.721784
742.206161	-2.996600	3.709100	-11.113000	25.032432	0.000507	20.740253
743.202597	-3.014000	3.709300	-11.179000	25.043727	0.000505	20.740211
744.200989	-2.995100	3.708800	-11.108000	25.028514	0.000504	20.722094
745.206975	-2.979700	3.708600	-11.049000	25.060561	0.000504	20.735772
746.205942	-2.993000	3.709300	-11.101000	24.979272	0.000504	20.732885
747.205698	-3.002400	3.708700	-11.134000	25.012958	0.000506	20.724023
748.206346	-3.012900	3.707400	-11.169000	25.005147	0.000504	20.725667
749.205791	-3.006300	3.707600	-11.145000	24.947849	0.000503	20.711776
750.207707	-2.998900	3.706900	-11.116000	24.973310	0.000503	20.728323
751.213218	-2.995800	3.707300	-11.105000	24.961027	0.000504	20.715046
752.206367	-2.993900	3.705700	-11.094000	24.951783	0.000504	20.726630
753.205994	-2.990800	3.707100	-11.086000	24.929408	0.000503	20.734045
754.213179	-3.007600	3.706300	-11.146000	24.954194	0.000504	20.723834
755.207328	-3.014300	3.704500	-11.166000	24.988825	0.000504	20.727301
756.213585	-2.981300	3.704800	-11.044000	25.046518	0.000504	20.731633
757.215091	-2.982800	3.706300	-11.055000	25.020783	0.000502	20.722395
758.210823	-3.020400	3.704400	-11.187000	24.997017	0.000500	20.748801
759.212240	-2.993000	3.705200	-11.088000	24.996773	0.000503	20.728640
760.214340	-3.012500	3.704800	-11.159000	24.982748	0.000503	20.708398
761.210675	-2.993700	3.705000	-11.091000	24.982227	0.000503	20.718781
762.210651	-2.983200	3.705600	-11.054000	24.986405	0.000503	20.731510
763.213845	-2.997400	3.703700	-11.101000	25.048562	0.000501	20.715191
764.210419	-2.988200	3.703600	-11.067000	25.042568	0.000502	20.718184
765.211685	-3.014600	3.702600	-11.160000	25.053335	0.000502	20.719508
766.207821	-2.987200	3.704900	-11.066000	25.050875	0.000501	20.708978
767.214129	-3.046700	3.702200	-11.278000	25.079696	0.000501	20.697131
768.211220	-3.006900	3.701500	-11.130000	25.036981	0.000500	20.722533
769.211997	-3.009000	3.702100	-11.139000	25.035263	0.000502	20.732188
770.213991	-3.015900	3.702300	-11.164000	25.046029	0.000500	20.718339
771.212207	-2.977500	3.702800	-11.024000	25.049808	0.000500	20.716442
772.214146	-2.993100	3.702200	-11.080000	25.068002	0.000500	20.704359
773.215437	-3.007200	3.700500	-11.128000	25.085731	0.000497	20.683273
774.211779	-3.009000	3.700800	-11.135000	25.045679	0.000500	20.703762
775.214719	-3.027100	3.701900	-11.205000	25.005934	0.000499	20.706541
776.214942	-3.009700	3.700300	-11.136000	25.031085	0.000499	20.710450
777.212410	-3.000300	3.701500	-11.105000	25.038993	0.000500	20.706533
778.215530	-2.985000	3.701700	-11.049000	25.030718	0.000497	20.712452
779.212496	-3.006300	3.700500	-11.125000	25.040686	0.000496	20.702543
780.215250	-2.984800	3.700100	-11.043000	25.031312	0.000498	20.730594
781.216885	-3.001100	3.699600	-11.102000	25.007596	0.000496	20.700622
782.215768	-2.998300	3.699100	-11.089000	25.001333	0.000496	20.708560
783.215203	-2.981600	3.700800	-11.034000	24.994688	0.000496	20.709951
784.214064	-2.998500	3.699900	-11.093000	25.005462	0.000496	20.706067
785.218566	-3.002500	3.697600	-11.102000	25.049686	0.000496	20.725329
786.221466	-3.009700	3.698800	-11.132000	25.023282	0.000498	20.712101
787.219893	-2.990000	3.699500	-11.061000	24.996747	0.000496	20.694947
788.214598	-2.995100	3.697100	-11.072000	25.001365	0.000496	20.704325
789.219551	-2.992800	3.698200	-11.067000	25.033014	0.000496	20.692944
790.218486	-3.009100	3.698300	-11.128000	25.070403	0.000496	20.713408
791.225870	-3.010000	3.696800	-11.126000	25.045743	0.000495	20.719949
792.219200	-3.002000	3.697600	-11.099000	25.056754	0.000494	20.718199
793.221604	-2.973700	3.699200	-10.999000	25.069907	0.000495	20.707219
794.222109	-2.998700	3.697200	-11.085000	25.100983	0.000495	20.708069
795.221139	-3.000500	3.697000	-11.092000	25.067031	0.000495	20.713816
796.224320	-3.022100	3.696400	-11.170000	25.012188	0.000493	20.722303
797.224314	-2.999200	3.696300	-11.085000	24.986379	0.000492	20.701136
798.228713	-2.989800	3.695200	-11.047000	24.971661	0.000491	20.711495
799.223494	-3.024300	3.694600	-11.172000	25.047770	0.000494	20.707758
800.228724	-2.994100	3.695600	-11.064000	25.065394	0.000492	20.731614
801.227258	-2.995600	3.696300	-11.072000	25.057934	0.000493	20.709426
802.225155	-3.004300	3.695800	-11.102000	25.045930	0.000494	20.709229
803.229239	-2.998000	3.695200	-11.077000	25.093693	0.000494	20.711183
804.222148	-2.998800	3.695100	-11.079000	25.080916	0.000491	20.706891
805.228606	-3.021100	3.695000	-11.162000	25.095159	0.000493	20.711706
806.231507	-2.974400	3.694100	-10.987000	25.086885	0.000491	20.720470
807.226695	-2.997000	3.694500	-11.071000	25.070532	0.000492	20.707847
808.226615	-3.012000	3.693500	-11.124000	25.070996	0.000491	20.710684
809.231634	-2.990000	3.694800	-11.047000	25.063226	0.000489	20.691503
810.225543	-2.994300	3.692700	-11.056000	25.097032	0.000489	20.697464
811.228739	-3.002100	3.693100	-11.085000	25.088236	0.000487	20.695272
812.232502	-3.035800	3.692600	-11.209000	25.054056	0.000490	20.700316
813.233589	-3.010800	3.691000	-11.112000	25.062632	0.000490	20.709400
814.233276	-3.009100	3.691600	-11.108000	25.080777	0.000488	20.705328
815.230414	-2.996100	3.691600	-11.058000	25.018523	0.000489	20.704952
816.233409	-2.986900	3.692200	-11.027000	24.982126	0.000487	20.721524
817.234588	-2.991700	3.693000	-11.048000	24.984170	0.000488	20.716463
818.235195	-3.020500	3.690900	-11.148000	25.034836	0.000489	20.721802
819.235318	-3.001500	3.691400	-11.079000	24.987420	0.000491	20.731106
820.230781	-3.002100	3.690900	-11.079000	24.991231	0.000489	20.702213
821.232477	-2.985800	3.691000	-11.020000	25.036204	0.000487	20.726495
822.232189	-3.016800	3.690700	-11.134000	25.041726	0.000489	20.721132
823.235592	-2.983700	3.690200	-11.010000	25.046621	0.000488	20.733158
824.232448	-2.986600	3.690300	-11.021000	25.063682	0.000489	20.730844
825.233732	-3.020900	3.689700	-11.145000	25.088219	0.000488	20.720862
826.231898	-2.997400	3.688600	-11.055000	25.098929	0.000485	20.695100
827.230545	-2.987800	3.689200	-11.022000	25.142823	0.000485	20.717829
828.237293	-2.985500	3.689300	-11.014000	25.173702	0.000486	20.710422
829.237519	-3.000300	3.687500	-11.062000	25.186877	0.000484	20.713692
830.234127	-2.980600	3.689000	-10.995000	25.159851	0.000485	20.727812
831.237805	-3.016600	3.688300	-11.125000	25.130893	0.000487	20.723871
832.236587	-3.002400	3.687800	-11.071000	25.091452	0.000486	20.710830
833.235592	-3.011100	3.687300	-11.102000	25.078219	0.000486	20.725996
834.236770	-3.019600	3.687100	-11.133000	25.096315	0.000487	20.725669
835.234553	-3.012100	3.687500	-11.106000	25.139402	0.000488	20.740001
836.236956	-3.009300	3.685800	-11.091000	25.181511	0.000485	20.715891
837.236341	-3.019600	3.686200	-11.130000	25.176462	0.000484	20.712245
838.237231	-3.009200	3.685300	-11.089000	25.199881	0.000483	20.741448
839.236523	-2.999600	3.686900	-11.059000	25.233389	0.000485	20.749010
840.241748	-2.991500	3.685900	-11.026000	25.238723	0.000484	20.738718
841.235159	-2.998200	3.686100	-11.051000	25.197862	0.000484	20.711444
842.237850	-2.992200	3.684900	-11.025000	25.149174	0.000482	20.730844
843.237594	-3.005000	3.685200	-11.074000	25.165095	0.000483	20.745880
844.236384	-2.990700	3.685200	-11.021000	25.158637	0.000482	20.726119
845.238059	-3.019900	3.683700	-11.123000	25.119956	0.000482	20.736600
846.237954	-2.998900	3.685600	-11.052000	25.142652	0.000481	20.734254
847.238863	-2.995300	3.684200	-11.034000	25.138002	0.000483	20.728163
848.243063	-3.011000	3.683900	-11.091000	25.124549	0.000481	20.739315
849.239853	-3.013700	3.684200	-11.102000	25.146325	0.000484	20.729406
850.237421	-2.975200	3.683900	-10.959000	25.155030	0.000481	20.725817
851.242515	-3.016400	3.683400	-11.110000	25.183882	0.000483	20.719220
852.236111	-3.000400	3.683200	-11.051000	25.177619	0.000479	20.720045
853.235879	-2.993700	3.683600	-11.026000	25.167180	0.000481	20.749869
854.242056	-3.001900	3.682800	-11.055000	25.150788	0.000478	20.726774
855.243853	-3.010900	3.681700	-11.085000	25.139029	0.000479	20.734884
856.239305	-3.007100	3.682300	-11.072000	25.133337	0.000480	20.712573
857.242475	-2.997100	3.681200	-11.032000	25.151065	0.000478	20.752183
858.244257	-2.985000	3.681900	-10.990000	25.165804	0.000480	20.748488
859.242900	-2.986900	3.681000	-10.993000	25.212659	0.000477	20.751432
860.244010	-3.016100	3.680400	-11.099000	25.214451	0.000478	20.724305
861.240888	-3.029000	3.680000	-11.145000	25.234727	0.000478	20.740869
862.242723	-2.995200	3.680800	-11.024000	25.221405	0.000478	20.705207
863.243784	-2.993800	3.680700	-11.018000	25.206463	0.000479	20.740943
864.243403	-3.020900	3.680200	-11.117000	25.155088	0.000478	20.774241
865.243632	-3.004700	3.679400	-11.055000	25.167385	0.000478	20.748652
866.249897	-2.993900	3.679400	-11.015000	25.172783	0.000477	20.727044
867.245918	-2.969200	3.679700	-10.925000	25.157841	0.000477	20.733855
868.247877	-2.969900	3.680200	-10.929000	25.179168	0.000476	20.744360
869.246542	-2.974000	3.679000	-10.940000	25.193858	0.000478	20.751048
870.244505	-2.972500	3.679100	-10.935000	25.177905	0.000476	20.747835
871.241539	-3.009300	3.678500	-11.069000	25.216161	0.000476	20.747835
872.240238	-2.985400	3.679000	-10.983000	25.214117	0.000477	20.745783
873.243700	-3.006500	3.677700	-11.056000	25.216381	0.000477	20.738572
874.242147	-3.020900	3.677000	-11.107000	25.205518	0.000476	20.721027
875.244253	-2.989800	3.677500	-10.994000	25.173728	0.000475	20.750753
876.242568	-2.994600	3.677300	-11.011000	25.203808	0.000476	20.731639
877.246454	-2.971300	3.676600	-10.922000	25.207058	0.000475	20.749601
878.242491	-3.006200	3.676900	-11.053000	25.200551	0.000478	20.751603
879.247939	-3.008200	3.676400	-11.058000	25.192921	0.000475	20.747262
880.247588	-2.994500	3.676700	-11.008000	25.186154	0.000476	20.750426
881.246009	-2.998600	3.675200	-11.019000	25.189957	0.000476	20.750925
882.250647	-3.011600	3.675800	-11.069000	25.171831	0.000472	20.740314
883.248130	-3.033000	3.674700	-11.144000	25.210714	0.000473	20.751375
884.246724	-2.990700	3.675200	-10.991000	25.229441	0.000473	20.762116
885.247130	-3.009300	3.674200	-11.056000	25.230672	0.000473	20.737746
886.250945	-3.016700	3.673600	-11.080000	25.235671	0.000472	20.758888
887.253085	-3.001900	3.674600	-11.030000	25.217798	0.000473	20.760384
888.254854	-3.013800	3.673200	-11.070000	25.214842	0.000471	20.755045
889.256051	-3.008700	3.674900	-11.056000	25.259627	0.000473	20.752119
890.254228	-3.010100	3.674100	-11.058000	25.240891	0.000471	20.761757
891.256839	-2.998700	3.672500	-11.012000	25.256476	0.000470	20.759387
892.253192	-2.991400	3.674100	-10.989000	25.296683	0.000470	20.769410
893.251647	-3.007900	3.672200	-11.044000	25.296365	0.000469	20.734002
894.252067	-3.024700	3.671500	-11.104000	25.268348	0.000470	20.760401
895.258450	-2.995900	3.673000	-11.003000	25.252095	0.000469	20.756885
896.260121	-3.001600	3.671800	-11.021000	25.240134	0.000468	20.770007
897.255419	-2.989200	3.672100	-10.976000	25.248163	0.000469	20.748669
898.259094	-2.992700	3.671500	-10.986000	25.266850	0.000467	20.771225
899.260379	-2.960300	3.671800	-10.869000	25.257779	0.000467	20.742677
900.256509	-2.988200	3.670800	-10.968000	25.260043	0.000468	20.758226
901.259494	-2.980300	3.671100	-10.940000	25.263870	0.000468	20.743576
902.256797	-2.989800	3.670500	-10.973000	25.259636	0.000468	20.775362
903.253179	-2.991100	3.670200	-10.977000	25.238531	0.000470	20.767449
904.253469	-2.996100	3.670600	-10.996000	25.248571	0.000465	20.771365
905.255237	-2.982600	3.670300	-10.947000	25.247781	0.000466	20.753028
906.258637	-3.008100	3.669800	-11.038000	25.251055	0.000466	20.753944
907.254869	-3.022200	3.668000	-11.085000	25.240087	0.000466	20.778020
908.260598	-3.002300	3.668500	-11.013000	25.236911	0.000466	20.778625
909.259608	-2.997400	3.668000	-10.994000	25.253954	0.000464	20.788624
910.258230	-3.002600	3.668300	-11.013000	25.238866	0.000465	20.766363
911.257493	-2.993900	3.669700	-10.985000	25.227685	0.000465	20.780268
912.263476	-3.002200	3.668800	-11.013000	25.222767	0.000465	20.762054
913.255328	-2.986100	3.668900	-10.955000	25.222344	0.000463	20.772060
914.256679	-3.002800	3.666400	-11.008000	25.209161	0.000466	20.773998
915.260214	-2.996000	3.667900	-10.989000	25.181450	0.000464	20.784585
916.258992	-3.006600	3.667900	-11.028000	25.219258	0.000462	20.769910
917.255554	-3.002200	3.668100	-11.011000	25.243645	0.000467	20.768316
918.258670	-3.024000	3.665800	-11.085000	25.255525	0.000463	20.781666
919.263844	-3.009400	3.666700	-11.034000	25.302278	0.000463	20.783089
920.261405	-2.993600	3.666800	-10.976000	25.299844	0.000462	20.782541
921.259323	-3.003700	3.666200	-11.011000	25.334065	0.000461	20.770434
922.257392	-2.956000	3.666800	-10.838000	25.303125	0.000463	20.789155
923.257751	-3.000000	3.665500	-10.996000	25.281426	0.000461	20.770687
924.256954	-2.999600	3.665100	-10.993000	25.272429	0.000461	20.797689
925.261782	-3.006600	3.664700	-11.016000	25.262886	0.000459	20.773409
926.261906	-2.999400	3.664700	-10.991000	25.235584	0.000460	20.778241
927.268012	-2.987100	3.664400	-10.945000	25.244859	0.000461	20.785182
928.260702	-3.001100	3.663100	-10.992000	25.293835	0.000459	20.791206
929.263311	-3.005300	3.662900	-11.007000	25.338494	0.000461	20.777726
930.262972	-3.024800	3.662400	-11.077000	25.297157	0.000459	20.777472
931.262285	-3.006800	3.661900	-11.009000	25.255728	0.000458	20.773810
932.264688	-3.009600	3.663700	-11.025000	25.271012	0.000457	20.770662
933.263431	-3.002200	3.661900	-10.992000	25.283804	0.000457	20.793463
934.262599	-2.984000	3.662500	-10.928000	25.342069	0.000458	20.796962
935.262002	-2.988300	3.661800	-10.940000	25.358834	0.000458	20.791984
936.265710	-2.984300	3.662800	-10.929000	25.309257	0.000458	20.796259
937.266650	-3.021500	3.661700	-11.063000	25.313426	0.000456	20.785272
938.266215	-3.017900	3.662200	-11.051000	25.282037	0.000456	20.792638
939.265570	-3.020400	3.661300	-11.058000	25.282600	0.000458	20.792254
940.267478	-3.011100	3.661500	-11.024000	25.281362	0.000457	20.811874
941.265769	-3.013600	3.661900	-11.035000	25.322545	0.000455	20.808653
942.264016	-2.995000	3.659500	-10.958000	25.319891	0.000454	20.792237
943.266940	-2.995100	3.660700	-10.963000	25.316854	0.000455	20.792033
944.263807	-2.992000	3.659800	-10.949000	25.318621	0.000457	20.796652
945.264065	-3.004600	3.658800	-10.993000	25.312156	0.000456	20.785420
946.267802	-2.995200	3.659900	-10.961000	25.292444	0.000453	20.799293
947.270773	-3.012600	3.657700	-11.018000	25.322993	0.000455	20.810999
948.273621	-2.989300	3.658100	-10.934000	25.287640	0.000452	20.797315
949.266788	-3.004700	3.659200	-10.993000	25.239820	0.000455	20.799089
950.271765	-2.970400	3.659200	-10.868000	25.259581	0.000455	20.791903
951.268201	-3.002000	3.657500	-10.979000	25.256569	0.000453	20.800258
952.274121	-3.019000	3.656200	-11.038000	25.304641	0.000454	20.802057
953.271891	-3.019200	3.656500	-11.039000	25.312425	0.000454	20.802285
954.268161	-3.006400	3.656700	-10.992000	25.348413	0.000452	20.803806
955.269008	-2.987500	3.658000	-10.927000	25.367969	0.000452	20.795942
956.274806	-2.993800	3.655500	-10.943000	25.375476	0.000453	20.795419
957.272939	-3.000400	3.657800	-10.974000	25.403882	0.000450	20.795492
958.274027	-3.002400	3.657300	-10.980000	25.378879	0.000453	20.799310
959.273877	-2.996700	3.655300	-10.953000	25.325273	0.000449	20.803806
960.272403	-2.996600	3.656100	-10.955000	25.335361	0.000450	20.802081
961.270011	-3.011700	3.655200	-11.008000	25.332797	0.000450	20.827007
962.275777	-3.003000	3.656100	-10.978000	25.314566	0.000450	20.830513
963.272349	-2.998800	3.654900	-10.959000	25.351523	0.000447	20.814041
964.269447	-2.977400	3.655400	-10.882000	25.348266	0.000450	20.799865
965.271314	-3.008300	3.653300	-10.988000	25.315877	0.000448	20.816183
966.273466	-3.010600	3.654600	-11.002000	25.306734	0.000447	20.799890
967.274417	-3.025100	3.653600	-11.051000	25.316944	0.000447	20.824840
968.274121	-2.987600	3.652800	-10.912000	25.304593	0.000448	20.803904
969.276610	-3.002100	3.652700	-10.965000	25.349137	0.000447	20.818284
970.273606	-2.997000	3.652700	-10.946000	25.332105	0.000446	20.839588
971.280528	-3.036700	3.651400	-11.087000	25.321715	0.000446	20.803079
972.276026	-3.010600	3.652300	-10.994000	25.297957	0.000446	20.831854
973.273685	-3.005200	3.652600	-10.976000	25.298282	0.000445	20.830759
974.270387	-3.004200	3.650500	-10.965000	25.355993	0.000445	20.822322
975.275203	-2.984500	3.650800	-10.894000	25.362677	0.000448	20.829508
976.270647	-2.988900	3.651400	-10.913000	25.361855	0.000446	20.822519
977.275625	-3.002700	3.651100	-10.962000	25.350098	0.000443	20.832999
978.277411	-3.004500	3.651500	-10.970000	25.362376	0.000447	20.814507
979.275595	-3.020000	3.651000	-11.024000	25.386785	0.000443	20.820050
980.280552	-3.022900	3.650500	-11.034000	25.403385	0.000442	20.829132
981.280866	-2.997100	3.649500	-10.936000	25.419017	0.000444	20.848147
982.278541	-2.976200	3.649700	-10.861000	25.402815	0.000442	20.840413
983.278208	-2.985800	3.648900	-10.893000	25.420482	0.000444	20.827334
984.278662	-3.003900	3.650000	-10.964000	25.449790	0.000442	20.836375
985.274570	-3.018300	3.648600	-11.012000	25.442455	0.000444	20.835173
986.279428	-3.004400	3.647300	-10.957000	25.428468	0.000442	20.840094
987.291481	-2.999000	3.647500	-10.938000	25.409482	0.000441	20.823401
988.279010	-2.982500	3.647800	-10.879000	25.425716	0.000440	20.825003
989.281064	-3.003300	3.647200	-10.953000	25.425635	0.000441	20.821603
990.281628	-3.001500	3.647500	-10.947000	25.420962	0.000441	20.824971
991.276486	-3.009700	3.647200	-10.976000	25.419382	0.000442	20.842350
992.280876	-2.998000	3.646600	-10.931000	25.405835	0.000440	20.833962
993.286066	-3.000000	3.646200	-10.937000	25.395674	0.000439	20.833243
994.276218	-3.005400	3.646300	-10.958000	25.408896	0.000440	20.837510
995.278645	-3.007100	3.646100	-10.963000	25.440476	0.000438	20.839350
996.286799	-3.003100	3.646200	-10.949000	25.461879	0.000440	20.837134
997.280927	-2.988900	3.646300	-10.897000	25.413023	0.000439	20.826956
998.280671	-2.990500	3.645800	-10.902000	25.423485	0.000440	20.837935
999.285551	-3.014300	3.645500	-10.987000	25.416630	0.000437	20.843853
1000.281832	-3.000000	3.644900	-10.934000	25.429053	0.000440	20.842578
1001.285859	-3.001000	3.644800	-10.936000	25.447192	0.000439	20.829025
1002.285307	-3.001300	3.645300	-10.940000	25.452621	0.000439	20.832580
1003.280330	-3.001700	3.644900	-10.940000	25.446385	0.000436	20.843861
1004.281303	-2.996900	3.644800	-10.922000	25.423639	0.000435	20.842831
1005.281410	-3.002800	3.644000	-10.941000	25.431316	0.000437	20.851963
1006.282138	-3.003000	3.644400	-10.943000	25.384698	0.000435	20.843559
1007.285315	-3.001700	3.644300	-10.938000	25.398441	0.000435	20.841237
1008.281858	-3.015700	3.641400	-10.980000	25.411069	0.000435	20.838744
1009.279953	-3.017200	3.640500	-10.983000	25.395902	0.000434	20.843902
1010.280689	-2.998700	3.641500	-10.919000	25.395608	0.000434	20.853564
1011.283101	-3.002800	3.642000	-10.935000	25.429704	0.000433	20.840861
1012.284656	-2.961200	3.641400	-10.782000	25.452288	0.000434	20.863064
1013.279126	-3.012800	3.639700	-10.964000	25.455765	0.000434	20.867977
1014.287215	-3.024400	3.640600	-11.009000	25.494686	0.000433	20.851113
1015.284071	-3.018700	3.641200	-10.991000	25.491324	0.000434	20.852004
1016.283768	-3.007300	3.640300	-10.946000	25.495395	0.000432	20.862730
1017.280421	-3.020100	3.639700	-10.991000	25.453176	0.000432	20.856844
1018.286600	-2.973000	3.639300	-10.819000	25.455187	0.000434	20.865026
1019.286963	-2.993700	3.640000	-10.896000	25.463067	0.000432	20.855397
1020.286458	-3.002100	3.639600	-10.925000	25.450791	0.000431	20.863457
1021.287046	-3.003900	3.639700	-10.932000	25.447608	0.000432	20.871640
1022.285846	-3.001200	3.640400	-10.925000	25.476704	0.000433	20.853918
1023.286706	-3.001200	3.637400	-10.915000	25.468873	0.000431	20.872131
1024.283197	-2.991900	3.638000	-10.884000	25.398541	0.000430	20.858406
1025.284437	-2.990000	3.637700	-10.876000	25.414400	0.000429	20.859157
1026.287783	-2.987500	3.637400	-10.866000	25.444645	0.000429	20.850174
1027.288711	-3.001600	3.637800	-10.918000	25.475231	0.000431	20.867136
1028.289566	-3.024100	3.636000	-10.994000	25.481061	0.000431	20.862085
1029.287580	-3.003900	3.636500	-10.923000	25.440339	0.000429	20.846324
1030.291386	-2.996100	3.636000	-10.893000	25.438523	0.000428	20.853509
1031.287877	-3.006500	3.635900	-10.930000	25.433696	0.000427	20.857197
1032.288024	-3.019700	3.634900	-10.975000	25.372187	0.000429	20.858496
1033.285499	-3.040700	3.635000	-11.052000	25.450695	0.000429	20.860516
1034.285689	-3.011800	3.634500	-10.945000	25.468760	0.000427	20.850207
1035.284912	-2.998400	3.634900	-10.897000	25.466700	0.000427	20.852406
1036.287649	-2.997900	3.635200	-10.898000	25.492043	0.000428	20.860786
1037.292421	-3.007600	3.634000	-10.929000	25.453063	0.000427	20.852463
1038.289825	-3.000800	3.634200	-10.905000	25.485212	0.000428	20.832117
1039.289425	-3.015300	3.634200	-10.958000	25.494306	0.000428	20.851205
1040.290561	-2.972000	3.633900	-10.798000	25.505833	0.000427	20.846186
1041.292524	-2.989600	3.632300	-10.858000	25.523946	0.000424	20.838772
1042.292983	-3.003200	3.631800	-10.906000	25.545445	0.000425	20.832387
1043.292746	-3.003300	3.632100	-10.907000	25.552152	0.000425	20.834382
1044.290078	-2.987000	3.633000	-10.851000	25.539486	0.000424	20.854376
1045.288583	-2.999400	3.632000	-10.892000	25.562116	0.000424	20.836327
1046.292650	-3.019200	3.630800	-10.961000	25.552502	0.000425	20.829991
1047.295245	-3.013300	3.631500	-10.942000	25.505882	0.000426	20.836752
1048.294741	-2.994900	3.631500	-10.875000	25.510953	0.000425	20.828569
1049.294278	-2.996600	3.631000	-10.880000	25.522774	0.000422	20.822896
1050.294276	-2.983400	3.631700	-10.834000	25.551460	0.000424	20.837479
1051.296031	-2.999300	3.629100	-10.884000	25.519956	0.000423	20.836662
1052.295953	-3.016800	3.629500	-10.948000	25.517319	0.000423	20.821686
1053.294332	-2.987600	3.629900	-10.844000	25.480613	0.000422	20.840774
1054.291306	-3.000200	3.629000	-10.886000	25.462174	0.000422	20.830792
1055.292167	-2.996800	3.629400	-10.875000	25.443091	0.000423	20.834389
1056.291554	-3.014600	3.627600	-10.935000	25.481932	0.000420	20.819814
1057.299421	-3.021600	3.628400	-10.962000	25.535488	0.000421	20.822862
1058.294542	-3.002600	3.627800	-10.892000	25.565999	0.000423	20.832640
1059.295960	-3.008000	3.627100	-10.909000	25.566804	0.000421	20.812112
1060.297523	-3.015800	3.626700	-10.936000	25.533681	0.000420	20.848073
1061.295070	-3.026700	3.626600	-10.974000	25.501046	0.000420	20.832844
1062.296936	-2.991500	3.626700	-10.848000	25.501843	0.000419	20.838386
1063.294794	-2.994000	3.627000	-10.858000	25.528316	0.000419	20.821824
1064.295144	-3.014100	3.625100	-10.926000	25.567056	0.000417	20.818529
1065.293658	-2.982100	3.625900	-10.812000	25.538427	0.000417	20.820123
1066.297925	-3.016800	3.624300	-10.933000	25.523822	0.000417	20.813043
1067.294993	-2.992100	3.626200	-10.849000	25.534300	0.000417	20.829729
1068.297001	-3.027000	3.624800	-10.971000	25.485952	0.000418	20.835230
1069.298138	-3.015800	3.624300	-10.930000	25.485773	0.000418	20.831257
1070.293116	-3.003900	3.624800	-10.888000	25.452574	0.000417	20.803135
1071.296674	-3.013500	3.624300	-10.922000	25.459657	0.000417	20.804558
1072.296453	-3.034900	3.622300	-10.993000	25.493538	0.000417	20.810607
1073.294398	-3.018100	3.623100	-10.934000	25.495899	0.000417	20.803020
1074.296406	-2.996000	3.623300	-10.854000	25.473064	0.000414	20.808064
1075.299663	-2.993900	3.623100	-10.846000	25.468212	0.000413	20.829270
1076.295058	-2.992300	3.623400	-10.841000	25.493367	0.000415	20.811383
1077.296485	-2.999400	3.621700	-10.862000	25.512156	0.000412	20.817449
1078.297808	-2.980500	3.622300	-10.796000	25.535763	0.000414	20.824561
1079.297877	-2.971000	3.622200	-10.761000	25.511243	0.000414	20.816058
1080.296961	-2.993900	3.622700	-10.845000	25.513303	0.000412	20.820498
1081.295234	-3.020900	3.621600	-10.939000	25.549218	0.000414	20.790658
1082.297570	-2.991400	3.621700	-10.834000	25.581641	0.000411	20.800461
1083.299908	-3.005000	3.621200	-10.881000	25.565474	0.000412	20.808880
1084.295869	-3.014900	3.619800	-10.912000	25.594641	0.000412	20.800714
1085.298046	-3.003800	3.620100	-10.874000	25.536593	0.000412	20.802635
1086.298310	-3.034900	3.620100	-10.986000	25.513644	0.000409	20.791442
1087.295454	-3.016600	3.619100	-10.915000	25.534345	0.000412	20.809387
1088.298232	-3.006500	3.619400	-10.881000	25.573687	0.000409	20.810490
1089.300848	-3.023400	3.618600	-10.939000	25.607557	0.000410	20.794720
1090.302198	-2.997700	3.617600	-10.843000	25.613646	0.000408	20.804628
1091.298468	-2.987400	3.618400	-10.809000	25.603470	0.000410	20.805314
1092.298682	-2.993100	3.617500	-10.826000	25.610104	0.000410	20.799175
1093.298313	-2.999000	3.617500	-10.848000	25.613734	0.000407	20.812778
1094.306794	-3.006700	3.616600	-10.873000	25.541059	0.000406	20.794792
1095.303602	-2.981600	3.617800	-10.786000	25.530427	0.000409	20.807823
1096.298349	-3.006700	3.615300	-10.869000	25.513633	0.000407	20.805182
1097.305140	-2.998500	3.617200	-10.845000	25.504231	0.000405	20.784361
1098.301688	-3.012400	3.615100	-10.889000	25.526707	0.000405	20.787965
1099.299844	-2.984500	3.616300	-10.791000	25.560212	0.000408	20.767559
1100.297354	-3.002600	3.616100	-10.857000	25.597534	0.000406	20.802197
1101.302643	-3.006500	3.614900	-10.867000	25.568043	0.000403	20.792493
1102.300242	-3.012900	3.613700	-10.887000	25.549255	0.000406	20.783108
1103.301243	-2.998000	3.614400	-10.835000	25.538477	0.000405	20.802630
1104.303746	-2.997800	3.613800	-10.833000	25.488282	0.000402	20.809121
1105.301073	-2.991000	3.613700	-10.808000	25.496935	0.000404	20.791258
1106.303474	-3.000600	3.613100	-10.840000	25.481109	0.000404	20.801444
1107.300636	-2.999800	3.612500	-10.836000	25.500517	0.000404	20.786794
1108.304689	-3.009100	3.613800	-10.874000	25.509569	0.000402	20.802523
1109.301853	-3.021400	3.612400	-10.914000	25.493914	0.000403	20.796285
1110.302559	-3.001900	3.612200	-10.843000	25.490144	0.000401	20.785387
1111.299962	-3.010000	3.612200	-10.872000	25.526403	0.000404	20.793824
1112.301218	-3.001500	3.612500	-10.842000	25.529585	0.000401	20.769993
1113.309589	-3.009900	3.610700	-10.867000	25.562887	0.000401	20.796799
1114.306709	-2.997400	3.612600	-10.828000	25.546867	0.000400	20.777865
1115.306242	-3.003500	3.610400	-10.842000	25.537407	0.000402	20.778322
1116.308080	-2.987800	3.611100	-10.788000	25.542145	0.000400	20.784029
1117.306019	-3.021300	3.609400	-10.904000	25.591328	0.000399	20.785533
1118.301686	-2.998300	3.609800	-10.823000	25.612598	0.000400	20.782238
1119.305408	-3.006000	3.609900	-10.850000	25.623106	0.000401	20.791370
1120.310850	-2.989000	3.609300	-10.787000	25.594584	0.000401	20.776949
1121.303302	-2.989000	3.609300	-10.787000	25.600900	0.000401	20.760533
1122.302935	-3.003500	3.609400	-10.840000	25.617001	0.000400	20.772436
1123.312197	-3.005900	3.608000	-10.844000	25.606443	0.000400	20.783644
1124.307699	-3.004100	3.608000	-10.838000	25.614763	0.000397	20.769240
1125.303917	-3.013400	3.608200	-10.871000	25.601999	0.000398	20.781077
1126.308004	-3.006000	3.608700	-10.847000	25.597310	0.000396	20.796282
1127.306248	-3.014500	3.607400	-10.873000	25.608633	0.000396	20.775412
1128.308785	-3.018100	3.607800	-10.888000	25.657927	0.000396	20.775608
1129.307953	-3.014900	3.606800	-10.874000	25.668418	0.000396	20.773343
1130.306061	-2.986400	3.607600	-10.772000	25.663372	0.000397	20.781077
1131.304231	-2.990700	3.606300	-10.785000	25.653043	0.000395	20.764538
1132.312456	-3.019100	3.605100	-10.883000	25.596806	0.000394	20.747885
1133.308100	-2.980900	3.606700	-10.751000	25.616967	0.000395	20.764342
1134.309940	-2.994800	3.605600	-10.797000	25.557944	0.000393	20.760541
1135.312004	-3.009200	3.603500	-10.843000	25.515907	0.000392	20.779016
1136.305906	-2.986200	3.605600	-10.766000	25.499821	0.000393	20.779932
1137.308311	-2.982900	3.604800	-10.751000	25.480308	0.000392	20.764130
1138.310778	-3.009200	3.603700	-10.843000	25.472338	0.000394	20.778886
1139.306301	-2.989500	3.603800	-10.772000	25.502467	0.000393	20.773579
1140.306066	-2.993000	3.603600	-10.784000	25.522517	0.000392	20.770007
1141.312179	-3.018600	3.603000	-10.875000	25.553801	0.000394	20.760172
1142.309530	-3.027000	3.602300	-10.903000	25.540336	0.000389	20.774626
1143.311925	-2.999800	3.601100	-10.802000	25.505519	0.000391	20.760998
1144.318007	-2.996700	3.601600	-10.791000	25.527694	0.000389	20.777103
1145.309771	-3.010400	3.599900	-10.836000	25.535021	0.000391	20.765968
1146.312394	-2.981000	3.601700	-10.736000	25.521930	0.000389	20.765624
1147.315685	-2.973800	3.601200	-10.708000	25.574648	0.000390	20.761194
1148.310548	-2.981900	3.601600	-10.738000	25.561265	0.000392	20.748228
1149.308549	-2.992800	3.600300	-10.774000	25.598726	0.000390	20.773523
1150.316347	-3.013200	3.598400	-10.842000	25.634907	0.000389	20.776196
1151.309989	-2.991900	3.600100	-10.771000	25.661565	0.000388	20.751286
1152.312362	-3.005700	3.598900	-10.816000	25.699403	0.000389	20.764635
1153.318124	-3.004400	3.600000	-10.814000	25.692046	0.000387	20.761512
1154.312574	-3.002600	3.599900	-10.808000	25.724968	0.000387	20.751906
1155.313873	-3.005900	3.598000	-10.815000	25.737185	0.000387	20.752323
1156.316198	-3.011500	3.598700	-10.837000	25.732766	0.000385	20.733184
1157.313678	-2.993000	3.599500	-10.773000	25.684216	0.000384	20.755070
1158.309905	-3.007900	3.598200	-10.822000	25.633580	0.000384	20.742145
1159.316694	-3.006400	3.597500	-10.814000	25.629258	0.000383	20.773840
1160.312251	-3.007000	3.596400	-10.813000	25.623641	0.000386	20.743543
1161.314889	-2.974400	3.597300	-10.699000	25.602648	0.000383	20.744744
1162.315852	-2.979800	3.597100	-10.717000	25.608932	0.000384	20.754375
1163.313105	-3.000300	3.596800	-10.790000	25.626262	0.000383	20.751390
1164.315720	-3.009100	3.594500	-10.815000	25.625342	0.000383	20.737190
1165.318460	-3.003100	3.595100	-10.796000	25.609314	0.000383	20.715876
1166.316934	-2.988600	3.595900	-10.746000	25.592766	0.000381	20.736715
1167.312101	-2.954900	3.597200	-10.628000	25.584366	0.000381	20.733020
1168.319121	-3.008700	3.595400	-10.816000	25.597064	0.000381	20.743877
1169.313417	-2.989300	3.595200	-10.745000	25.540766	0.000381	20.738546
1170.315979	-2.988900	3.594200	-10.742000	25.558781	0.000381	20.750474
1171.319321	-3.012600	3.593100	-10.824000	25.567002	0.000380	20.762999
1172.316217	-2.995100	3.595100	-10.767000	25.586954	0.000378	20.740362
1173.312855	-3.003600	3.592800	-10.791000	25.593392	0.000381	20.748251
1174.318000	-3.012600	3.593200	-10.823000	25.576298	0.000383	20.748627
1175.315341	-3.021500	3.591500	-10.850000	25.560172	0.000379	20.736224
1176.316622	-3.032800	3.592400	-10.894000	25.569420	0.000379	20.744089
1177.319081	-3.001500	3.592600	-10.783000	25.565569	0.000377	20.747809
1178.315157	-3.011400	3.591400	-10.814000	25.558235	0.000378	20.729537
1179.320881	-2.990100	3.591900	-10.740000	25.579880	0.000379	20.733257
1180.321572	-3.017100	3.590000	-10.831000	25.577527	0.000378	20.733739
1181.318002	-3.001900	3.589900	-10.775000	25.527155	0.000377	20.739102
1182.319558	-3.013500	3.590000	-10.817000	25.537941	0.000376	20.749460
1183.323432	-2.978800	3.592400	-10.700000	25.523695	0.000378	20.730886
1184.319558	-2.994600	3.590900	-10.752000	25.527578	0.000376	20.743794
1185.319496	-3.026200	3.589200	-10.861000	25.565594	0.000374	20.757317
1186.321580	-3.006200	3.587900	-10.785000	25.561296	0.000373	20.723601
1187.318264	-2.998400	3.589800	-10.762000	25.585675	0.000375	20.730068
1188.320966	-3.021900	3.588000	-10.841000	25.609648	0.000373	20.738971
1189.327962	-3.005400	3.587800	-10.782000	25.619163	0.000374	20.744735
1190.324904	-3.012500	3.587700	-10.807000	25.603217	0.000373	20.741048
1191.321667	-3.004600	3.588000	-10.780000	25.584104	0.000373	20.711894
1192.317816	-3.001700	3.587400	-10.768000	25.575932	0.000371	20.725024
1193.319098	-3.013400	3.586900	-10.807000	25.598862	0.000374	20.725768
1194.321564	-3.000300	3.586800	-10.761000	25.602338	0.000373	20.735898
1195.324516	-2.988500	3.586000	-10.716000	25.595330	0.000370	20.744032
1196.319074	-3.005300	3.585500	-10.774000	25.665397	0.000372	20.747548
1197.321527	-2.994200	3.585600	-10.734000	25.624275	0.000371	20.722841
1198.325438	-2.984600	3.586200	-10.703000	25.627426	0.000370	20.720790
1199.324350	-3.024000	3.583700	-10.835000	25.640246	0.000368	20.714699
1200.324715	-3.006700	3.584900	-10.778000	25.656346	0.000370	20.726603
1201.328485	-2.997300	3.584800	-10.744000	25.668889	0.000368	20.741098
1202.328533	-3.007100	3.584700	-10.779000	25.656338	0.000370	20.725647
1203.326697	-3.042400	3.583400	-10.901000	25.662321	0.000368	20.730233
1204.329156	-3.022800	3.582200	-10.827000	25.625945	0.000368	20.736373
1205.327661	-3.037800	3.581800	-10.880000	25.624488	0.000369	20.729693
1206.324800	-2.997800	3.583800	-10.743000	25.605945	0.000366	20.726243
1207.328694	-3.036300	3.581700	-10.873000	25.586833	0.000368	20.737869
1208.328684	-3.004900	3.583100	-10.766000	25.558383	0.000366	20.734901
1209.330653	-3.005300	3.581300	-10.761000	25.577016	0.000367	20.711413
1210.332645	-3.011600	3.582300	-10.787000	25.597090	0.000366	20.729678
1211.329678	-2.994500	3.581100	-10.723000	25.590081	0.000363	20.745399
1212.330246	-2.990400	3.580900	-10.708000	25.571277	0.000368	20.729359
1213.332340	-2.993100	3.581800	-10.719000	25.633288	0.000365	20.739955
1214.331054	-3.026100	3.580700	-10.834000	25.667457	0.000364	20.723538
1215.329074	-3.012400	3.580900	-10.787000	25.660743	0.000364	20.705413
1216.329795	-3.025900	3.579000	-10.829000	25.620272	0.000363	20.725933
1217.334686	-3.001300	3.579300	-10.741000	25.587038	0.000364	20.712943
1218.331845	-3.015100	3.579200	-10.791000	25.610000	0.000364	20.727471
1219.333393	-2.997900	3.579700	-10.731000	25.591840	0.000364	20.731992
1220.336121	-2.997100	3.578300	-10.724000	25.605678	0.000361	20.729294
1221.335021	-2.988000	3.578800	-10.692000	25.599337	0.000361	20.707277
1222.333648	-3.004600	3.577600	-10.748000	25.609699	0.000360	20.714840
1223.332017	-3.007600	3.577200	-10.758000	25.594543	0.000363	20.747509
1224.333607	-3.027200	3.576500	-10.826000	25.600697	0.000360	20.727136
1225.330887	-3.016900	3.576000	-10.788000	25.605744	0.000358	20.706599
1226.332449	-2.993200	3.576400	-10.704000	25.629545	0.000361	20.708692
1227.335639	-3.004700	3.575400	-10.741000	25.671064	0.000363	20.712461
1228.331290	-3.002500	3.575900	-10.736000	25.708261	0.000361	20.726114
1229.337803	-3.004200	3.576400	-10.744000	25.715797	0.000358	20.734159
1230.339328	-3.013900	3.574800	-10.772000	25.696711	0.000358	20.722574
1231.338179	-2.992400	3.574800	-10.697000	25.723277	0.000359	20.703737
1232.335973	-2.996500	3.575400	-10.713000	25.681181	0.000358	20.705078
1233.333416	-3.013300	3.573500	-10.767000	25.645481	0.000358	20.716164
1234.333938	-3.019300	3.572800	-10.786000	25.661679	0.000358	20.715363
1235.336540	-2.993400	3.574200	-10.698000	25.684339	0.000356	20.712518
1236.335659	-3.013300	3.573900	-10.769000	25.688221	0.000356	20.702666
1237.333095	-2.990300	3.573900	-10.687000	25.618067	0.000355	20.713761
1238.335004	-2.984100	3.573900	-10.664000	25.617106	0.000358	20.699993
1239.336647	-2.999900	3.572000	-10.714000	25.638579	0.000355	20.696902
1240.336255	-3.014400	3.571800	-10.766000	25.604531	0.000354	20.706803
1241.336298	-2.991100	3.571600	-10.682000	25.618914	0.000356	20.714611
1242.336514	-2.997400	3.571400	-10.704000	25.643894	0.000354	20.703189
1243.336985	-2.994300	3.571500	-10.693000	25.664096	0.000353	20.718739
1244.338067	-2.985700	3.571400	-10.663000	25.700439	0.000353	20.709248
1245.350992	-2.997100	3.570000	-10.698000	25.759275	0.000353	20.728992
1246.339075	-2.982300	3.570100	-10.646000	25.769408	0.000353	20.706452
1247.343289	-2.978200	3.570200	-10.632000	25.781713	0.000352	20.726400
1248.335755	-3.014100	3.570100	-10.760000	25.795744	0.000352	20.695921
1249.340929	-3.003900	3.570100	-10.723000	25.765005	0.000352	20.724316
1250.340089	-2.989000	3.569500	-10.669000	25.712786	0.000351	20.722125
1251.338957	-3.008100	3.567800	-10.732000	25.657235	0.000350	20.730341
1252.338319	-2.991500	3.568600	-10.675000	25.637334	0.000352	20.715567
1253.336562	-3.008500	3.568700	-10.736000	25.673481	0.000351	20.716786
1254.338981	-3.001900	3.568400	-10.711000	25.660459	0.000348	20.699911
1255.341177	-2.995700	3.568300	-10.688000	25.659294	0.000348	20.721503
1256.342108	-3.009300	3.567200	-10.733000	25.612776	0.000349	20.719353
1257.338881	-2.998900	3.567800	-10.699000	25.584026	0.000347	20.702806
1258.338605	-3.009000	3.567100	-10.732000	25.589374	0.000347	20.718135
1259.339455	-2.983400	3.568400	-10.645000	25.645677	0.000349	20.709722
1260.342618	-2.993500	3.566600	-10.676000	25.643121	0.000347	20.720906
1261.340446	-2.988800	3.565900	-10.656000	25.659945	0.000349	20.715518
1262.342752	-2.993300	3.565200	-10.671000	25.688962	0.000347	20.704359
1263.338469	-2.988500	3.565400	-10.655000	25.710702	0.000349	20.716238
1264.344959	-2.992800	3.564300	-10.666000	25.742061	0.000344	20.722132
1265.344777	-3.002000	3.564600	-10.700000	25.763328	0.000345	20.697973
1266.344616	-2.986100	3.563400	-10.639000	25.750827	0.000346	20.707703
1267.349888	-3.014400	3.564500	-10.744000	25.714731	0.000344	20.725975
1268.341314	-2.971400	3.564600	-10.591000	25.653385	0.000345	20.710825
1269.344639	-2.979200	3.563800	-10.617000	25.587314	0.000344	20.713695
1270.342062	-2.969500	3.563200	-10.580000	25.624709	0.000344	20.725648
1271.345663	-2.983400	3.563100	-10.629000	25.652245	0.000345	20.721061
1272.342290	-2.970700	3.563500	-10.584000	25.649364	0.000342	20.693035
1273.345336	-2.968600	3.562700	-10.575000	25.670062	0.000342	20.724258
1274.345591	-2.992800	3.563600	-10.664000	25.649681	0.000342	20.705209
1275.343843	-2.997300	3.561400	-10.673000	25.644782	0.000340	20.714513
1276.345888	-3.000900	3.560300	-10.683000	25.624636	0.000342	20.699968
1277.345618	-3.011400	3.561000	-10.723000	25.617001	0.000341	20.715061
1278.346735	-2.994200	3.561400	-10.662000	25.676371	0.000341	20.721584
1279.345303	-3.000900	3.561100	-10.686000	25.695295	0.000343	20.707400
1280.346920	-3.023500	3.560000	-10.763000	25.722130	0.000340	20.731984
1281.342620	-3.023800	3.558700	-10.760000	25.715000	0.000338	20.708700
1282.351643	-3.024100	3.559900	-10.763000	25.675223	0.000340	20.726122
1283.346777	-3.016000	3.559500	-10.733000	25.682622	0.000339	20.690403
1284.349361	-2.992100	3.558200	-10.645000	25.668509	0.000341	20.717007
1285.346712	-3.006100	3.558000	-10.695000	25.642372	0.000338	20.731535
1286.345225	-3.020800	3.558200	-10.748000	25.660035	0.000340	20.730308
1287.349782	-2.983800	3.556900	-10.611000	25.671365	0.000338	20.719876
1288.345440	-3.011300	3.556100	-10.708000	25.649307	0.000338	20.723326
1289.350735	-3.005300	3.556600	-10.688000	25.661728	0.000336	20.705929
1290.351573	-2.990600	3.556300	-10.634000	25.699812	0.000337	20.712886
1291.348987	-2.995600	3.556700	-10.653000	25.740166	0.000338	20.751524
1292.348305	-3.014700	3.555700	-10.718000	25.760855	0.000337	20.720621
1293.349170	-3.021400	3.556200	-10.744000	25.768855	0.000337	20.730080
1294.350997	-2.992500	3.556500	-10.642000	25.772062	0.000335	20.702953
1295.346417	-3.015400	3.556700	-10.723000	25.707627	0.000336	20.732590
1296.348286	-3.007300	3.555100	-10.689000	25.703728	0.000334	20.746219
1297.347775	-3.012400	3.554000	-10.705000	25.736520	0.000334	20.725102
1298.348935	-3.009200	3.553600	-10.693000	25.725744	0.000335	20.727080
1299.346266	-3.001200	3.553100	-10.663000	25.686082	0.000332	20.721856
1300.349726	-2.996200	3.553700	-10.646000	25.728845	0.000333	20.721185
1301.350297	-3.015500	3.553100	-10.714000	25.694604	0.000334	20.732787
1302.349188	-2.987300	3.552900	-10.612000	25.682452	0.000334	20.724848
1303.349442	-3.000200	3.553100	-10.659000	25.689534	0.000334	20.712994
1304.352462	-3.003300	3.552000	-10.667000	25.657449	0.000333	20.731978
1305.351161	-2.995300	3.552500	-10.640000	25.703241	0.000332	20.728659
1306.347095	-2.985000	3.552800	-10.604000	25.705153	0.000333	20.718251
1307.354266	-3.003300	3.550400	-10.662000	25.647885	0.000334	20.735649
1308.350579	-3.026900	3.550400	-10.746000	25.592697	0.000332	20.725266
1309.354730	-3.018300	3.550100	-10.715000	25.604867	0.000331	20.715676
1310.354978	-3.020800	3.550100	-10.723000	25.601464	0.000328	20.721742
1311.354693	-3.024200	3.549400	-10.733000	25.607756	0.000330	20.732329
1312.354083	-2.994000	3.549600	-10.627000	25.633234	0.000332	20.739427
1313.353909	-3.017800	3.550000	-10.712000	25.623296	0.000330	20.728970
1314.363334	-3.013500	3.548900	-10.694000	25.689665	0.000329	20.740628
1315.352135	-3.016100	3.548600	-10.702000	25.745434	0.000329	20.730262
1316.351563	-3.009600	3.548600	-10.678000	25.752938	0.000331	20.737326
1317.354455	-2.990600	3.548100	-10.610000	25.726088	0.000328	20.734538
1318.359859	-2.984300	3.548400	-10.588000	25.728636	0.000328	20.721449
1319.355247	-2.997800	3.546900	-10.632000	25.732591	0.000329	20.723526
1320.362086	-3.012200	3.546400	-10.682000	25.701834	0.000327	20.737677
1321.355503	-2.985400	3.546700	-10.587000	25.712341	0.000328	20.712668
1322.356174	-2.999900	3.546100	-10.637000	25.675617	0.000326	20.737898
1323.363446	-3.024600	3.546100	-10.724000	25.663734	0.000325	20.724540
1324.359365	-3.004400	3.547000	-10.656000	25.631908	0.000325	20.740940
1325.362103	-2.994200	3.545400	-10.614000	25.640032	0.000325	20.727287
1326.360281	-3.005900	3.546700	-10.660000	25.704406	0.000325	20.734097
1327.360468	-2.989100	3.545900	-10.598000	25.705130	0.000325	20.748576
1328.364261	-3.003100	3.543800	-10.641000	25.689007	0.000324	20.711516
1329.364629	-2.987300	3.544400	-10.588000	25.704284	0.000326	20.724491
1330.361933	-3.000100	3.544500	-10.633000	25.692303	0.000325	20.748969
1331.362965	-2.998800	3.544500	-10.628000	25.716159	0.000324	20.767714
1332.366953	-2.999500	3.543900	-10.629000	25.747014	0.000324	20.738962
1333.362361	-3.010300	3.543900	-10.666000	25.745720	0.000324	20.737188
1334.363962	-3.010400	3.542500	-10.664000	25.723184	0.000323	20.743475
1335.365107	-3.025800	3.541900	-10.716000	25.743629	0.000324	20.754054
1336.360074	-3.046100	3.541100	-10.785000	25.808892	0.000325	20.738529
1337.359953	-2.993400	3.542800	-10.604000	25.787284	0.000322	20.730574
1338.365434	-3.017800	3.541100	-10.686000	25.765636	0.000323	20.722105
1339.366891	-2.996700	3.540000	-10.608000	25.709934	0.000320	20.765254
1340.363937	-3.003800	3.539600	-10.631000	25.691645	0.000321	20.746410
1341.367587	-3.004100	3.539300	-10.632000	25.680274	0.000321	20.744946
1342.363824	-3.023800	3.539300	-10.700000	25.714337	0.000320	20.751184
1343.363480	-3.006000	3.539400	-10.638000	25.760623	0.000319	20.753106
1344.362646	-3.029500	3.539500	-10.722000	25.728450	0.000321	20.727426
1345.364434	-2.997700	3.537900	-10.605000	25.664898	0.000318	20.757479
1346.364469	-3.002500	3.538000	-10.622000	25.653666	0.000316	20.742404
1347.367952	-2.997200	3.538400	-10.605000	25.679411	0.000318	20.754037
1348.366071	-2.993400	3.537800	-10.589000	25.685540	0.000318	20.756874
1349.368217	-3.003700	3.536900	-10.623000	25.721384	0.000318	20.744512
1350.368937	-2.997700	3.536900	-10.601000	25.739843	0.000317	20.763054
1351.363252	-3.020400	3.536800	-10.681000	25.771299	0.000317	20.755770
1352.366931	-2.989200	3.536500	-10.571000	25.782262	0.000318	20.761565
1353.363994	-3.002600	3.536800	-10.619000	25.802437	0.000316	20.740579
1354.367854	-3.004600	3.536200	-10.624000	25.829244	0.000316	20.736213
1355.368870	-3.006000	3.536000	-10.628000	25.823409	0.000314	20.764492
1356.367909	-3.013700	3.535300	-10.653000	25.826867	0.000315	20.757534
1357.368760	-2.991800	3.535500	-10.577000	25.779112	0.000317	20.756979
1358.368553	-3.014200	3.534100	-10.652000	25.766374	0.000314	20.754616
1359.367122	-3.039800	3.533300	-10.740000	25.720340	0.000315	20.741567
1360.368842	-2.997000	3.533200	-10.588000	25.700856	0.000315	20.758981
1361.369314	-2.996500	3.534400	-10.590000	25.668046	0.000313	20.754476
1362.371741	-2.999400	3.533800	-10.599000	25.687051	0.000315	20.757918
1363.370920	-3.010500	3.533600	-10.637000	25.689411	0.000313	20.765505
1364.368970	-2.991300	3.532600	-10.566000	25.643546	0.000312	20.772543
1365.378112	-2.979400	3.533700	-10.527000	25.687506	0.000311	20.741779
1366.370497	-2.985100	3.532600	-10.544000	25.738839	0.000312	20.771055
1367.375483	-2.996800	3.531500	-10.583000	25.735381	0.000312	20.763788
1368.377137	-3.012400	3.530100	-10.633000	25.734559	0.000309	20.778609
1369.370906	-3.000200	3.531000	-10.593000	25.738066	0.000312	20.748941
1370.386531	-2.994000	3.530100	-10.568000	25.777890	0.000312	20.766183
1371.374734	-3.000500	3.531500	-10.594000	25.803778	0.000310	20.764213
1372.372678	-3.021700	3.530200	-10.666000	25.824351	0.000309	20.748369
1373.374808	-3.023000	3.530400	-10.671000	25.872790	0.000310	20.777587
1374.373894	-3.007500	3.529400	-10.614000	25.818988	0.000310	20.766215
1375.369514	-2.996700	3.529700	-10.576000	25.777702	0.000307	20.767417
1376.372859	-3.018000	3.529800	-10.652000	25.759162	0.000307	20.761122
1377.378003	-3.009100	3.528100	-10.616000	25.715863	0.000308	20.769788
1378.372862	-3.041600	3.527200	-10.727000	25.686733	0.000306	20.768979
1379.374010	-3.009300	3.527400	-10.614000	25.700578	0.000305	20.743054
1380.376508	-3.007500	3.527400	-10.608000	25.717491	0.000307	20.774742
1381.373686	-3.005600	3.526700	-10.599000	25.733549	0.000307	20.764318
1382.371769	-3.006200	3.527200	-10.602000	25.744382	0.000308	20.778045
1383.376320	-2.982400	3.527200	-10.519000	25.783407	0.000306	20.772674
1384.373040	-2.992700	3.526100	-10.551000	25.808401	0.000306	20.759847
1385.374178	-3.015300	3.525400	-10.630000	25.837942	0.000308	20.754435
1386.371628	-3.004000	3.525000	-10.588000	25.855578	0.000305	20.793962
1387.375170	-2.995600	3.524000	-10.556000	25.867923	0.000306	20.778863
1388.379894	-3.000700	3.523800	-10.573000	25.799327	0.000305	20.775863
1389.375738	-3.015500	3.524000	-10.626000	25.760302	0.000305	20.774595
1390.376149	-3.024500	3.523100	-10.654000	25.788908	0.000303	20.781519
1391.374701	-3.036300	3.522400	-10.694000	25.784278	0.000304	20.769755
1392.374642	-2.995900	3.524100	-10.558000	25.764151	0.000303	20.780359
1393.378837	-2.973800	3.523100	-10.476000	25.778841	0.000302	20.782786
1394.374446	-2.992500	3.521800	-10.538000	25.805170	0.000301	20.773671
1395.373333	-2.987700	3.523000	-10.525000	25.789991	0.000301	20.784029
1396.378364	-3.017200	3.520400	-10.620000	25.766544	0.000303	20.802676
1397.376943	-2.978200	3.522500	-10.490000	25.771834	0.000303	20.786179
1398.375891	-2.982400	3.522200	-10.503000	25.746840	0.000302	20.791419
1399.379377	-3.017400	3.519400	-10.618000	25.768334	0.000302	20.793095
1400.380934	-3.024000	3.519600	-10.642000	25.779044	0.000301	20.774455
1401.381114	-3.022900	3.519200	-10.637000	25.794629	0.000298	20.774463
1402.378422	-2.987400	3.519700	-10.514000	25.784929	0.000299	20.787953
1403.381602	-3.015000	3.517900	-10.605000	25.768285	0.000302	20.793046
1404.383009	-2.990500	3.519900	-10.526000	25.772883	0.000299	20.796716
1405.383753	-3.015500	3.518100	-10.607000	25.763223	0.000300	20.788909
1406.379681	-3.005100	3.518400	-10.571000	25.718182	0.000295	20.789661
1407.382455	-2.999300	3.516600	-10.546000	25.767178	0.000299	20.786718
1408.384508	-2.985200	3.517600	-10.500000	25.762922	0.000296	20.767744
1409.381701	-2.994500	3.517100	-10.531000	25.754148	0.000296	20.757982
1410.385881	-3.025400	3.516200	-10.636000	25.754953	0.000297	20.784870
1411.387026	-2.990200	3.518000	-10.519000	25.758030	0.000297	20.809772
1412.384977	-3.033900	3.515900	-10.665000	25.738823	0.000298	20.779573
1413.386062	-3.014200	3.515200	-10.595000	25.747824	0.000296	20.795727
1414.386705	-3.000100	3.515800	-10.546000	25.768667	0.000297	20.781101
1415.385084	-3.027200	3.515100	-10.640000	25.721022	0.000296	20.781134
1416.388098	-3.006500	3.514900	-10.567000	25.735005	0.000297	20.788541
1417.381945	-3.025800	3.514300	-10.633000	25.745862	0.000294	20.799920
1418.386824	-3.006100	3.514500	-10.565000	25.787353	0.000296	20.785172
1419.389001	-2.994600	3.515000	-10.526000	25.798137	0.000295	20.798375
1420.389090	-2.999700	3.513600	-10.539000	25.790795	0.000294	20.809492
1421.387810	-2.982000	3.513500	-10.477000	25.730740	0.000294	20.808912
1422.389960	-2.996000	3.513100	-10.524000	25.732904	0.000292	20.778370
1423.389572	-3.000200	3.512900	-10.538000	25.737080	0.000294	20.816229
1424.385849	-3.001900	3.512000	-10.542000	25.769049	0.000293	20.796184
1425.390074	-3.033000	3.511100	-10.648000	25.775568	0.000292	20.786610
1426.387414	-3.020100	3.510900	-10.603000	25.776341	0.000293	20.806827
1427.391318	-3.007200	3.509600	-10.553000	25.818677	0.000292	20.808102
1428.394437	-3.006800	3.510400	-10.554000	25.877352	0.000291	20.778852
1429.393437	-2.993400	3.511500	-10.510000	25.876066	0.000291	20.789888
1430.392766	-2.997500	3.510200	-10.521000	25.829956	0.000290	20.798096
1431.393434	-2.978000	3.510200	-10.453000	25.831177	0.000291	20.806434
1432.392276	-3.002700	3.509700	-10.537000	25.815258	0.000290	20.804194
1433.392568	-2.976200	3.511100	-10.449000	25.792072	0.000288	20.815043
1434.392963	-3.014000	3.508800	-10.575000	25.818733	0.000288	20.793935
1435.396966	-2.983400	3.509800	-10.469000	25.881803	0.000291	20.807980
1436.388896	-3.009300	3.508000	-10.556000	25.918521	0.000291	20.814519
1437.394609	-2.977300	3.509000	-10.446000	25.894197	0.000288	20.790559
1438.393313	-3.008500	3.508300	-10.554000	25.893586	0.000285	20.803695
1439.393745	-3.013500	3.507600	-10.569000	25.850806	0.000287	20.825678
1440.394301	-2.977300	3.507100	-10.441000	25.833610	0.000288	20.791809
1441.397224	-2.997100	3.506600	-10.509000	25.833065	0.000287	20.812124
1442.400002	-3.000100	3.507000	-10.521000	25.830827	0.000287	20.817462
1443.397121	-3.015100	3.506100	-10.570000	25.788963	0.000288	20.801489
1444.398549	-3.010400	3.505500	-10.552000	25.769211	0.000285	20.817683
1445.404534	-2.995600	3.505000	-10.498000	25.760160	0.000286	20.807644
1446.395649	-3.001900	3.505500	-10.522000	25.751639	0.000286	20.827533
1447.398010	-3.009400	3.504100	-10.544000	25.773988	0.000284	20.813947
1448.397925	-2.992000	3.505200	-10.487000	25.822290	0.000286	20.817421
1449.398392	-3.022800	3.502500	-10.586000	25.848649	0.000286	20.811184
1450.395242	-3.021100	3.501900	-10.578000	25.851782	0.000285	20.816227
1451.397193	-3.008700	3.502800	-10.538000	25.851635	0.000285	20.833149
1452.399537	-3.008800	3.503200	-10.540000	25.848453	0.000283	20.814780
1453.398130	-3.009800	3.502100	-10.540000	25.883284	0.000285	20.801406
1454.399994	-2.990100	3.503900	-10.475000	25.873551	0.000283	20.830508
1455.399206	-2.994000	3.502700	-10.486000	25.863191	0.000284	20.827688
1456.408861	-2.998400	3.502300	-10.500000	25.841658	0.000285	20.800841
1457.400469	-3.003000	3.502600	-10.517000	25.821857	0.000282	20.837849
1458.400340	-3.024600	3.501200	-10.588000	25.825088	0.000283	20.847258
1459.400640	-3.005200	3.501300	-10.522000	25.803595	0.000282	20.820927
1460.402499	-2.997600	3.500900	-10.494000	25.838060	0.000282	20.828047
1461.402815	-2.989000	3.499600	-10.459000	25.876968	0.000283	20.805492
1462.400673	-2.995800	3.500100	-10.485000	25.892023	0.000281	20.819194
1463.399008	-3.005600	3.499500	-10.517000	25.850585	0.000281	20.823085
1464.398893	-2.984600	3.500200	-10.445000	25.821246	0.000282	20.836761
1465.403310	-2.998700	3.497900	-10.488000	25.841511	0.000280	20.825824
1466.404595	-2.993800	3.497700	-10.470000	25.803716	0.000280	20.825316
1467.404741	-3.004700	3.499100	-10.513000	25.797222	0.000279	20.814526
1468.400415	-3.005200	3.497800	-10.510000	25.808428	0.000279	20.837636
1469.407809	-2.990500	3.496700	-10.455000	25.848794	0.000280	20.844993
1470.407017	-2.992200	3.497100	-10.463000	25.786048	0.000278	20.824638
1471.404211	-2.993200	3.496200	-10.464000	25.787065	0.000278	20.834194
1472.402531	-2.973900	3.496600	-10.398000	25.775313	0.000277	20.820967
1473.402773	-3.005000	3.497200	-10.508000	25.789254	0.000277	20.829281
1474.404705	-2.999700	3.496300	-10.487000	25.807590	0.000279	20.839164
1475.404317	-3.013100	3.495900	-10.533000	25.816558	0.000277	20.823992
1476.405397	-3.021400	3.493800	-10.556000	25.813198	0.000279	20.845271
1477.404963	-3.001000	3.495000	-10.488000	25.871661	0.000277	20.821498
1478.407763	-3.024900	3.494300	-10.569000	25.869822	0.000276	20.848099
1479.405776	-3.003300	3.494600	-10.494000	25.939448	0.000276	20.840759
1480.410173	-3.015500	3.493100	-10.532000	25.932352	0.000276	20.825095
1481.405869	-2.985100	3.493500	-10.427000	25.862864	0.000275	20.847274
1482.409504	-2.979000	3.493600	-10.407000	25.848777	0.000276	20.829330
1483.405423	-2.994700	3.491900	-10.456000	25.834454	0.000275	20.822528
1484.409467	-2.980500	3.493100	-10.411000	25.833160	0.000275	20.826918
1485.407831	-2.981200	3.493900	-10.415000	25.802454	0.000274	20.842066
1486.421176	-2.998500	3.492000	-10.470000	25.823174	0.000277	20.838698
1487.409193	-3.000400	3.492300	-10.477000	25.841859	0.000273	20.837553
1488.406674	-3.004400	3.491500	-10.488000	25.884909	0.000273	20.820582
1489.411442	-3.010100	3.489900	-10.504000	25.893779	0.000273	20.843243
1490.408918	-3.002800	3.490100	-10.479000	25.942816	0.000273	20.841771
1491.411448	-2.997600	3.489800	-10.460000	25.952231	0.000273	20.852178
1492.411299	-3.000100	3.489300	-10.467000	25.887465	0.000271	20.849701
1493.409796	-3.000500	3.488900	-10.468000	25.862400	0.000271	20.840169
1494.409406	-3.004600	3.489500	-10.483000	25.891713	0.000269	20.824098
1495.408927	-2.981700	3.488500	-10.399000	25.909152	0.000270	20.842565
1496.413538	-2.995400	3.488600	-10.448000	25.868780	0.000271	20.849423
1497.407780	-3.004000	3.486900	-10.473000	25.902348	0.000270	20.845687
1498.412342	-2.993000	3.488100	-10.439000	25.919926	0.000270	20.850069
1499.416838	-2.980100	3.487200	-10.391000	25.967773	0.000271	20.850723
1500.420433	-3.003700	3.487100	-10.473000	25.920349	0.000268	20.827736
1501.412929	-3.014100	3.485700	-10.505000	25.896009	0.000270	20.842638
1502.413057	-2.996600	3.486200	-10.446000	25.915629	0.000269	20.843857
1503.410765	-2.993600	3.485400	-10.433000	25.902690	0.000271	20.842238
1504.414288	-2.984000	3.485500	-10.399000	25.956715	0.000270	20.835347
1505.414228	-2.995800	3.485100	-10.440000	25.934728	0.000269	20.825112
1506.413425	-2.992900	3.485400	-10.431000	25.911154	0.000268	20.831774
1507.412770	-2.978400	3.485600	-10.380000	25.892299	0.000268	20.836540
1508.411139	-3.010500	3.484200	-10.488000	25.850739	0.000267	20.837938
1509.416690	-2.991300	3.483400	-10.420000	25.804978	0.000267	20.838911
1510.417801	-3.016000	3.483700	-10.506000	25.833323	0.000266	20.821867
1511.415376	-3.013700	3.483500	-10.498000	25.804302	0.000267	20.813577
1512.416566	-3.001200	3.484100	-10.456000	25.787212	0.000265	20.832445
1513.416413	-2.987700	3.482400	-10.404000	25.778781	0.000268	20.823502
1514.413609	-2.980600	3.483700	-10.383000	25.833267	0.000265	20.812327
1515.418594	-3.022200	3.482500	-10.524000	25.860464	0.000264	20.833484
1516.417532	-2.988100	3.483800	-10.410000	25.793389	0.000264	20.816366
1517.416774	-3.007400	3.481500	-10.470000	25.757490	0.000265	20.822979
1518.418455	-3.001600	3.480500	-10.446000	25.726676	0.000265	20.818581
1519.417318	-3.002800	3.480100	-10.449000	25.761527	0.000263	20.820396
1520.421634	-2.987900	3.480200	-10.398000	25.790151	0.000263	20.814535
1521.417369	-2.994400	3.480300	-10.421000	25.840681	0.000264	20.818827
1522.417813	-2.991400	3.481000	-10.413000	25.855314	0.000262	20.820723
1523.414947	-2.998100	3.480400	-10.434000	25.842944	0.000262	20.809246
1524.415447	-3.005900	3.478700	-10.456000	25.888329	0.000261	20.836820
1525.428371	-2.972300	3.479000	-10.340000	25.911830	0.000262	20.794048
1526.419658	-2.981900	3.479000	-10.373000	25.824804	0.000262	20.819947
1527.420142	-3.010300	3.477700	-10.469000	25.829500	0.000261	20.812810
1528.416473	-2.998600	3.478100	-10.429000	25.829223	0.000261	20.820119
1529.423429	-2.993200	3.477800	-10.409000	25.868481	0.000262	20.816407
1530.420199	-2.992800	3.477500	-10.407000	25.839835	0.000262	20.813709
1531.419502	-2.985500	3.477900	-10.382000	25.797825	0.000263	20.807545
1532.421596	-2.990700	3.477400	-10.399000	25.797776	0.000261	20.804651
1533.420348	-2.967500	3.478100	-10.320000	25.839950	0.000260	20.817143
1534.416518	-2.995200	3.475900	-10.410000	25.857845	0.000259	20.818999
1535.420734	-2.992700	3.476900	-10.405000	25.877067	0.000260	20.813652
1536.419658	-3.024500	3.474200	-10.507000	25.912417	0.000261	20.800327
1537.420129	-3.030700	3.473400	-10.526000	25.947636	0.000259	20.804889
1538.420708	-3.026000	3.474300	-10.512000	25.903173	0.000261	20.777290
1539.416818	-3.022400	3.474400	-10.500000	25.927684	0.000258	20.802862
1540.419298	-3.010200	3.473500	-10.455000	25.945398	0.000259	20.815917
1541.422014	-2.993700	3.472400	-10.395000	25.925177	0.000256	20.805086
1542.420536	-2.994200	3.472400	-10.396000	25.935292	0.000256	20.802445
1543.420787	-2.994400	3.472500	-10.397000	25.913646	0.000255	20.804407
1544.420914	-2.988900	3.472500	-10.378000	25.929246	0.000257	20.785466
1545.420425	-3.018200	3.470800	-10.475000	25.941314	0.000255	20.790477
1546.425414	-2.969000	3.472000	-10.307000	25.910538	0.000254	20.799388
1547.423443	-2.986800	3.472500	-10.370000	25.896029	0.000255	20.816580
1548.420459	-3.008200	3.471000	-10.441000	25.914859	0.000256	20.800410
1549.420137	-2.995300	3.471600	-10.398000	25.951005	0.000255	20.792153
1550.423518	-2.998100	3.471300	-10.407000	25.980413	0.000256	20.800835
1551.423599	-2.996200	3.470400	-10.398000	25.997054	0.000253	20.800009
1552.422433	-2.978800	3.469400	-10.334000	25.965108	0.000253	20.786880
1553.420864	-2.994400	3.470500	-10.391000	25.937783	0.000254	20.791671
1554.419131	-3.006100	3.469300	-10.428000	25.886532	0.000253	20.801351
1555.427007	-2.993000	3.470100	-10.384000	25.882683	0.000252	20.791320
1556.425478	-3.005900	3.468400	-10.425000	25.939167	0.000252	20.791165
1557.422235	-2.997000	3.469700	-10.397000	25.959632	0.000252	20.774741
1558.423054	-3.021000	3.466600	-10.471000	25.948956	0.000252	20.794835
1559.421267	-2.986300	3.468800	-10.358000	25.961349	0.000251	20.764612
1560.425735	-2.990600	3.469100	-10.374000	25.965564	0.000251	20.793503
1561.425850	-3.002100	3.467500	-10.409000	26.046762	0.000253	20.803011
1562.424599	-2.985000	3.468300	-10.352000	26.059081	0.000252	20.797370
1563.421414	-2.992800	3.467600	-10.376000	26.061839	0.000251	20.782123
1564.423728	-2.991200	3.465600	-10.365000	25.981757	0.000252	20.789383
1565.425270	-3.010700	3.466800	-10.436000	25.956695	0.000250	20.777480
1566.427013	-2.970900	3.465400	-10.294000	25.971147	0.000251	20.771611
1567.422600	-2.987200	3.466200	-10.353000	25.946312	0.000247	20.789808
1568.427138	-3.002100	3.464700	-10.400000	25.895404	0.000248	20.775175
1569.422473	-2.997700	3.465000	-10.385000	25.866270	0.000249	20.780996
1570.423554	-2.982000	3.464300	-10.330000	25.838121	0.000248	20.793495
1571.427024	-3.009400	3.463400	-10.421000	25.831187	0.000247	20.780366
1572.422600	-3.002200	3.464000	-10.398000	25.811485	0.000249	20.804197
1573.423545	-2.989100	3.464900	-10.356000	25.865685	0.000248	20.788468
1574.421974	-3.002800	3.463900	-10.401000	25.876947	0.000248	20.796937
1575.423801	-3.003400	3.463100	-10.400000	25.951520	0.000247	20.786032
1576.426517	-2.988500	3.463500	-10.350000	25.975827	0.000248	20.786270
1577.422461	-2.968300	3.463100	-10.279000	25.985591	0.000247	20.784700
1578.424934	-2.992200	3.461600	-10.356000	26.029579	0.000247	20.776263
1579.423316	-2.976000	3.461600	-10.300000	25.998081	0.000247	20.768325
1580.425731	-3.003800	3.461200	-10.396000	25.957290	0.000246	20.777604
1581.428588	-2.972500	3.460800	-10.286000	25.927857	0.000246	20.779803
1582.426258	-3.017300	3.460800	-10.441000	25.926190	0.000245	20.780498
1583.427773	-2.995100	3.461100	-10.366000	25.925075	0.000245	20.765627
1584.429354	-2.979900	3.460900	-10.312000	25.915879	0.000245	20.774408
1585.425474	-2.984400	3.458700	-10.321000	25.935646	0.000242	20.772929
1586.428029	-2.989300	3.458500	-10.338000	25.915847	0.000246	20.778169
1587.429309	-3.005300	3.458900	-10.394000	25.910697	0.000245	20.791487
1588.425745	-3.017300	3.456900	-10.430000	25.953231	0.000243	20.769258
1589.434781	-2.981300	3.459200	-10.312000	25.919046	0.000241	20.775218
1590.426236	-2.999100	3.458000	-10.370000	25.909899	0.000241	20.766504
1591.428411	-2.979800	3.457600	-10.302000	25.906571	0.000242	20.778807
1592.430840	-2.994100	3.458100	-10.353000	25.889433	0.000242	20.775815
1593.429588	-3.012600	3.455300	-10.408000	25.916409	0.000243	20.774940
1594.427192	-3.009800	3.456500	-10.403000	25.923587	0.000240	20.769823
1595.426878	-3.003600	3.455400	-10.378000	25.930349	0.000240	20.779461
1596.428313	-3.018300	3.456100	-10.430000	25.924523	0.000242	20.764125
1597.426831	-2.998300	3.456200	-10.362000	25.943377	0.000242	20.768368
1598.428631	-2.984000	3.455700	-10.311000	25.913871	0.000240	20.774287
1599.428427	-2.988800	3.455200	-10.326000	25.937169	0.000240	20.773510
1600.431937	-2.994100	3.455000	-10.344000	25.967790	0.000242	20.773928
1601.430601	-3.013500	3.453700	-10.407000	25.938032	0.000239	20.762049
1602.431680	-3.019500	3.453300	-10.427000	25.919632	0.000239	20.759686
1603.431726	-3.014300	3.453200	-10.408000	25.880132	0.000239	20.761730
1604.432651	-3.007000	3.452000	-10.379000	25.884877	0.000238	20.776927
1605.429518	-3.013800	3.452300	-10.403000	25.861277	0.000237	20.758435
1606.430141	-2.999900	3.452800	-10.358000	25.908671	0.000237	20.765270
1607.435363	-2.990300	3.452400	-10.323000	25.927404	0.000238	20.777451
1608.429627	-3.008100	3.451800	-10.383000	25.931057	0.000237	20.781595
1609.433218	-2.994500	3.450900	-10.333000	25.973607	0.000237	20.770763
1610.432322	-3.023900	3.448600	-10.427000	25.993901	0.000237	20.748003
1611.434245	-3.002500	3.450800	-10.360000	25.953386	0.000236	20.744758
1612.435197	-2.985700	3.451900	-10.305000	25.929593	0.000235	20.763528
1613.435637	-2.987400	3.451000	-10.309000	25.928779	0.000234	20.753227
1614.433559	-3.001800	3.450500	-10.357000	25.901169	0.000236	20.758681
1615.440051	-2.995100	3.448900	-10.328000	25.886260	0.000234	20.772154
1616.433229	-2.998600	3.449100	-10.341000	25.895984	0.000233	20.753472
1617.433491	-3.007100	3.449100	-10.371000	25.882541	0.000235	20.759882
1618.435190	-3.000700	3.448900	-10.348000	25.919258	0.000232	20.765474
1619.436552	-2.994700	3.449600	-10.330000	25.951946	0.000233	20.750897
1620.438023	-2.978500	3.449300	-10.272000	25.963192	0.000233	20.759825
1621.440451	-2.995400	3.447700	-10.326000	25.938699	0.000233	20.760823
1622.436525	-2.996300	3.446900	-10.327000	25.890606	0.000233	20.756130
1623.437613	-2.989400	3.447000	-10.303000	25.871433	0.000232	20.763896
1624.439858	-3.013800	3.446800	-10.387000	25.896718	0.000232	20.775546
1625.435995	-3.011300	3.447000	-10.379000	25.883884	0.000232	20.747480
1626.436119	-2.990100	3.446600	-10.305000	25.881516	0.000233	20.756956
1627.440994	-2.991600	3.445600	-10.307000	25.942401	0.000228	20.767387
1628.437397	-3.020900	3.446200	-10.409000	25.962525	0.000232	20.756784
1629.443167	-2.985600	3.445700	-10.287000	25.967195	0.000229	20.743458
1630.443119	-2.994200	3.444400	-10.312000	25.955885	0.000228	20.734465
1631.437924	-2.988800	3.445400	-10.297000	25.997327	0.000228	20.736272
1632.441652	-3.001400	3.444500	-10.337000	26.045879	0.000228	20.767984
1633.445323	-2.994300	3.443800	-10.311000	25.985056	0.000228	20.763774
1634.442191	-2.990200	3.443000	-10.293000	25.964413	0.000226	20.755836
1635.443563	-2.997800	3.443000	-10.321000	25.976439	0.000228	20.763177
1636.440927	-3.019600	3.442300	-10.393000	25.956446	0.000227	20.755418
1637.439627	-2.991500	3.443500	-10.300000	25.935200	0.000227	20.750669
1638.443421	-3.011000	3.441400	-10.361000	25.961727	0.000225	20.757880
1639.442903	-2.999700	3.440400	-10.319000	25.950107	0.000225	20.759482
1640.445837	-3.005600	3.441900	-10.344000	25.964966	0.000224	20.745011
1641.446736	-3.023300	3.440300	-10.400000	26.016921	0.000227	20.755010
1642.445953	-3.002100	3.441600	-10.331000	26.013414	0.000227	20.750064
1643.445506	-3.015700	3.440900	-10.376000	26.017750	0.000224	20.746834
1644.447642	-2.976100	3.441600	-10.242000	25.992803	0.000228	20.734097
1645.449020	-3.014100	3.439100	-10.365000	26.002892	0.000226	20.768891
1646.442442	-2.987500	3.440600	-10.278000	25.967797	0.000222	20.726044
1647.446999	-3.000700	3.440700	-10.323000	25.943947	0.000222	20.749025
1648.452259	-2.993600	3.439500	-10.296000	25.972411	0.000223	20.741586
1649.446180	-2.977100	3.439100	-10.238000	25.963102	0.000223	20.750726
1650.443721	-2.994300	3.438200	-10.294000	25.948122	0.000223	20.728088
1651.452264	-3.026900	3.439300	-10.410000	25.956243	0.000221	20.751421
1652.447084	-3.003900	3.436700	-10.322000	25.963346	0.000220	20.750023
1653.450322	-2.997700	3.436900	-10.302000	25.960945	0.000222	20.738601
1654.450046	-2.981700	3.439600	-10.255000	25.995537	0.000221	20.741586
1655.442665	-3.003600	3.436600	-10.321000	25.971492	0.000220	20.749671
1656.447058	-2.990900	3.436300	-10.277000	25.966284	0.000218	20.725946
1657.448217	-3.002700	3.435900	-10.316000	26.019687	0.000220	20.740719
1658.448042	-3.037400	3.435000	-10.433000	26.047481	0.000220	20.746834
1659.452200	-2.965100	3.437100	-10.190000	26.034292	0.000221	20.724572
1660.449776	-2.997500	3.436000	-10.298000	26.036204	0.000220	20.726019
1661.448757	-2.990700	3.435600	-10.273000	26.018393	0.000219	20.754593
1662.450695	-2.997200	3.435800	-10.297000	26.034414	0.000219	20.736549
1663.456851	-3.015100	3.435000	-10.356000	25.965291	0.000217	20.737751
1664.451834	-2.984000	3.435100	-10.250000	25.920975	0.000219	20.717884
1665.451072	-2.975000	3.435200	-10.220000	25.957886	0.000219	20.740269
1666.447163	-2.980000	3.434000	-10.233000	25.987546	0.000216	20.729289
1667.446863	-2.999300	3.432300	-10.294000	26.005008	0.000216	20.743989
1668.450918	-2.978200	3.432300	-10.221000	26.017677	0.000216	20.746286
1669.450302	-2.977200	3.433200	-10.221000	26.001753	0.000216	20.715587
1670.445219	-2.989600	3.431600	-10.258000	25.991598	0.000216	20.731938
1671.450283	-3.004500	3.433200	-10.314000	25.947332	0.000217	20.732036
1672.449143	-2.991200	3.432000	-10.265000	25.932001	0.000219	20.722324
1673.449071	-2.997000	3.430600	-10.280000	25.984519	0.000215	20.723877
1674.448802	-3.006500	3.429800	-10.312000	25.978066	0.000214	20.752483
1675.447243	-3.001900	3.430000	-10.295000	25.961019	0.000213	20.731088
1676.446776	-3.000600	3.430400	-10.292000	25.941277	0.000214	20.734488
1677.454150	-2.995000	3.428500	-10.268000	25.945224	0.000214	20.739402
1678.446114	-2.999500	3.430000	-10.288000	25.918322	0.000211	20.730867
1679.451873	-3.013800	3.428600	-10.332000	25.892842	0.000212	20.730400
1680.450264	-2.997100	3.428600	-10.275000	25.882727	0.000213	20.741577
1681.451094	-2.988000	3.428300	-10.244000	25.894031	0.000213	20.733491
1682.451996	-2.982000	3.429300	-10.225000	25.921487	0.000212	20.711760
1683.452105	-3.035400	3.427100	-10.401000	25.924416	0.000213	20.743154
1684.449097	-2.999700	3.427500	-10.279000	25.927150	0.000215	20.729305
1685.452442	-3.007800	3.426800	-10.306000	25.922479	0.000210	20.735044
1686.466423	-3.015600	3.426500	-10.332000	25.952409	0.000212	20.721015
1687.449653	-2.995600	3.426300	-10.263000	25.898237	0.000210	20.721595
1688.453075	-3.026000	3.425800	-10.365000	25.899433	0.000213	20.700510
1689.463340	-3.006100	3.425700	-10.297000	25.899702	0.000211	20.732076
1690.453168	-2.999700	3.425900	-10.276000	25.929591	0.000208	20.718480
1691.453931	-3.009800	3.424700	-10.307000	25.939974	0.000211	20.732231
1692.455602	-3.030300	3.423900	-10.374000	25.977381	0.000210	20.742786
1693.455785	-3.022100	3.425100	-10.350000	25.957787	0.000209	20.738273
1694.454530	-3.011500	3.424300	-10.311000	25.956770	0.000211	20.727767
1695.451705	-2.993000	3.423700	-10.246000	25.933179	0.000208	20.731568
1696.457159	-3.006300	3.423000	-10.290000	25.927117	0.000209	20.736858
1697.456531	-3.017400	3.423800	-10.330000	25.950194	0.000208	20.711677
1698.453458	-2.990200	3.423400	-10.236000	26.015372	0.000209	20.728797
1699.457653	-3.008100	3.422800	-10.296000	26.043118	0.000210	20.719689
1700.462683	-3.007500	3.422500	-10.292000	26.056437	0.000208	20.744927
1701.458632	-3.013500	3.422100	-10.310000	26.042206	0.000207	20.734895
1702.457677	-3.000500	3.422300	-10.268000	26.054330	0.000206	20.719574
1703.462110	-2.992900	3.421300	-10.239000	26.019407	0.000208	20.711987
1704.455634	-3.014900	3.419900	-10.309000	25.989000	0.000207	20.735018
1705.459877	-2.987500	3.420500	-10.218000	26.022214	0.000207	20.730930
1706.458930	-2.998700	3.420800	-10.257000	26.039676	0.000205	20.720024
1707.459818	-2.967000	3.421400	-10.149000	26.026535	0.000205	20.710614
1708.460646	-2.984100	3.420400	-10.206000	25.970724	0.000204	20.720923
1709.460675	-2.993700	3.419700	-10.237000	25.953440	0.000204	20.727741
1710.456750	-2.978800	3.419700	-10.185000	26.040001	0.000204	20.720351
1711.461403	-2.969900	3.420100	-10.156000	26.040025	0.000205	20.735549
1712.462723	-3.000200	3.419400	-10.258000	26.016282	0.000204	20.745834
1713.460758	-3.006700	3.417500	-10.274000	25.995737	0.000202	20.727562
1714.473334	-3.008800	3.418100	-10.284000	26.018919	0.000203	20.721928
1715.459838	-2.970400	3.417800	-10.151000	26.060025	0.000201	20.736677
1716.459110	-2.971900	3.417400	-10.156000	26.063996	0.000202	20.737347
1717.463094	-2.969700	3.416700	-10.146000	26.078958	0.000202	20.720612
1718.461462	-2.992400	3.416700	-10.223000	26.074410	0.000199	20.735483
1719.462210	-2.983200	3.415900	-10.189000	26.058316	0.000202	20.735434
1720.460363	-2.980100	3.416000	-10.179000	26.019545	0.000200	20.740102
1721.465820	-2.990200	3.416800	-10.216000	26.025607	0.000201	20.729596
1722.459850	-2.981700	3.416600	-10.186000	26.059658	0.000200	20.718290
1723.465713	-3.001700	3.414100	-10.247000	26.128385	0.000201	20.733766
1724.465700	-2.991600	3.415200	-10.216000	26.123519	0.000200	20.732196
1725.462517	-2.981300	3.414200	-10.178000	26.134177	0.000200	20.742432
1726.460693	-2.980400	3.415400	-10.179000	26.132086	0.000199	20.723734
1727.467355	-3.010700	3.414100	-10.278000	26.167111	0.000198	20.737117
1728.470434	-2.993200	3.412700	-10.214000	26.145429	0.000197	20.733823
1729.461340	-2.983800	3.412500	-10.182000	26.165947	0.000196	20.735948
1730.473346	-3.009500	3.412300	-10.268000	26.125211	0.000198	20.742432
1731.466412	-2.990500	3.413200	-10.207000	26.048120	0.000197	20.753166
1732.467031	-3.004100	3.412800	-10.251000	25.977207	0.000196	20.744982
1733.473361	-2.967300	3.412000	-10.124000	25.989226	0.000197	20.739039
1734.469815	-2.966000	3.411600	-10.118000	26.050878	0.000197	20.733177
1735.465114	-2.999000	3.410100	-10.226000	26.035199	0.000198	20.738287
1736.470819	-2.982100	3.412600	-10.176000	26.017616	0.000196	20.733896
1737.467962	-2.992800	3.410400	-10.206000	26.026167	0.000196	20.753868
1738.472246	-2.993100	3.410400	-10.207000	26.064735	0.000195	20.739039
1739.470665	-2.991800	3.408800	-10.198000	26.067884	0.000196	20.734142
1740.468538	-2.997100	3.408100	-10.213000	26.109688	0.000195	20.739161
1741.471992	-3.033200	3.406800	-10.333000	26.056834	0.000196	20.749119
1742.469846	-3.006300	3.409000	-10.247000	26.095206	0.000195	20.733144
1743.469510	-2.985100	3.409400	-10.176000	26.079853	0.000193	20.757074
1744.469151	-2.993500	3.407700	-10.200000	26.074523	0.000195	20.737968
1745.478121	-3.003200	3.407400	-10.233000	26.018259	0.000193	20.738336
1746.468224	-2.978900	3.408300	-10.151000	26.035224	0.000193	20.737363
1747.475024	-2.989300	3.406300	-10.182000	26.020660	0.000193	20.747861
1748.477965	-3.006200	3.407300	-10.243000	25.986289	0.000188	20.732294
1749.469177	-3.005600	3.406600	-10.238000	25.992546	0.000192	20.741901
1750.473626	-2.982100	3.405200	-10.154000	26.026372	0.000190	20.728943
1751.474260	-3.001700	3.405700	-10.222000	26.012043	0.000189	20.757696
1752.473011	-3.006000	3.404900	-10.234000	26.029927	0.000191	20.745792
1753.473984	-2.971000	3.405300	-10.117000	26.023499	0.000190	20.748343
1754.476456	-2.977200	3.404700	-10.135000	25.988560	0.000189	20.747379
1755.470266	-2.989200	3.404900	-10.178000	25.964995	0.000189	20.745989
1756.475294	-2.980000	3.404100	-10.143000	26.012157	0.000191	20.755440
1757.478849	-3.007200	3.403300	-10.232000	26.044273	0.000189	20.741713
1758.472443	-2.984400	3.405200	-10.161000	26.084133	0.000189	20.757108
1759.479450	-2.983500	3.404400	-10.156000	26.115083	0.000187	20.750273
1760.474566	-2.991100	3.402500	-10.176000	26.128540	0.000189	20.749570
1761.475729	-3.015000	3.402900	-10.259000	26.171481	0.000188	20.755734
1762.484002	-2.999800	3.403400	-10.209000	26.219285	0.000189	20.746398
1763.481532	-3.015600	3.401800	-10.257000	26.212736	0.000186	20.752619
1764.474185	-2.987100	3.401900	-10.161000	26.185490	0.000187	20.733301
1765.477928	-3.013000	3.401200	-10.247000	26.073524	0.000187	20.756879
1766.495021	-2.984600	3.401800	-10.152000	26.018431	0.000186	20.743725
1767.474159	-3.001900	3.400600	-10.207000	26.001742	0.000185	20.753511
1768.474609	-2.994900	3.400700	-10.184000	26.004175	0.000185	20.755955
1769.480604	-2.998200	3.399200	-10.190000	25.993492	0.000186	20.754705
1770.473227	-2.970500	3.400300	-10.100000	26.001962	0.000187	20.762741
1771.473748	-2.982300	3.399300	-10.137000	26.048464	0.000184	20.755407
1772.474693	-2.969800	3.399800	-10.096000	26.060303	0.000183	20.774416
1773.479070	-2.978200	3.399500	-10.123000	26.090106	0.000185	20.750307
1774.479257	-2.997100	3.398700	-10.185000	26.030149	0.000182	20.745540
1775.475335	-2.974500	3.398700	-10.108000	26.076942	0.000187	20.765529
1776.476737	-2.990800	3.399000	-10.164000	26.088617	0.000183	20.749285
1777.478823	-2.972300	3.398100	-10.098000	26.108608	0.000185	20.766527
1778.482135	-3.011100	3.396000	-10.225000	26.149931	0.000184	20.781022
1779.480583	-3.001700	3.396000	-10.193000	26.120706	0.000181	20.762087
1780.480263	-3.019800	3.396300	-10.255000	26.138256	0.000184	20.772135
1781.488651	-3.014100	3.395200	-10.232000	26.078301	0.000183	20.757412
1782.477530	-3.022700	3.396100	-10.265000	26.110439	0.000182	20.765047
1783.481292	-2.994400	3.396700	-10.170000	26.080799	0.000182	20.763715
1784.478980	-3.012800	3.396200	-10.231000	26.087365	0.000182	20.771735
1785.482566	-3.015900	3.394500	-10.237000	26.108845	0.000183	20.772929
1786.481997	-2.996600	3.395700	-10.175000	26.121285	0.000181	20.770730
1787.483340	-2.983100	3.394800	-10.126000	26.145791	0.000180	20.780655
1788.482809	-2.998700	3.394400	-10.177000	26.161126	0.000182	20.776150
1789.483730	-2.987900	3.393300	-10.138000	26.169734	0.000180	20.769152
1790.480296	-2.991600	3.394100	-10.153000	26.201422	0.000181	20.757846
1791.481156	-2.999000	3.393800	-10.177000	26.171353	0.000178	20.770779
1792.486736	-3.018300	3.393100	-10.241000	26.156001	0.000180	20.771474
1793.480649	-3.011700	3.392200	-10.215000	26.147157	0.000179	20.764484
1794.481716	-3.004700	3.391600	-10.190000	26.150688	0.000178	20.781783
1795.486567	-3.010000	3.392300	-10.210000	26.169800	0.000179	20.774908
1796.484420	-3.008500	3.390200	-10.198000	26.140348	0.000179	20.772341
1797.488803	-2.989000	3.391900	-10.138000	26.153585	0.000179	20.770943
1798.486705	-2.984400	3.390800	-10.119000	26.236257	0.000179	20.772938
1799.489111	-2.995200	3.391400	-10.157000	26.242171	0.000179	20.776036
1800.488065	-3.003100	3.389400	-10.178000	26.238519	0.000177	20.785642
1801.482923	-2.992000	3.390200	-10.143000	26.234216	0.000175	20.799810
1802.489409	-2.995900	3.391000	-10.158000	26.219645	0.000176	20.781374
1803.487334	-3.014900	3.388600	-10.214000	26.224129	0.000174	20.770232
1804.488189	-3.018000	3.388800	-10.227000	26.238235	0.000176	20.771606
1805.491898	-3.006500	3.388300	-10.186000	26.187178	0.000177	20.780043
1806.490541	-3.020700	3.388700	-10.235000	26.164007	0.000175	20.797537
1807.486187	-3.008600	3.387200	-10.190000	26.147492	0.000175	20.764346
1808.489905	-2.990900	3.388600	-10.135000	26.145426	0.000175	20.773650
1809.490083	-2.998100	3.386800	-10.153000	26.152154	0.000172	20.766186
1810.488014	-3.005700	3.387000	-10.179000	26.165660	0.000175	20.784973
1811.488947	-2.993900	3.387200	-10.140000	26.143880	0.000170	20.784899
1812.492760	-3.009400	3.386500	-10.191000	26.124386	0.000173	20.780484
1813.487973	-3.001000	3.387000	-10.163000	26.125924	0.000172	20.785823
1814.488542	-3.006200	3.385200	-10.175000	26.133181	0.000172	20.781261
1815.490886	-3.022900	3.384700	-10.231000	26.137030	0.000172	20.776119
1816.489297	-3.018600	3.385300	-10.218000	26.128983	0.000172	20.798854
1817.493629	-3.008400	3.385500	-10.183000	26.209843	0.000172	20.799026
1818.488160	-3.009500	3.383900	-10.182000	26.307292	0.000171	20.782683
1819.490839	-2.992000	3.384800	-10.127000	26.219833	0.000172	20.789624
1820.499629	-2.990500	3.383900	-10.119000	26.176723	0.000170	20.776650
1821.493032	-3.002500	3.384100	-10.160000	26.188650	0.000172	20.785315
1822.487123	-2.977000	3.383100	-10.070000	26.189635	0.000171	20.797210
1823.493790	-3.003200	3.381900	-10.156000	26.167440	0.000171	20.797668
1824.495002	-3.008500	3.382400	-10.174000	26.182931	0.000168	20.770559
1825.489958	-3.010300	3.382400	-10.181000	26.191156	0.000167	20.795894
1826.494215	-2.996800	3.383300	-10.137000	26.129292	0.000168	20.788732
1827.495266	-3.011500	3.380700	-10.180000	26.094843	0.000167	20.809121
1828.494575	-3.011400	3.381700	-10.183000	26.091629	0.000167	20.811581
1829.499330	-2.986500	3.381700	-10.098000	26.121529	0.000168	20.808433
1830.494242	-2.985000	3.380900	-10.090000	26.174037	0.000169	20.815676
1831.495498	-3.034300	3.380800	-10.258000	26.221068	0.000166	20.789917
1832.499729	-3.005900	3.381000	-10.162000	26.238998	0.000167	20.787072
1833.500469	-2.994400	3.379500	-10.119000	26.287694	0.000167	20.788593
1834.494503	-3.008600	3.380100	-10.168000	26.331279	0.000165	20.771703
1835.502273	-2.970600	3.380900	-10.042000	26.330238	0.000165	20.777294
1836.497617	-2.968200	3.379300	-10.029000	26.287262	0.000166	20.800961
1837.497433	-2.997000	3.378300	-10.124000	26.283984	0.000166	20.792450
1838.509827	-2.992200	3.378200	-10.107000	26.260458	0.000164	20.807215
1839.508755	-3.012300	3.377700	-10.173000	26.230985	0.000164	20.806046
1840.499800	-2.989300	3.378200	-10.097000	26.226892	0.000163	20.792925
1841.501525	-3.005000	3.378400	-10.151000	26.189983	0.000164	20.791870
1842.503142	-2.990400	3.378000	-10.100000	26.188624	0.000164	20.802359
1843.500487	-2.988100	3.377200	-10.091000	26.207302	0.000162	20.800740
1844.505182	-3.008700	3.377400	-10.160000	26.250956	0.000163	20.800511
1845.498370	-3.016400	3.376200	-10.183000	26.301245	0.000163	20.796996
1846.504309	-3.011000	3.376100	-10.165000	26.281730	0.000162	20.817686
1847.505070	-3.031000	3.375200	-10.229000	26.210231	0.000161	20.811269
1848.504054	-3.017700	3.374200	-10.182000	26.195531	0.000160	20.808351
1849.502540	-3.015100	3.374600	-10.173000	26.157439	0.000159	20.806110
1850.506275	-3.010200	3.374600	-10.157000	26.210857	0.000160	20.806683
1851.508005	-3.020700	3.374100	-10.191000	26.247336	0.000160	20.821529
1852.500531	-3.008100	3.373200	-10.146000	26.249223	0.000163	20.812520
1853.504697	-2.999500	3.373900	-10.119000	26.222580	0.000160	20.822256
1854.500011	-3.008300	3.372800	-10.145000	26.184368	0.000158	20.813255
1855.506543	-3.005400	3.372800	-10.136000	26.199061	0.000160	20.822804
1856.502471	-3.041100	3.371600	-10.253000	26.203161	0.000158	20.808432
1857.507118	-3.007900	3.371900	-10.141000	26.237281	0.000156	20.809528
1858.504917	-3.007900	3.370700	-10.138000	26.308973	0.000159	20.794804
1859.505173	-2.998700	3.370900	-10.108000	26.305394	0.000159	20.827717
1860.504633	-2.987200	3.371900	-10.071000	26.324486	0.000157	20.819877
1861.506732	-2.989100	3.371200	-10.075000	26.380328	0.000157	20.809618
1862.501960	-3.022200	3.368700	-10.180000	26.406568	0.000157	20.821292
1863.503206	-3.013800	3.369100	-10.153000	26.329187	0.000158	20.827447
1864.503832	-2.991600	3.370700	-10.083000	26.329082	0.000156	20.814065
1865.503968	-2.994500	3.369500	-10.090000	26.320760	0.000157	20.827513
1866.507427	-2.970200	3.369200	-10.007000	26.324958	0.000156	20.799489
1867.509120	-2.988900	3.368900	-10.069000	26.331864	0.000156	20.824921
1868.507649	-2.979300	3.370200	-10.040000	26.269805	0.000155	20.818978
1869.508739	-2.991800	3.368600	-10.078000	26.263818	0.000157	20.832876
1870.508375	-3.015500	3.367900	-10.155000	26.298659	0.000155	20.815259
1871.513085	-3.008400	3.367500	-10.130000	26.346335	0.000153	20.817180
1872.510382	-3.000700	3.368400	-10.106000	26.378115	0.000156	20.822093
1873.512401	-3.008900	3.366800	-10.130000	26.347596	0.000153	20.828878
1874.508675	-2.978100	3.368300	-10.030000	26.354876	0.000154	20.842833
1875.509778	-2.979900	3.368200	-10.036000	26.325023	0.000154	20.830375
1876.511950	-3.002500	3.365900	-10.105000	26.320907	0.000151	20.815807
1877.511177	-2.988400	3.365900	-10.058000	26.345636	0.000153	20.830701
1878.513350	-3.027200	3.365600	-10.187000	26.301929	0.000154	20.842253
1879.512267	-2.996300	3.366100	-10.085000	26.320997	0.000151	20.837708
1880.508243	-2.999000	3.365200	-10.091000	26.340967	0.000153	20.834544
1881.512343	-2.991900	3.365100	-10.067000	26.309503	0.000150	20.830898
1882.516297	-3.004400	3.364100	-10.107000	26.287922	0.000150	20.822012
1883.512727	-2.981700	3.365600	-10.034000	26.255219	0.000150	20.823761
1884.522534	-3.030500	3.364000	-10.194000	26.293877	0.000150	20.845539
1885.518104	-3.019300	3.362900	-10.152000	26.330531	0.000148	20.851556
1886.517014	-3.012100	3.363300	-10.130000	26.344139	0.000150	20.831568
1887.518206	-3.003100	3.362400	-10.096000	26.340438	0.000150	20.836858
1888.516290	-2.988300	3.363900	-10.052000	26.360302	0.000149	20.832639
1889.516324	-3.004800	3.362900	-10.103000	26.324048	0.000148	20.846463
1890.516842	-3.013900	3.360900	-10.129000	26.332816	0.000149	20.810706
1891.520237	-2.984600	3.361300	-10.031000	26.297749	0.000148	20.835206
1892.515916	-3.004000	3.361200	-10.097000	26.317736	0.000146	20.852447
1893.521103	-3.011200	3.361900	-10.122000	26.307884	0.000146	20.833539
1894.520146	-3.014700	3.359600	-10.127000	26.357594	0.000146	20.845090
1895.519427	-2.985600	3.361300	-10.034000	26.358481	0.000145	20.863524
1896.520053	-3.012000	3.360400	-10.120000	26.338698	0.000145	20.829419
1897.516583	-2.996500	3.359100	-10.064000	26.319818	0.000148	20.858807
1898.519429	-2.980000	3.359900	-10.012000	26.364712	0.000143	20.848450
1899.519486	-2.991900	3.359000	-10.049000	26.361783	0.000145	20.859731
1900.517482	-3.003100	3.359600	-10.088000	26.310578	0.000144	20.856159
1901.525131	-2.992400	3.357900	-10.047000	26.309959	0.000143	20.847003
1902.521937	-2.990800	3.358300	-10.043000	26.342457	0.000144	20.852636
1903.520972	-2.974100	3.358600	-9.987900	26.328010	0.000145	20.858505
1904.521253	-2.976500	3.358000	-9.994000	26.370820	0.000141	20.856486
1905.520205	-3.017000	3.357100	-10.127000	26.388992	0.000143	20.858628
1906.518817	-2.992700	3.356900	-10.045000	26.428693	0.000142	20.860124
1907.522941	-3.003500	3.355900	-10.079000	26.439365	0.000140	20.853306
1908.516268	-2.995700	3.356200	-10.053000	26.442805	0.000141	20.861979
1909.521905	-2.994300	3.356000	-10.049000	26.417672	0.000141	20.846676
1910.521331	-2.980300	3.355600	-9.999900	26.423032	0.000142	20.858227
1911.520426	-3.008300	3.354200	-10.090000	26.444692	0.000143	20.850126
1912.526803	-3.007500	3.355400	-10.091000	26.404218	0.000139	20.857810
1913.523066	-3.016000	3.353800	-10.114000	26.404015	0.000139	20.875148
1914.523195	-3.011500	3.353900	-10.099000	26.407570	0.000139	20.872083
1915.521146	-3.029300	3.352700	-10.155000	26.401576	0.000140	20.860843
1916.525954	-2.984600	3.353100	-10.007000	26.430035	0.000140	20.870955
1917.528803	-2.992600	3.352800	-10.033000	26.394336	0.000140	20.875851
1918.529191	-2.983100	3.353100	-10.001000	26.398655	0.000139	20.874028
1919.524625	-3.011300	3.352500	-10.095000	26.376083	0.000139	20.876473
1920.528151	-3.005600	3.351600	-10.073000	26.397866	0.000138	20.878925
1921.530533	-3.006300	3.353200	-10.079000	26.431231	0.000139	20.851295
1922.527798	-3.012900	3.351500	-10.098000	26.427383	0.000139	20.859281
1923.524337	-3.019500	3.350600	-10.116000	26.448685	0.000136	20.869312
1924.527587	-3.029600	3.350300	-10.149000	26.498510	0.000136	20.852064
1925.528392	-3.008400	3.350900	-10.079000	26.502805	0.000139	20.877241
1926.529169	-3.012800	3.350200	-10.093000	26.442374	0.000136	20.874822
1927.532546	-3.007300	3.349700	-10.073000	26.437209	0.000135	20.867734
1928.526215	-3.022400	3.350200	-10.124000	26.414509	0.000135	20.885220
1929.531966	-2.979500	3.350700	-9.982500	26.361101	0.000131	20.882277
1930.535648	-2.992600	3.350200	-10.025000	26.394524	0.000135	20.886945
1931.531186	-2.977400	3.348400	-9.968600	26.448702	0.000135	20.864113
1932.531204	-2.992500	3.348600	-10.020000	26.447905	0.000134	20.882751
1933.534079	-3.000000	3.348300	-10.044000	26.441269	0.000132	20.892675
1934.530559	-2.986400	3.348100	-9.997500	26.405643	0.000133	20.887689
1935.530673	-2.980700	3.347900	-9.978100	26.422878	0.000133	20.873244
1936.536137	-2.997100	3.348100	-10.033000	26.471443	0.000132	20.888866
1937.527341	-2.985100	3.348700	-9.995300	26.516558	0.000133	20.902443
1938.531229	-2.995500	3.346500	-10.024000	26.535597	0.000130	20.901193
1939.535669	-2.997900	3.346500	-10.032000	26.526481	0.000130	20.881599
1940.527450	-3.003900	3.345700	-10.049000	26.544357	0.000132	20.882498
1941.530789	-3.003500	3.345500	-10.046000	26.532588	0.000129	20.880626
1942.532165	-3.016700	3.345400	-10.091000	26.540632	0.000132	20.902460
1943.532187	-2.988600	3.345200	-9.996000	26.565136	0.000131	20.892005
1944.532887	-3.012200	3.344300	-10.073000	26.599666	0.000129	20.896370
1945.536561	-2.992000	3.344000	-10.004000	26.613743	0.000131	20.901512
1946.531095	-2.994000	3.345200	-10.015000	26.574838	0.000128	20.876629
1947.532920	-3.002400	3.344200	-10.040000	26.535761	0.000129	20.887608
1948.539745	-2.985600	3.344100	-9.983500	26.495347	0.000126	20.881125
1949.531338	-2.994000	3.344400	-10.013000	26.506693	0.000128	20.891580
1950.534532	-2.996300	3.343100	-10.016000	26.475657	0.000127	20.890730
1951.535748	-3.006700	3.342900	-10.050000	26.440098	0.000128	20.901929
1952.537306	-3.009000	3.343400	-10.059000	26.514956	0.000127	20.912212
1953.536058	-3.003400	3.342500	-10.038000	26.582361	0.000127	20.890828
1954.538997	-3.008800	3.342400	-10.056000	26.614313	0.000126	20.885964
1955.532810	-3.008600	3.340100	-10.048000	26.628487	0.000126	20.895945
1956.533301	-3.024900	3.341000	-10.105000	26.618355	0.000124	20.901880
1957.542026	-2.998600	3.340900	-10.017000	26.613768	0.000126	20.883046
1958.540544	-2.990900	3.340000	-9.988800	26.586484	0.000126	20.904929
1959.538535	-3.011100	3.339600	-10.055000	26.605229	0.000124	20.905280
1960.543352	-2.992600	3.340300	-9.995500	26.627324	0.000126	20.897147
1961.537358	-2.994600	3.340200	-10.001000	26.595462	0.000126	20.907316
1962.539274	-3.016800	3.339700	-10.074000	26.588590	0.000123	20.903727
1963.541134	-3.015600	3.337800	-10.065000	26.608352	0.000123	20.894196
1964.535742	-3.010700	3.338100	-10.048000	26.642165	0.000122	20.888833
1965.540693	-2.998500	3.338000	-10.009000	26.577668	0.000125	20.908395
1966.544334	-3.039200	3.338000	-10.144000	26.561680	0.000124	20.886161
1967.536801	-2.996500	3.337700	-10.001000	26.532930	0.000123	20.901831
1968.540715	-2.993100	3.336900	-9.987200	26.537924	0.000121	20.894049
1969.541583	-2.993500	3.337700	-9.990100	26.592982	0.000121	20.882065
1970.540899	-2.987500	3.336200	-9.966200	26.577798	0.000121	20.865381
1971.544964	-2.995000	3.336900	-9.993000	26.582515	0.000121	20.876285
1972.549112	-3.010100	3.335800	-10.040000	26.521966	0.000119	20.894604
1973.538214	-2.997000	3.335300	-9.995300	26.527774	0.000121	20.871994
1974.540413	-3.014200	3.334400	-10.049000	26.502716	0.000120	20.876204
1975.542587	-2.979500	3.336500	-9.940500	26.528514	0.000121	20.898340
1976.537960	-2.984100	3.335800	-9.953500	26.526114	0.000117	20.883127
1977.543849	-3.002700	3.335200	-10.013000	26.517623	0.000120	20.889291
1978.540412	-3.011200	3.334400	-10.039000	26.558637	0.000118	20.877887
1979.543126	-3.009700	3.333300	-10.031000	26.663967	0.000122	20.866182
1980.549432	-2.982200	3.334400	-9.942800	26.669277	0.000119	20.869149
1981.555989	-2.990400	3.332600	-9.964900	26.682085	0.000115	20.865904
1982.541641	-2.981500	3.333000	-9.936800	26.731662	0.000119	20.880184
1983.545827	-2.992200	3.332400	-9.969700	26.715749	0.000116	20.856127
1984.544909	-3.009600	3.330100	-10.021000	26.732109	0.000117	20.879211
1985.549520	-2.996500	3.331300	-9.981500	26.733158	0.000117	20.858930
1986.547405	-2.985400	3.331800	-9.945900	26.746900	0.000117	20.867530
1987.545227	-2.994800	3.332000	-9.978200	26.769936	0.000114	20.884051
1988.550775	-3.015600	3.330700	-10.043000	26.701876	0.000117	20.875369
1989.544814	-3.007500	3.332100	-10.021000	26.725182	0.000114	20.875092
1990.546785	-3.003100	3.329800	-9.998500	26.733199	0.000116	20.879833
1991.544418	-3.022000	3.329000	-10.059000	26.720986	0.000114	20.859021
1992.547832	-3.011800	3.328900	-10.025000	26.720287	0.000114	20.855947
1993.544317	-2.996600	3.329400	-9.976100	26.714554	0.000115	20.867727
1994.546393	-2.974900	3.329400	-9.903400	26.755780	0.000114	20.884991
1995.544962	-2.980400	3.329800	-9.923500	26.808721	0.000111	20.892700
1996.550247	-2.985200	3.327300	-9.931200	26.768140	0.000113	20.881771
1997.546661	-3.002500	3.328200	-9.991400	26.761984	0.000113	20.870841
1998.545079	-3.018700	3.326900	-10.042000	26.755138	0.000110	20.868225
1999.552845	-2.986000	3.328000	-9.936100	26.752203	0.000110	20.870490
2000.547765	-2.991800	3.327300	-9.953900	26.806534	0.000110	20.873907
2001.548188	-3.010100	3.325300	-10.009000	26.780100	0.000110	20.862978
2002.554413	-2.998100	3.327100	-9.973700	26.773417	0.000110	20.845354
2003.546864	-2.983800	3.327100	-9.926300	26.726654	0.000111	20.852866
2004.546111	-2.996900	3.325700	-9.965900	26.744584	0.000109	20.868994
2005.552229	-3.012900	3.326300	-10.021000	26.710619	0.000109	20.878943
2006.548493	-3.002900	3.324500	-9.982000	26.685322	0.000110	20.857779
2007.556242	-3.012100	3.324200	-10.012000	26.733778	0.000107	20.851019
2008.554320	-2.985300	3.324900	-9.925000	26.709473	0.000107	20.867834
2009.550257	-2.990800	3.324000	-9.940300	26.715629	0.000108	20.865962
2010.550521	-2.997500	3.322700	-9.960000	26.670522	0.000107	20.837212
2011.555359	-2.990200	3.322800	-9.935200	26.654787	0.000107	20.854583
2012.549000	-2.999600	3.323100	-9.966300	26.661805	0.000105	20.842673
2013.553111	-3.006100	3.321900	-9.985100	26.649835	0.000107	20.851976
2014.555034	-3.032500	3.321200	-10.071000	26.665757	0.000105	20.862766
2015.548525	-2.987500	3.322300	-9.923900	26.656845	0.000105	20.858074
2016.547773	-2.992700	3.322400	-9.941400	26.663887	0.000105	20.864205
2017.551911	-3.022200	3.321200	-10.037000	26.721671	0.000104	20.862080
2018.557642	-3.005800	3.321700	-9.983300	26.706051	0.000104	20.836420
2019.552450	-3.005700	3.320300	-9.979000	26.759229	0.000104	20.862857
2020.554237	-2.977600	3.321400	-9.889100	26.820480	0.000105	20.854266
2021.553125	-3.023000	3.319200	-10.033000	26.817171	0.000104	20.883654
2022.558227	-3.020300	3.318800	-10.023000	26.814440	0.000104	20.855778
2023.554964	-2.991700	3.320100	-9.931700	26.761450	0.000101	20.855607
2024.558546	-2.992900	3.319400	-9.933600	26.717216	0.000103	20.843377
2025.551152	-2.969700	3.319700	-9.856900	26.731389	0.000104	20.853833
2026.551723	-2.998800	3.318100	-9.949200	26.759759	0.000102	20.849165
2027.548625	-2.998300	3.317200	-9.945400	26.725031	0.000102	20.846966
2028.556417	-3.001500	3.317600	-9.956600	26.725226	0.000101	20.850956
2029.554302	-3.005300	3.316600	-9.965600	26.787681	9.885875E-5	20.847841
2030.555210	-3.017400	3.316100	-10.005000	26.829823	0.000101	20.873616
2031.559381	-2.990900	3.318300	-9.923800	26.867451	0.000100	20.855027
2032.559711	-3.010300	3.316200	-9.981900	26.782413	0.000101	20.842544
2033.554252	-2.980100	3.318300	-9.887800	26.719241	0.000101	20.843043
2034.556754	-2.994400	3.316500	-9.929900	26.742522	9.998083E-5	20.838948
2035.557692	-3.020200	3.315200	-10.011000	26.812318	0.000100	20.862180
2036.553928	-3.010500	3.315200	-9.979700	26.871338	9.826471E-5	20.861305
2037.552505	-3.007900	3.313400	-9.965700	26.824831	9.806669E-5	20.858166
2038.559077	-2.977100	3.313600	-9.862800	26.828254	9.691161E-5	20.819410
2039.550673	-2.995600	3.314800	-9.928400	26.833166	0.000100	20.861330
2040.556366	-2.977000	3.314300	-9.865600	26.802114	9.519548E-5	20.842913
2041.551875	-2.990000	3.312900	-9.905100	26.765834	9.793468E-5	20.836307
2042.555978	-2.975400	3.313700	-9.858300	26.791072	9.509647E-5	20.858362
2043.555955	-3.024200	3.313100	-10.017000	26.767070	9.776967E-5	20.849877
2044.559691	-3.013500	3.312000	-9.979700	26.746514	9.681260E-5	20.817358
2045.555571	-3.007600	3.311100	-9.957700	26.719364	9.569052E-5	20.837476
2046.556755	-3.012100	3.313200	-9.978800	26.737383	9.677960E-5	20.846109
2047.554099	-2.996900	3.311300	-9.922500	26.706825	9.654858E-5	20.834828
2048.563777	-3.003200	3.310900	-9.942600	26.737798	9.592153E-5	20.852216
2049.557502	-2.985500	3.310300	-9.882000	26.759216	9.549250E-5	20.830602
2050.560562	-2.991800	3.309700	-9.901500	26.857460	9.509647E-5	20.845929
2051.559694	-2.999200	3.309700	-9.925900	26.862525	9.351236E-5	20.832531
2052.558618	-3.005300	3.308700	-9.943300	26.866143	9.374338E-5	20.841858
2053.557208	-2.980800	3.309400	-9.862300	26.959044	9.153221E-5	20.834280
2054.566992	-2.987400	3.309000	-9.883700	26.951069	9.539350E-5	20.839537
2055.560077	-2.983700	3.308400	-9.870400	26.918468	9.265430E-5	20.840893
2056.557557	-3.024700	3.307600	-10.004000	26.917054	9.305032E-5	20.840893
2057.559702	-3.006300	3.308000	-9.944000	26.952369	9.219226E-5	20.843689
2058.559865	-3.016800	3.307900	-9.978500	26.921745	9.087217E-5	20.842765
2059.558954	-3.002100	3.306300	-9.924500	26.940833	9.153221E-5	20.832563
2060.562416	-2.999400	3.306800	-9.918000	26.899956	9.149921E-5	20.831762
2061.563282	-3.011700	3.306300	-9.956600	26.903704	9.070715E-5	20.831737
2062.563784	-2.991100	3.305900	-9.887500	26.919590	9.050914E-5	20.837280
2063.564321	-2.987900	3.306200	-9.877700	26.894175	8.776994E-5	20.828794
2064.562141	-2.987700	3.304800	-9.873400	26.890061	8.945306E-5	20.842201
2065.562663	-3.005400	3.305700	-9.933800	26.872533	8.909004E-5	20.835007
2066.566720	-2.991500	3.305300	-9.886500	26.858345	8.816597E-5	20.834017
2067.563266	-3.000200	3.303900	-9.910800	26.834466	8.701088E-5	20.832767
2068.566676	-2.992900	3.305600	-9.892000	26.816375	8.862800E-5	20.810310
2069.565767	-3.009100	3.303200	-9.939100	26.837368	8.852899E-5	20.831418
2070.561918	-3.027500	3.303200	-9.999400	26.907777	8.971708E-5	20.846738
2071.568250	-2.990000	3.302700	-9.874600	26.974042	8.786895E-5	20.830396
2072.565237	-2.958500	3.304200	-9.774100	26.969872	8.737391E-5	20.826203
2073.565760	-2.994300	3.301500	-9.885400	26.998512	8.664786E-5	20.829873
2074.566437	-3.011200	3.300400	-9.937100	26.937418	8.466771E-5	20.843827
2075.569882	-3.023300	3.299900	-9.975600	26.924533	8.793495E-5	20.832767
2076.566053	-3.009200	3.301100	-9.932800	26.916712	8.473372E-5	20.827748
2077.572511	-3.003100	3.302000	-9.915700	26.950068	8.493173E-5	20.820039
2078.570223	-2.994700	3.300300	-9.882300	26.852012	8.281958E-5	20.834288
2079.565938	-3.020700	3.298900	-9.963200	26.863524	8.466771E-5	20.829268
2080.580082	-2.975000	3.300200	-9.816600	26.859500	8.486573E-5	20.830438
2081.571014	-2.994800	3.299700	-9.880900	26.903289	8.470071E-5	20.825630
2082.570635	-3.026200	3.297600	-9.978100	26.916094	8.308360E-5	20.803893
2083.569918	-3.024900	3.298000	-9.974800	26.953337	8.400766E-5	20.819532
2084.572555	-2.998700	3.300000	-9.894300	26.981440	8.371064E-5	20.819344
2085.567907	-2.994400	3.297900	-9.874300	26.975555	8.126846E-5	20.818167
2086.569861	-3.031200	3.296400	-9.991100	26.972352	8.153248E-5	20.819213
2087.571668	-3.027900	3.296600	-9.980200	26.980563	8.047641E-5	20.833160
2088.571902	-3.001900	3.297400	-9.897900	27.016868	8.291858E-5	20.835056
2089.573769	-3.025400	3.295000	-9.967200	27.051116	8.103745E-5	20.806910
2090.571025	-2.961500	3.297500	-9.763700	27.053937	8.050941E-5	20.827291
2091.574566	-2.981300	3.296100	-9.825800	27.067463	8.021239E-5	20.812445
2092.571042	-3.016200	3.295600	-9.939500	27.072527	7.918931E-5	20.825124
2093.574381	-3.012300	3.295200	-9.925600	27.053815	7.965135E-5	20.863202
2094.572198	-2.993200	3.296600	-9.866300	27.021136	8.143348E-5	20.809951
2095.575781	-2.993600	3.296300	-9.866300	27.059155	7.882628E-5	20.800771
2096.569773	-2.975800	3.295600	-9.805400	27.034167	7.866127E-5	20.821633
2097.573566	-2.986400	3.295600	-9.841100	27.064781	7.951934E-5	20.824446
2098.574753	-3.013900	3.292900	-9.924100	27.090646	7.862827E-5	20.813474
2099.574752	-2.997400	3.293300	-9.870200	27.118178	7.704415E-5	20.817930
2100.574642	-2.988700	3.293700	-9.843300	27.087671	7.638411E-5	20.824232
2101.581605	-2.988000	3.292900	-9.838100	27.012755	7.862827E-5	20.799626
2102.576107	-2.996600	3.292800	-9.865900	26.986553	7.849626E-5	20.815477
2103.579817	-3.012900	3.291500	-9.915800	27.032435	7.737418E-5	20.822736
2104.579791	-2.996700	3.290800	-9.860200	27.033525	7.750619E-5	20.802495
2105.576415	-3.009200	3.289600	-9.897400	27.087898	7.777021E-5	20.816401
2106.577272	-2.995600	3.290800	-9.857300	27.115470	7.684614E-5	20.823267
2107.578231	-3.011100	3.289600	-9.904300	27.167255	7.687914E-5	20.829831
2108.580960	-3.000300	3.290000	-9.869300	27.168271	7.476699E-5	20.795767
2109.586387	-3.015300	3.288500	-9.915100	27.167279	7.651612E-5	20.818951
2110.582603	-2.999700	3.288500	-9.864000	27.163483	7.427195E-5	20.817030
2111.593779	-3.001200	3.288300	-9.867800	27.105000	7.496500E-5	20.815108
2112.582669	-2.983500	3.288400	-9.810000	27.052985	7.446997E-5	20.825385
2113.584110	-2.973700	3.290700	-9.783700	27.049944	7.308386E-5	20.787239
2114.579550	-2.984800	3.287500	-9.811900	27.057358	7.219280E-5	20.807972
2115.588309	-3.003600	3.287600	-9.873900	27.129198	7.347989E-5	20.810522
2116.582181	-2.988300	3.287000	-9.821400	27.184949	7.374391E-5	20.807326
2117.580965	-2.987900	3.286900	-9.820000	27.159492	7.427195E-5	20.803533
2118.586926	-2.979300	3.287500	-9.793800	27.165377	7.344689E-5	20.796175
2119.584433	-2.980100	3.287000	-9.795000	27.195938	7.321587E-5	20.806999
2120.587074	-3.003400	3.285600	-9.867100	27.247622	7.367791E-5	20.786913
2121.577209	-2.996600	3.285500	-9.843900	27.275482	7.305086E-5	20.792652
2122.585037	-2.981400	3.285600	-9.795100	27.283666	7.146675E-5	20.807522
2123.580322	-2.992700	3.285200	-9.830700	27.274857	7.041067E-5	20.789652
2124.584770	-2.995200	3.283600	-9.834300	27.236926	7.209379E-5	20.795121
2125.583933	-2.991100	3.284100	-9.822300	27.249978	6.932159E-5	20.805405
2126.586944	-3.002100	3.283700	-9.857100	27.285325	7.235781E-5	20.811087
2127.584501	-3.005000	3.282600	-9.863100	27.306268	6.932159E-5	20.795170
2128.584352	-2.992500	3.282100	-9.820200	27.244273	6.843052E-5	20.797769
2129.588054	-3.011500	3.282500	-9.884100	27.196751	6.925558E-5	20.796437
2130.585768	-2.985000	3.281800	-9.794200	27.216006	6.724244E-5	20.787355
2131.586061	-2.988700	3.283100	-9.811800	27.223670	6.750646E-5	20.799331
2132.590589	-2.999500	3.281400	-9.841700	27.207894	6.734144E-5	20.813809
2133.584882	-3.002800	3.279900	-9.848300	27.190127	6.582333E-5	20.773653
2134.584542	-3.005100	3.279700	-9.854000	27.136677	6.678040E-5	20.793862
2135.589357	-3.009000	3.279700	-9.867800	27.154421	6.704442E-5	20.777095
2136.587632	-2.990600	3.279600	-9.807100	27.135417	6.480026E-5	20.803974
2137.589325	-2.990200	3.281300	-9.809800	27.127119	6.658239E-5	20.787094
2138.585812	-3.020300	3.278100	-9.898800	27.184487	6.522929E-5	20.789317
2139.586946	-2.990400	3.278500	-9.803500	27.197638	6.489927E-5	20.797329
2140.587493	-2.989400	3.277600	-9.796600	27.206944	6.453624E-5	20.796732
2141.586696	-2.976300	3.278400	-9.756700	27.187640	6.509728E-5	20.773048
2142.589742	-2.994800	3.277700	-9.814600	27.244429	6.367818E-5	20.787494
2143.585449	-2.992000	3.276600	-9.802600	27.267673	6.460224E-5	20.798073
2144.591251	-3.004200	3.277500	-9.845800	27.245770	6.189605E-5	20.789791
2145.590854	-2.988600	3.276900	-9.793000	27.275020	6.338115E-5	20.768004
2146.590533	-3.010400	3.276600	-9.862900	27.263804	6.301813E-5	20.786121
2147.589841	-3.003800	3.274500	-9.834900	27.289283	6.209406E-5	20.781404
2148.590374	-2.984000	3.276900	-9.777600	27.322977	5.975089E-5	20.779736
2149.589263	-3.001700	3.274100	-9.826700	27.363570	5.915684E-5	20.790698
2150.589673	-3.014400	3.274600	-9.869900	27.372647	6.285312E-5	20.754785
2151.591198	-2.999600	3.275600	-9.823600	27.343302	5.810077E-5	20.771732
2152.592435	-2.992300	3.273400	-9.794200	27.354119	5.859580E-5	20.772656
2153.592922	-2.989900	3.272300	-9.782800	27.331965	5.942086E-5	20.775975
2154.595521	-2.984700	3.273300	-9.768300	27.265852	5.935486E-5	20.773481
2155.593451	-2.995300	3.273000	-9.802900	27.193354	5.823278E-5	20.771683
2156.593011	-2.985300	3.273100	-9.770600	27.221101	5.803476E-5	20.751227
2157.592214	-3.000200	3.271000	-9.812800	27.264787	5.770474E-5	20.776203
2158.593317	-3.000300	3.271200	-9.814000	27.235414	5.753973E-5	20.780323
2159.594257	-3.043200	3.270600	-9.951700	27.176471	5.631864E-5	20.785522
2160.594526	-2.975100	3.271300	-9.731500	27.203488	5.631864E-5	20.770971
2161.593912	-2.992100	3.271000	-9.785800	27.262161	5.711069E-5	20.785891
2162.594722	-3.007300	3.268400	-9.828300	27.355044	5.506455E-5	20.765526
2163.598573	-3.003700	3.270000	-9.820300	27.360090	5.562559E-5	20.737885
2164.597608	-2.999700	3.269500	-9.807200	27.328705	5.549358E-5	20.761790
2165.603430	-3.025200	3.267600	-9.883800	27.336279	5.763873E-5	20.773676
2166.592537	-3.004400	3.267200	-9.815400	27.285266	5.559258E-5	20.766458
2167.594401	-3.030900	3.268500	-9.905400	27.251806	5.486653E-5	20.773578
2168.595048	-3.006600	3.266300	-9.819300	27.234624	5.641764E-5	20.778580
2169.596950	-2.992000	3.267100	-9.774400	27.262729	5.394246E-5	20.760382
2170.593944	-3.034600	3.266300	-9.910100	27.273448	5.384346E-5	20.776381
2171.593670	-3.000300	3.265200	-9.795800	27.280121	5.480053E-5	20.769342
2172.595427	-3.009400	3.264600	-9.823900	27.258421	5.258936E-5	20.757946
2173.594200	-2.992000	3.264400	-9.766500	27.257705	5.344743E-5	20.773822
2174.598097	-2.978600	3.265700	-9.726100	27.278917	5.334842E-5	20.760545
2175.599143	-2.996400	3.262900	-9.775800	27.296805	5.186331E-5	20.761469
2176.594049	-2.993300	3.264300	-9.769900	27.366151	5.183031E-5	20.765793
2177.596682	-2.975500	3.264100	-9.711300	27.381380	5.420648E-5	20.750767
2178.597182	-2.990600	3.263700	-9.759600	27.382557	4.998217E-5	20.748632
2179.597838	-3.012300	3.261900	-9.824800	27.302550	4.899210E-5	20.759187
2180.594073	-2.996400	3.262400	-9.774900	27.256924	5.206132E-5	20.768294
2181.595655	-2.989800	3.262100	-9.752300	27.256859	4.915711E-5	20.762064
2182.597703	-3.010800	3.261900	-9.820200	27.238596	4.734198E-5	20.743220
2183.596797	-2.987200	3.261800	-9.742700	27.263311	4.820004E-5	20.763339
2184.601053	-2.991500	3.260900	-9.754000	27.287823	4.895910E-5	20.738208
2185.596328	-3.014100	3.261100	-9.827700	27.270942	4.658292E-5	20.747781
2186.599435	-3.003600	3.259700	-9.789900	27.339900	4.862907E-5	20.749817
2187.599516	-3.013400	3.259700	-9.821400	27.399938	4.886009E-5	20.747152
2188.608856	-2.996200	3.258900	-9.763200	27.345662	5.037820E-5	20.764148
2189.599235	-3.038700	3.257600	-9.897800	27.254029	4.654992E-5	20.762063
2190.603662	-2.996900	3.257600	-9.761500	27.268138	4.777101E-5	20.766772
2191.601616	-2.990300	3.258200	-9.742300	27.309480	4.767200E-5	20.756201
2192.600149	-3.003300	3.257700	-9.782800	27.317843	4.757300E-5	20.746120
2193.601123	-2.985100	3.258300	-9.725500	27.358330	4.744099E-5	20.736588
2194.596795	-2.975600	3.257300	-9.690700	27.376834	4.704496E-5	20.761842
2195.601232	-2.995900	3.256200	-9.754200	27.391226	4.704496E-5	20.732222
2196.598410	-3.010300	3.254700	-9.796600	27.441039	4.496580E-5	20.736342
2197.596745	-2.982200	3.256800	-9.710700	27.436578	4.555985E-5	20.730905
2198.599606	-2.986800	3.254800	-9.721100	27.464238	4.265564E-5	20.737397
2199.600869	-2.994800	3.254800	-9.745500	27.483390	4.546084E-5	20.759511
2200.601071	-3.012800	3.253500	-9.801300	27.473420	4.311767E-5	20.738099
2201.606011	-2.998500	3.254000	-9.756200	27.439762	4.404174E-5	20.736480
2202.599761	-2.978900	3.255200	-9.695900	27.486225	4.532883E-5	20.743397
2203.603337	-2.983600	3.253000	-9.704300	27.463408	4.506481E-5	20.757900
2204.602144	-2.999200	3.253400	-9.756800	27.476109	4.361271E-5	20.731795
2205.601114	-2.987300	3.252700	-9.716200	27.400480	4.351370E-5	20.732523
2206.601470	-2.992200	3.253600	-9.735000	27.427191	4.315067E-5	20.728574
2207.603658	-3.003600	3.251700	-9.766000	27.519604	4.334869E-5	20.740469
2208.599544	-2.994900	3.251000	-9.735700	27.497243	4.615389E-5	20.758276
2209.602360	-3.013600	3.250900	-9.796100	27.488500	4.305166E-5	20.739995
2210.603590	-3.021100	3.249600	-9.816600	27.403397	4.268864E-5	20.737828
2211.601595	-2.995000	3.251800	-9.738200	27.403770	4.054348E-5	20.738678
2212.604542	-2.984800	3.248600	-9.695600	27.404615	4.232561E-5	20.726725
2213.605953	-2.987600	3.249400	-9.707100	27.399634	4.239162E-5	20.735465
2214.601601	-2.999200	3.247700	-9.740000	27.414521	4.328268E-5	20.731001
2215.605008	-2.967900	3.248700	-9.640600	27.409019	4.077450E-5	20.728785
2216.605907	-3.002800	3.248600	-9.753500	27.443522	4.034547E-5	20.738367
2217.609496	-2.999300	3.246600	-9.737100	27.440792	4.077450E-5	20.732301
2218.606419	-3.023600	3.246700	-9.814900	27.441718	3.895936E-5	20.722800
2219.609694	-2.987400	3.245800	-9.695200	27.417210	4.216060E-5	20.728490
2220.608253	-2.975800	3.246600	-9.660000	27.400047	3.737525E-5	20.734458
2221.603314	-2.988900	3.246500	-9.702900	27.414349	3.843133E-5	20.735569
2222.611846	-2.995500	3.245900	-9.722900	27.466046	4.077450E-5	20.726887
2223.609445	-2.976800	3.246100	-9.661700	27.452492	3.948740E-5	20.736485
2224.606536	-2.985400	3.244100	-9.683600	27.473928	3.773827E-5	20.734343
2225.610873	-3.008600	3.244000	-9.759100	27.505707	3.892636E-5	20.748298
2226.607056	-2.994600	3.245100	-9.717800	27.477406	3.780428E-5	20.715081
2227.602198	-3.004400	3.243800	-9.744700	27.435265	3.833232E-5	20.724843
2228.604591	-3.016300	3.243200	-9.781000	27.403125	3.763927E-5	20.732813
2229.605078	-2.989100	3.242800	-9.692700	27.439441	3.862934E-5	20.742322
2230.608277	-2.990000	3.242500	-9.694400	27.504780	3.895936E-5	20.728399
2231.608933	-2.981700	3.242000	-9.665700	27.546398	3.882735E-5	20.745616
2232.612472	-2.993400	3.241500	-9.702100	27.559828	3.816731E-5	20.718824
2233.610635	-3.008700	3.239800	-9.747000	27.528295	3.882735E-5	20.738781
2234.607338	-3.006900	3.240100	-9.741900	27.527855	3.628617E-5	20.731701
2235.607274	-3.025600	3.239400	-9.800500	27.515529	3.770527E-5	20.735421
2236.609951	-3.015100	3.238800	-9.764000	27.499831	3.793629E-5	20.715832
2237.609041	-3.013700	3.239300	-9.761500	27.452328	3.754026E-5	20.734423
2238.610167	-3.014800	3.239300	-9.764700	27.500075	3.645118E-5	20.732200
2239.614297	-3.008400	3.238800	-9.742200	27.516545	3.476806E-5	20.748771
2240.621843	-2.993700	3.238100	-9.693100	27.529001	3.552711E-5	20.715309
2241.609590	-3.002600	3.235500	-9.714200	27.520794	3.585714E-5	20.736451
2242.609406	-3.006900	3.237600	-9.734600	27.514748	3.552711E-5	20.721832
2243.610498	-2.954700	3.237000	-9.562900	27.560356	3.546111E-5	20.733581
2244.609553	-2.987500	3.236400	-9.667500	27.487585	3.631917E-5	20.720107
2245.610303	-2.997300	3.235700	-9.697100	27.467076	3.493307E-5	20.744045
2246.610373	-2.988200	3.235500	-9.667300	27.485041	3.387699E-5	20.733670
2247.611544	-2.999000	3.235900	-9.703400	27.503438	3.199585E-5	20.721832
2248.611783	-2.985100	3.234700	-9.655400	27.571112	3.503208E-5	20.732550
2249.619668	-3.003400	3.232700	-9.708000	27.607000	3.486706E-5	20.727408
2250.614493	-2.975700	3.234600	-9.624000	27.643333	3.450404E-5	20.748320
2251.619560	-2.972200	3.233900	-9.611200	27.591977	3.324994E-5	20.730309
2252.618613	-3.029700	3.231300	-9.789200	27.621339	3.258990E-5	20.713860
2253.617239	-3.004000	3.233300	-9.712200	27.627246	3.308493E-5	20.732607
2254.617388	-3.019700	3.233000	-9.761800	27.635452	3.156682E-5	20.735648
2255.619598	-3.019900	3.231600	-9.758400	27.617894	3.159982E-5	20.710868
2256.614802	-3.033300	3.230000	-9.795900	27.581195	3.110479E-5	20.733211
2257.615035	-3.006100	3.230400	-9.709800	27.616440	3.225987E-5	20.729794
2258.618675	-2.979000	3.229700	-9.620300	27.592187	2.922365E-5	20.726254
2259.611806	-2.979600	3.228300	-9.618500	27.587507	3.074176E-5	20.737192
2260.625520	-2.991800	3.227800	-9.656300	27.614140	3.008171E-5	20.725109
2261.619617	-3.014500	3.227800	-9.729300	27.633297	3.133580E-5	20.712616
2262.616839	-3.016600	3.227300	-9.735000	27.597183	3.067576E-5	20.739342
2263.617653	-2.982300	3.227200	-9.623600	27.579650	3.136881E-5	20.737347
2264.618133	-2.988900	3.226400	-9.642600	27.600839	2.816757E-5	20.741124
2265.621756	-3.006600	3.226500	-9.700400	27.667638	2.747452E-5	20.754286
2266.614591	-2.991900	3.225900	-9.650600	27.708559	3.156682E-5	20.711536
2267.619788	-3.006100	3.226300	-9.698100	27.691775	2.994970E-5	20.718829
2268.618808	-2.973300	3.225400	-9.589100	27.690800	3.084077E-5	20.714054
2269.620255	-2.991500	3.225100	-9.646600	27.736708	3.070876E-5	20.730381
2270.617438	-3.003300	3.224300	-9.683400	27.794863	3.156682E-5	20.748129
2271.625242	-2.990800	3.225700	-9.646500	27.791078	3.037873E-5	20.760915
2272.620672	-2.983100	3.223700	-9.615500	27.753937	2.826658E-5	20.721640
2273.621087	-3.013000	3.223200	-9.710200	27.773677	2.737551E-5	20.739610
2274.626190	-2.991900	3.222900	-9.641800	27.743945	2.674847E-5	20.731026
2275.623234	-3.004000	3.221700	-9.677800	27.682545	2.724350E-5	20.735146
2276.627557	-2.997900	3.222600	-9.660900	27.681732	3.024672E-5	20.731957
2277.617682	-2.996400	3.223200	-9.656500	27.637446	2.655045E-5	20.741449
2278.623232	-2.997000	3.223100	-9.659100	27.647415	2.589040E-5	20.734410
2279.617949	-2.998000	3.221100	-9.655800	27.635610	2.839859E-5	20.743869
2280.622922	-2.982200	3.220100	-9.602700	27.702383	2.631944E-5	20.735668
2281.622931	-2.987600	3.219100	-9.616300	27.756836	2.793655E-5	20.738783
2282.623225	-2.976900	3.219600	-9.583800	27.740646	2.579140E-5	20.746198
2283.623260	-3.001800	3.217800	-9.658200	27.711757	2.803556E-5	20.744628
2284.624873	-3.000000	3.218600	-9.654900	27.739630	2.608842E-5	20.737115
2285.623981	-3.018000	3.217500	-9.709600	27.750492	2.589040E-5	20.734295
2286.623684	-2.994100	3.217800	-9.633800	27.732563	2.407527E-5	20.741857
2287.624313	-2.991000	3.218300	-9.625300	27.706826	2.556038E-5	20.748675
2288.620403	-2.975500	3.216200	-9.569000	27.700652	2.457031E-5	20.756213
2289.628247	-3.006300	3.214800	-9.663700	27.715283	2.196312E-5	20.743435
2290.623136	-2.986400	3.216100	-9.604000	27.775966	2.400927E-5	20.752820
2291.625835	-2.978200	3.215900	-9.576000	27.791466	2.420728E-5	20.759883
2292.628154	-2.982400	3.215000	-9.587200	27.735105	2.364624E-5	20.761486
2293.630338	-3.004600	3.214200	-9.656300	27.740881	2.391026E-5	20.763505
2294.627938	-2.991300	3.213300	-9.610800	27.769517	2.354723E-5	20.729733
2295.627581	-3.005200	3.213300	-9.655600	27.755162	2.156709E-5	20.745160
2296.630819	-2.975400	3.213500	-9.559900	27.730190	2.384425E-5	20.737573
2297.625965	-3.012000	3.212300	-9.674900	27.667725	2.183111E-5	20.762434
2298.631267	-2.971500	3.212300	-9.544700	27.722854	2.179810E-5	20.749631
2299.625753	-2.996000	3.210900	-9.618800	27.758403	2.189711E-5	20.727083
2300.626102	-3.013400	3.209800	-9.671700	27.715965	2.156709E-5	20.763088
2301.628560	-3.004100	3.209500	-9.640500	27.703113	2.193011E-5	20.746835
2302.627761	-2.989000	3.209600	-9.592900	27.705152	2.196312E-5	20.742723
2303.631922	-3.001200	3.212600	-9.641400	27.700391	2.074203E-5	20.751209
2304.630192	-3.017900	3.209500	-9.684100	27.637697	2.298619E-5	20.764935
2305.628182	-3.001600	3.207400	-9.626500	27.654677	1.985096E-5	20.763055
2306.633271	-3.002900	3.208000	-9.632500	27.667058	2.212813E-5	20.748961
2307.633252	-3.011400	3.207900	-9.660100	27.633383	2.024699E-5	20.750162
2308.627098	-3.010500	3.206100	-9.650600	27.694274	2.328321E-5	20.748846
2309.632781	-2.997000	3.206500	-9.609100	27.725738	2.364624E-5	20.760120
2310.634650	-2.987000	3.205900	-9.575400	27.792985	2.094004E-5	20.745764
2311.627003	-3.000100	3.205500	-9.616200	27.837198	2.004897E-5	20.746165
2312.631428	-3.004900	3.204300	-9.627300	27.866911	2.206212E-5	20.752361
2313.634267	-2.992200	3.204500	-9.587800	27.803228	1.849786E-5	20.756073
2314.632058	-3.002300	3.205000	-9.621600	27.795616	1.968595E-5	20.761690
2315.630415	-3.002700	3.203700	-9.619000	27.753456	2.127006E-5	20.768099
2316.630743	-3.005900	3.202000	-9.623500	27.839302	2.166609E-5	20.766301
2317.627376	-2.983900	3.202400	-9.555000	27.884887	1.688074E-5	20.771876
2318.635869	-3.003300	3.202500	-9.617400	27.956705	1.892689E-5	20.751226
2319.631445	-3.022100	3.201000	-9.672900	27.929487	1.952094E-5	20.750857
2320.632725	-3.004400	3.200400	-9.614800	27.924996	1.833285E-5	20.750604
2321.630670	-3.022000	3.199400	-9.667700	27.882767	1.892689E-5	20.760734
2322.633326	-2.993300	3.200700	-9.579900	27.869105	1.948793E-5	20.756940
2323.638716	-3.002500	3.201100	-9.609600	27.800418	1.836585E-5	20.760832
2324.634312	-3.011000	3.198200	-9.628100	27.776974	1.787081E-5	20.766162
2325.634676	-2.991000	3.199600	-9.568700	27.829839	1.763980E-5	20.772424
2326.639058	-3.003000	3.199300	-9.606900	27.835485	1.968595E-5	20.760562
2327.636188	-2.980300	3.198200	-9.530700	27.830546	1.757379E-5	20.759385
2328.633176	-3.006000	3.196600	-9.608000	27.762108	1.707876E-5	20.742666
2329.635170	-3.001900	3.195900	-9.592800	27.800133	1.750779E-5	20.768132
2330.635488	-2.981300	3.195600	-9.526700	27.801514	1.704575E-5	20.787066
2331.635767	-2.999700	3.195200	-9.583800	27.825916	1.961994E-5	20.779855
2332.639669	-2.994900	3.194600	-9.566000	27.854850	1.730977E-5	20.766301
2333.636531	-2.986800	3.193300	-9.537500	27.965987	1.684774E-5	20.769579
2334.635700	-3.007400	3.193200	-9.602800	27.976822	1.734278E-5	20.764363
2335.637005	-3.022000	3.192700	-9.647400	27.956639	1.796982E-5	20.781506
2336.636048	-2.990200	3.193100	-9.546600	27.952424	1.622069E-5	20.778212
2337.633498	-2.993700	3.191900	-9.554500	27.862769	1.780481E-5	20.759098
2338.637456	-2.999600	3.190700	-9.570100	27.862996	1.780481E-5	20.762172
2339.635427	-3.016100	3.190400	-9.621200	27.893667	1.430655E-5	20.787826
2340.635055	-3.020000	3.190400	-9.634000	27.899726	1.476859E-5	20.784915
2341.637828	-3.016800	3.190600	-9.624200	27.877154	1.509861E-5	20.762670
2342.640317	-2.996100	3.188700	-9.551000	27.889979	1.661672E-5	20.777950
2343.636605	-2.972100	3.189400	-9.478800	27.833599	1.513161E-5	20.759138
2344.637399	-3.001600	3.187500	-9.566400	27.868300	1.506561E-5	20.776045
2345.637050	-2.982300	3.188500	-9.507800	27.886681	1.526362E-5	20.779372
2346.633646	-3.000700	3.186500	-9.560900	27.921738	1.308546E-5	20.789052
2347.644611	-3.019500	3.185700	-9.618200	27.974897	1.516462E-5	20.799884
2348.641317	-2.994600	3.185600	-9.538700	27.996622	1.569265E-5	20.761534
2349.636665	-2.985400	3.184900	-9.507200	28.059539	1.433956E-5	20.767494
2350.639698	-3.001200	3.184900	-9.558000	28.024609	1.222740E-5	20.776903
2351.638585	-2.988400	3.184300	-9.515800	28.018218	1.226040E-5	20.774262
2352.646780	-3.008200	3.183400	-9.575300	27.956533	1.325048E-5	20.772865
2353.640975	-3.026700	3.182500	-9.631900	27.937609	1.212839E-5	20.773731
2354.641764	-3.002000	3.182800	-9.554500	27.988736	1.427355E-5	20.794848
2355.645587	-2.986200	3.181700	-9.500600	27.995014	1.166636E-5	20.758018
2356.641367	-3.020400	3.179500	-9.603300	28.010185	1.239241E-5	20.782773
2357.652500	-3.002900	3.180500	-9.549500	27.968708	1.255742E-5	20.752402
2358.647957	-3.011400	3.180400	-9.575000	27.991660	1.394353E-5	20.799213
2359.644878	-3.021400	3.179100	-9.604500	27.962113	1.229340E-5	20.777058
2360.642109	-3.001900	3.178800	-9.541700	27.943692	1.047827E-5	20.787441
2361.644754	-3.017800	3.178900	-9.592700	27.901984	1.235941E-5	20.772489
2362.644844	-2.991200	3.178300	-9.505700	27.934302	1.202939E-5	20.782732
2363.648206	-3.015600	3.176100	-9.576700	27.923021	1.259043E-5	20.785127
2364.643386	-2.998900	3.176900	-9.526500	27.972809	1.318447E-5	20.772651
2365.645315	-3.021800	3.174600	-9.592100	28.002193	1.123733E-5	20.790375
2366.643209	-2.985200	3.174300	-9.475200	28.026834	1.123733E-5	20.789574
2367.645456	-2.999600	3.174500	-9.521700	28.076000	1.143534E-5	20.790228
2368.646334	-3.012000	3.173000	-9.556200	28.079712	1.222740E-5	20.784955
2369.645726	-2.994200	3.173700	-9.502300	28.118887	1.268943E-5	20.793097
2370.649410	-2.980300	3.174900	-9.461100	28.147642	1.285445E-5	20.772259
2371.646945	-3.005000	3.171200	-9.529000	28.107192	1.199638E-5	20.786541
2372.646974	-2.997800	3.171500	-9.507300	28.067595	1.090730E-5	20.801681
2373.647314	-2.985300	3.171800	-9.467700	28.109304	7.739070E-6	20.774441
2374.648306	-3.012300	3.169100	-9.545300	28.015293	1.041227E-5	20.795026
2375.644729	-2.997500	3.170200	-9.501700	28.019516	1.014825E-5	20.810182
2376.648090	-3.017200	3.168900	-9.560500	28.045074	9.125172E-6	20.815995
2377.645393	-3.004000	3.167000	-9.512900	28.064614	1.169936E-5	20.783033
2378.651405	-2.991500	3.167500	-9.474500	28.065726	1.163336E-5	20.794110
2379.650297	-3.005100	3.166400	-9.514500	28.056159	9.785220E-6	20.802498
2380.654383	-2.984400	3.167000	-9.450700	28.037375	9.818223E-6	20.760829
2381.653327	-3.023400	3.164000	-9.565200	28.058864	9.455196E-6	20.802849
2382.651815	-2.991000	3.164100	-9.463200	28.020222	8.465123E-6	20.791927
2383.664560	-2.993000	3.162500	-9.463600	28.000706	7.838077E-6	20.789826
2384.650384	-2.993400	3.163700	-9.469500	28.078037	7.970087E-6	20.813615
2385.652270	-2.982200	3.161700	-9.428000	28.122930	9.818223E-6	20.801909
2386.652295	-2.993300	3.162400	-9.465000	28.051416	9.059167E-6	20.812896
2387.652008	-3.009300	3.159700	-9.507400	28.106558	8.234106E-6	20.792066
2388.650175	-3.009800	3.160900	-9.512900	28.190167	8.696140E-6	20.815070
2389.652275	-3.003400	3.160800	-9.492600	28.195624	7.211031E-6	20.810607
2390.651844	-3.003900	3.158200	-9.486200	28.133900	6.352968E-6	20.798728
2391.652070	-2.994000	3.159100	-9.457700	28.131302	7.607060E-6	20.801802
2392.651794	-2.992200	3.158000	-9.448300	28.089374	8.498126E-6	20.804165
2393.654951	-2.993400	3.156400	-9.447400	28.166870	6.154953E-6	20.828125
2394.654777	-2.989200	3.155700	-9.432700	28.223167	7.310038E-6	20.802301
2395.658395	-2.992000	3.155500	-9.440500	28.122824	7.046019E-6	20.796586
2396.654519	-3.012600	3.153600	-9.499800	28.027660	3.250739E-6	20.806527
2397.654114	-3.007000	3.152700	-9.479500	27.969322	5.065873E-6	20.790953
2398.665496	-3.032200	3.151900	-9.556700	27.999641	4.438827E-6	20.798238
2399.656536	-2.985200	3.152200	-9.409100	28.047119	5.857931E-6	20.809993
2400.658814	-3.002400	3.151200	-9.459600	28.128532	6.220958E-6	20.815135
2401.657078	-2.984500	3.150000	-9.400100	28.135695	4.240812E-6	20.823768
2402.657350	-3.000100	3.149900	-9.449100	28.126656	3.976793E-6	20.794755
2403.659326	-2.988000	3.148500	-9.406700	28.154364	4.933863E-6	20.828338
2404.654287	-2.990800	3.148400	-9.415400	28.223101	4.570836E-6	20.806028
2405.659593	-2.984300	3.147500	-9.392600	28.184783	2.491683E-6	20.828615
2406.661514	-3.004400	3.146800	-9.453300	28.199683	3.613766E-6	20.806159
2407.653934	-2.997400	3.146700	-9.430500	28.198099	1.897640E-6	20.798875
2408.660983	-2.997900	3.147000	-9.432800	28.209378	3.613766E-6	20.814023
2409.661099	-3.010500	3.144300	-9.465300	28.263538	2.755703E-6	20.813075
2410.653984	-3.027000	3.142700	-9.512100	28.200860	2.887713E-6	20.822516
2411.654799	-3.006400	3.142600	-9.447400	28.244383	2.458681E-6	20.819868
2412.657006	-2.969500	3.143200	-9.331800	28.286792	4.009795E-6	20.818944
2413.662539	-2.976800	3.141800	-9.351600	28.347345	3.151732E-6	20.821593
2414.662589	-2.987300	3.139800	-9.379100	28.309153	1.435606E-6	20.814431
2415.660339	-2.999400	3.139200	-9.414900	28.235118	2.425679E-6	20.798212
2416.666949	-3.004800	3.138300	-9.428400	28.212163	2.524686E-6	20.828680
2417.660973	-2.987000	3.137600	-9.370800	28.241038	9.075668E-7	20.835465
2418.662282	-3.020700	3.135900	-9.470700	28.235240	1.138584E-6	20.821568
2419.667024	-2.978300	3.137700	-9.344200	28.267069	5.775425E-7	20.818053
2420.657011	-2.992500	3.135600	-9.382000	28.310793	1.864637E-6	20.832203
2421.662971	-2.983700	3.133900	-9.349900	28.314860	3.465255E-7	20.838195
2422.657828	-3.019500	3.131900	-9.454700	28.387054	1.501611E-6	20.823644
2423.663078	-3.004900	3.133700	-9.415500	28.394199	-2.145158E-7	20.806657
2424.661747	-2.981300	3.132900	-9.339100	28.330709	-4.950365E-8	20.833290
2425.658699	-3.003500	3.130600	-9.401700	28.269188	-1.072579E-6	20.817815
2426.662590	-2.992100	3.130500	-9.366200	28.262441	-3.316744E-6	20.830462
2427.661168	-3.023200	3.128200	-9.456200	28.195053	4.455328E-7	20.826628
2428.663306	-3.008800	3.127700	-9.408500	28.264674	-7.755571E-7	20.847408
2429.663666	-3.010600	3.128100	-9.415800	28.270325	5.445401E-7	20.848356
2430.660285	-2.964700	3.126800	-9.269200	28.205561	-1.815134E-7	20.837680
2431.662585	-2.998800	3.126700	-9.375200	28.250302	-1.072579E-6	20.839577
2432.661924	-3.020700	3.123500	-9.434100	28.263139	4.455328E-7	20.832587
2433.665969	-3.008600	3.124100	-9.398100	28.237010	-5.445401E-7	20.846583
2434.667305	-3.000400	3.123700	-9.371500	28.290729	-1.369601E-6	20.842348
2435.666206	-2.994900	3.123500	-9.352300	28.299969	-1.402603E-6	20.837427
2436.663130	-2.990500	3.121300	-9.332500	28.370459	-3.184735E-6	20.838228
2437.664317	-2.958600	3.121500	-9.234800	28.415193	-1.666623E-6	20.833487
2438.664139	-2.982600	3.120000	-9.303700	28.465648	-2.557688E-6	20.826922
2439.667881	-2.994400	3.119500	-9.340400	28.492909	-9.075668E-7	20.831614
2440.667178	-2.999600	3.118500	-9.353000	28.473734	1.815134E-7	20.850236
2441.676598	-3.012500	3.118500	-9.394100	28.520639	-3.910788E-6	20.833462
2442.670557	-3.023600	3.116100	-9.421200	28.424457	-1.996647E-6	20.842814
2443.670006	-3.003900	3.115700	-9.357800	28.328874	-1.963645E-6	20.867477
2444.665825	-3.019200	3.113400	-9.398800	28.293287	-1.006574E-6	20.850612
2445.674632	-2.980500	3.114400	-9.281500	28.277414	-3.481756E-6	20.849803
2446.670379	-2.989400	3.112700	-9.304400	28.352168	-2.392676E-6	20.833086
2447.668360	-2.997700	3.110900	-9.324700	28.396334	-2.161659E-6	20.853850
2448.667119	-2.980800	3.112000	-9.275000	28.397349	-2.590691E-6	20.852501
2449.673135	-3.008500	3.109800	-9.355300	28.437032	-5.230885E-6	20.845994
2450.670756	-2.997500	3.109800	-9.320200	28.519998	-2.161659E-6	20.854626
2451.672142	-2.986700	3.108600	-9.283800	28.485205	-5.197883E-6	20.847089
2452.671347	-3.009600	3.106200	-9.347300	28.371929	-4.306817E-6	20.845871
2453.671012	-2.976000	3.106400	-9.243600	28.317011	-2.788705E-6	20.853637
2454.674898	-2.995300	3.105200	-9.300500	28.269147	-3.679771E-6	20.847645
2455.678050	-2.999600	3.103900	-9.309700	28.269894	-3.778778E-6	20.842233
2456.669910	-3.017900	3.101800	-9.359200	28.250285	-5.296890E-6	20.858051
2457.670074	-3.018100	3.100300	-9.356000	28.248758	-4.009795E-6	20.852247
2458.670593	-2.985400	3.101700	-9.258600	28.284794	-5.362895E-6	20.858656
2459.675972	-3.007900	3.099200	-9.321700	28.314640	-4.603839E-6	20.871163
2460.671497	-2.996600	3.098700	-9.284500	28.328816	-7.178029E-6	20.871686
2461.674794	-2.995300	3.097200	-9.276500	28.395342	-4.735849E-6	20.852852
2462.675585	-2.991100	3.097700	-9.264600	28.495635	-3.844783E-6	20.847162
2463.675955	-3.019600	3.095200	-9.345800	28.564757	-2.953718E-6	20.866985
2464.678148	-2.991100	3.096000	-9.258700	28.514323	-5.824929E-6	20.860290
2465.677608	-3.032200	3.093400	-9.379700	28.560024	-4.504832E-6	20.859849
2466.679046	-2.991800	3.093000	-9.253100	28.463577	-6.385970E-6	20.855655
2467.680952	-3.004800	3.092200	-9.290800	28.473124	-5.560910E-6	20.867165
2468.678534	-3.027500	3.089400	-9.351900	28.494539	-4.603839E-6	20.846532
2469.677106	-2.980200	3.089600	-9.206600	28.512155	-6.782000E-6	20.861900
2470.685761	-2.997300	3.087800	-9.254300	28.574773	-6.022944E-6	20.856211
2471.677560	-2.982700	3.087500	-9.207600	28.545234	-6.782000E-6	20.862023
2472.677916	-2.977000	3.086600	-9.188100	28.504873	-6.418973E-6	20.851249
2473.680895	-2.995800	3.084900	-9.240800	28.496479	-6.715995E-6	20.864132
2474.681571	-2.983400	3.084600	-9.201900	28.538480	-5.989941E-6	20.840998
2475.677474	-2.991200	3.084200	-9.224500	28.557808	-5.362895E-6	20.851453
2476.679570	-3.016400	3.082400	-9.296700	28.625626	-4.933863E-6	20.852900
2477.680784	-2.993600	3.080500	-9.220900	28.645845	-4.603839E-6	20.849082
2478.684981	-2.980600	3.079900	-9.179100	28.595991	-5.692919E-6	20.862407
2479.684332	-2.990700	3.079900	-9.210200	28.608508	-6.352968E-6	20.853202
2480.687757	-3.017000	3.076800	-9.282000	28.676469	-5.197883E-6	20.841521
2481.686423	-2.992100	3.075800	-9.202900	28.720525	-7.442048E-6	20.856023
2482.685707	-3.027800	3.076000	-9.312700	28.697166	-6.848004E-6	20.857625
2483.682557	-2.986500	3.075000	-9.182700	28.681753	-4.339820E-6	20.836411
2484.683160	-3.026400	3.072700	-9.297900	28.718739	-6.187956E-6	20.839052
2485.685417	-3.009700	3.071400	-9.243100	28.673499	-4.735849E-6	20.836632
2486.685316	-2.989100	3.070800	-9.178200	28.586908	-8.069094E-6	20.842354
2487.682507	-2.979000	3.070400	-9.145300	28.515807	-7.046019E-6	20.829545
2488.687794	-2.984700	3.069000	-9.159700	28.462010	-5.758924E-6	20.849810
2489.686466	-3.009700	3.066600	-9.229000	28.508631	-7.640063E-6	20.836068
2490.682565	-3.007600	3.065900	-9.220500	28.462862	-7.871080E-6	20.838340
2491.687864	-2.998900	3.065400	-9.192200	28.425737	-5.494905E-6	20.827509
2492.687730	-3.011500	3.064200	-9.226800	28.466280	-5.329893E-6	20.844153
2493.688795	-2.988400	3.063900	-9.155100	28.523527	-4.405824E-6	20.824043
2494.690333	-3.007200	3.060200	-9.200400	28.560453	-6.616987E-6	20.845583
2495.686049	-2.988200	3.059300	-9.141100	28.626016	-6.385970E-6	20.831482
2496.685879	-3.000200	3.058700	-9.176000	28.635634	-5.230885E-6	20.828367
2497.692491	-2.996900	3.057800	-9.163000	28.669505	-6.352968E-6	20.830713
2498.702970	-3.005800	3.056800	-9.186800	28.690413	-5.890934E-6	20.812892
2499.690567	-3.000000	3.056100	-9.167300	28.699763	-7.541055E-6	20.855025
2500.692132	-3.016100	3.053200	-9.207900	28.686362	-6.649990E-6	20.794114
2501.689200	-3.017600	3.053000	-9.211800	28.659107	-5.362895E-6	20.822137
2502.691161	-2.977000	3.052600	-9.086600	28.638969	-7.706068E-6	20.829356
2503.690144	-2.974500	3.052600	-9.079000	28.687734	-7.244034E-6	20.824418
2504.693146	-3.025900	3.049000	-9.225200	28.661566	-5.824929E-6	20.840735
2505.688055	-3.019200	3.047800	-9.200200	28.652906	-7.046019E-6	20.829641
2506.690717	-2.991300	3.046700	-9.113000	28.712172	-6.815002E-6	20.834334
2507.691057	-2.999600	3.045300	-9.134200	28.740513	-6.815002E-6	20.831587
2508.688027	-2.987000	3.045900	-9.097800	28.737940	-7.673065E-6	20.816194
2509.691330	-2.996200	3.043400	-9.117400	28.721026	-7.838077E-6	20.831873
2510.696110	-3.005200	3.041500	-9.139600	28.733639	-6.980014E-6	20.810438
2511.690501	-2.994700	3.041300	-9.107400	28.771719	-7.112024E-6	20.826510
2512.691960	-2.997100	3.040000	-9.110100	28.845943	-6.715995E-6	20.792224
2513.693701	-3.006800	3.037200	-9.130300	28.874410	-5.923936E-6	20.813790
2514.692389	-2.978600	3.040000	-9.053400	28.877145	-6.451975E-6	20.818441
2515.691861	-2.999200	3.035800	-9.104500	28.721545	-8.069094E-6	20.817697
2516.689873	-2.992600	3.034200	-9.079000	28.682790	-6.088948E-6	20.799524
2517.693099	-3.005800	3.033600	-9.117200	28.699948	-8.564131E-6	20.798788
2518.689299	-3.023700	3.032700	-9.168600	28.722073	-8.036092E-6	20.813013
2519.693028	-3.009900	3.031500	-9.123400	28.745000	-7.046019E-6	20.799123
2520.697869	-2.992600	3.030200	-9.067400	28.662709	-7.904082E-6	20.789730
2521.700042	-3.018200	3.027300	-9.136300	28.682619	-8.861153E-6	20.802671
2522.694543	-2.975100	3.028200	-9.007300	28.665396	-7.310038E-6	20.811402
2523.693961	-3.014000	3.025000	-9.115800	28.686791	-6.947012E-6	20.791700
2524.696582	-2.988900	3.024900	-9.040600	28.670395	-8.762145E-6	20.798894
2525.694489	-3.034700	3.021500	-9.168000	28.615218	-8.795148E-6	20.800218
2526.697717	-3.010800	3.020700	-9.093800	28.674859	-8.102097E-6	20.801968
2527.692171	-2.991400	3.020300	-9.034000	28.706456	-8.531128E-6	20.790645
2528.701161	-2.996700	3.018900	-9.045200	28.793637	-5.824929E-6	20.808761
2529.696496	-2.984900	3.018700	-9.009100	28.832762	-9.917231E-6	20.793171
2530.693483	-3.004900	3.015600	-9.060300	28.872769	-8.894155E-6	20.785110
2531.694783	-2.997700	3.016300	-9.041000	28.818211	-8.168102E-6	20.779461
2532.691813	-3.016700	3.013100	-9.088800	28.797273	-6.815002E-6	20.796302
2533.692461	-3.003200	3.011800	-9.043700	28.746712	-8.201104E-6	20.783303
2534.695050	-3.017000	3.010700	-9.082100	28.769339	-8.861153E-6	20.779543
2535.699853	-3.002700	3.010300	-9.037100	28.760517	-7.508053E-6	20.789623
2536.701317	-2.991900	3.009400	-9.003000	28.787696	-7.178029E-6	20.797561
2537.694980	-3.005200	3.006900	-9.035300	28.833354	-8.465124E-6	20.783810
2538.695736	-2.986300	3.005900	-8.975500	28.894006	-8.168102E-6	20.767623
2539.702469	-3.003800	3.004500	-9.023800	28.878174	-9.686214E-6	20.794822
2540.696895	-3.005700	3.003000	-9.025200	28.839456	-8.696141E-6	20.797070
2541.703969	-3.019200	3.002100	-9.063400	28.803270	-1.034626E-5	20.785747
2542.699517	-3.011400	3.000900	-9.036000	28.779856	-1.166636E-5	20.774964
2543.697751	-2.972700	3.000300	-8.917800	28.781666	-1.037926E-5	20.790064
2544.698098	-3.003900	2.997300	-9.002400	28.820044	-9.620209E-6	20.781308
2545.698833	-3.010000	2.996600	-9.019000	28.834287	-1.057728E-5	20.764361
2546.699441	-3.003700	2.994700	-8.994000	28.759177	-1.120433E-5	20.778790
2547.697764	-2.985200	2.993600	-8.935800	28.821237	-8.432121E-6	20.800528
2548.697577	-2.989700	2.991800	-8.942300	28.871162	-1.051127E-5	20.799612
2549.700820	-2.992400	2.991100	-8.949900	28.889867	-9.290184E-6	20.779101
2550.698611	-3.024100	2.988400	-9.036800	28.887960	-8.960160E-6	20.780499
2551.701509	-3.027500	2.987600	-9.043000	28.869060	-1.034626E-5	20.758613
2552.698515	-2.982500	2.988300	-8.912200	28.889453	-1.097331E-5	20.781529
2553.700935	-3.001400	2.985400	-8.959900	28.877710	-1.074229E-5	20.782027
2554.699457	-3.013300	2.982700	-8.987000	28.860369	-1.021425E-5	20.765031
2555.704911	-2.989700	2.981800	-8.914000	28.911549	-1.011525E-5	20.774392
2556.699741	-3.003400	2.980300	-8.950200	28.963230	-9.983235E-6	20.761973
2557.702446	-2.990600	2.980000	-8.911300	28.968756	-9.587206E-6	20.769911
2558.704493	-2.967000	2.977200	-8.831700	28.890605	-1.051127E-5	20.766094
2559.700845	-2.969700	2.977600	-8.841800	28.924127	-9.521201E-6	20.777580
2560.700607	-3.032400	2.973100	-9.015100	28.998316	-8.828150E-6	20.765080
2561.705449	-2.985700	2.973300	-8.876200	28.959530	-1.018125E-5	20.773893
2562.703618	-2.969900	2.973100	-8.828000	28.892731	-9.851226E-6	20.771554
2563.697706	-3.003900	2.969800	-8.919400	28.941183	-1.064328E-5	20.759201
2564.709368	-2.984300	2.969200	-8.860300	28.927364	-1.212839E-5	20.777522
2565.704931	-2.993000	2.966500	-8.878000	28.842499	-8.630136E-6	20.771685
2566.703425	-3.000600	2.966700	-8.901300	28.776877	-1.021425E-5	20.764376
2567.705586	-3.018900	2.964500	-8.949100	28.830788	-1.140234E-5	20.769371
2568.706966	-3.009000	2.963100	-8.915100	28.768363	-9.620209E-6	20.763861
2569.707482	-3.006200	2.961000	-8.900200	28.785455	-1.239241E-5	20.767328
2570.708209	-2.988500	2.960900	-8.847800	28.820887	-1.051127E-5	20.767932
2571.710312	-3.010400	2.957800	-8.904100	28.824555	-1.041227E-5	20.773998
2572.705844	-2.995800	2.956900	-8.856900	28.861398	-1.064328E-5	20.772707
2573.708219	-2.984900	2.955100	-8.819100	28.967473	-8.894155E-6	20.770516
2574.703715	-2.979100	2.954000	-8.799700	28.954498	-1.041227E-5	20.768349
2575.705639	-2.994100	2.951700	-8.836900	28.997674	-1.021425E-5	20.752579
2576.715140	-3.000500	2.949900	-8.850500	29.038349	-9.059167E-6	20.763215
2577.710065	-2.985200	2.950500	-8.806900	29.012020	-1.136934E-5	20.747592
2578.708469	-3.005600	2.946300	-8.854100	29.020125	-1.272244E-5	20.757182
2579.713083	-3.010300	2.944600	-8.863300	28.976683	-9.554204E-6	20.772682
2580.711791	-2.991400	2.945400	-8.810300	28.911710	-1.041227E-5	20.750372
2581.711369	-3.009400	2.943800	-8.857200	28.918162	-9.191177E-6	20.753077
2582.713121	-2.991800	2.940900	-8.797400	28.864117	-8.993162E-6	20.772126
2583.707164	-2.945500	2.940500	-8.660300	28.875064	-1.202939E-5	20.734315
2584.708535	-3.008500	2.937000	-8.835100	28.938919	-1.130333E-5	20.758342
2585.705368	-2.994600	2.937200	-8.795000	28.975368	-8.894155E-6	20.749071
2586.711843	-2.998900	2.933900	-8.797200	29.011833	-9.917231E-6	20.764948
2587.709442	-2.977800	2.933200	-8.733400	28.947812	-1.255743E-5	20.744542
2588.708410	-3.015300	2.930600	-8.836000	28.885978	-1.173236E-5	20.753372
2589.710815	-3.020200	2.928300	-8.842800	28.883308	-1.100631E-5	20.757320
2590.711573	-2.994400	2.928600	-8.768000	28.958417	-1.156735E-5	20.752857
2591.707956	-3.002100	2.925900	-8.783400	28.991117	-1.173236E-5	20.760198
2592.712133	-2.977600	2.925100	-8.709500	28.965387	-1.136934E-5	20.737119
2593.710634	-3.007500	2.922900	-8.789500	28.954563	-1.173236E-5	20.773156
2594.709702	-2.981800	2.921300	-8.710100	28.884339	-1.219440E-5	20.748875
2595.716819	-2.982500	2.918900	-8.704700	28.839625	-1.265643E-5	20.748875
2596.712216	-3.013200	2.918100	-8.791600	28.905032	-1.278844E-5	20.746488
2597.712016	-3.004800	2.915100	-8.758000	28.974938	-1.262343E-5	20.742948
2598.719413	-2.981600	2.915300	-8.691200	29.026080	-1.143534E-5	20.741370
2599.714425	-3.012400	2.911700	-8.769300	29.070649	-1.212839E-5	20.754982
2600.715899	-2.968700	2.910200	-8.638200	29.086421	-8.465124E-6	20.724880
2601.716269	-2.975400	2.909800	-8.657000	29.112026	-1.103931E-5	20.736457
2602.715697	-2.990300	2.907300	-8.691900	29.044718	-1.249142E-5	20.745450
2603.717130	-3.009200	2.904900	-8.740200	28.999345	-1.212839E-5	20.741934
2604.716299	-3.014300	2.903500	-8.751100	29.043014	-1.173236E-5	20.754639
2605.713253	-2.984600	2.901000	-8.657300	29.035728	-1.173236E-5	20.735917
2606.717236	-2.979300	2.900100	-8.638200	29.010810	-1.470258E-5	20.726458
2607.712570	-2.996400	2.898000	-8.682400	28.995483	-1.358050E-5	20.726188
2608.715654	-3.014800	2.895300	-8.728100	28.993925	-1.189738E-5	20.721773
2609.714387	-2.986400	2.895200	-8.645500	29.014859	-1.229341E-5	20.748556
2610.716820	-3.016100	2.892300	-8.722600	29.055817	-1.140234E-5	20.730554
2611.715245	-2.972100	2.891500	-8.592400	29.129559	-1.354750E-5	20.745114
2612.717546	-3.014900	2.889300	-8.710600	29.147310	-1.239241E-5	20.745458
2613.714606	-3.017400	2.886500	-8.709200	29.087305	-1.133634E-5	20.737626
2614.718752	-2.998300	2.885700	-8.651600	29.114371	-1.341549E-5	20.745458
2615.720765	-3.004100	2.883300	-8.660500	29.162026	-1.179837E-5	20.733260
2616.717162	-2.991700	2.882200	-8.621400	29.193771	-1.420755E-5	20.724471
2617.720649	-3.006700	2.879900	-8.658400	29.175948	-1.377852E-5	20.748237
2618.720302	-2.969000	2.879000	-8.547100	29.147018	-1.354750E-5	20.737102
2619.721657	-3.005400	2.876200	-8.643800	29.150036	-1.057728E-5	20.746782
2620.727107	-2.999100	2.873700	-8.617400	29.208998	-1.377852E-5	20.736023
2621.721227	-3.011900	2.871300	-8.647200	29.182154	-1.509861E-5	20.740740
2622.721256	-3.036900	2.869300	-8.712100	29.205194	-1.348149E-5	20.744517
2623.723798	-3.014500	2.867900	-8.644900	29.175396	-1.285445E-5	20.725395
2624.719401	-3.011500	2.866300	-8.631200	29.199304	-1.341549E-5	20.731469
2625.724443	-3.005000	2.865700	-8.610400	29.211335	-1.209539E-5	20.737429
2626.723457	-3.012100	2.861700	-8.618300	29.181781	-1.476859E-5	20.724242
2627.724146	-2.992600	2.861000	-8.560500	29.136868	-1.278844E-5	20.727823
2628.723654	-3.015600	2.857600	-8.616300	29.207846	-1.265643E-5	20.727750
2629.725184	-3.012100	2.856300	-8.602400	29.199985	-1.232641E-5	20.722198
2630.721646	-2.949600	2.855400	-8.421300	29.167478	-1.417454E-5	20.743021
2631.729024	-3.002100	2.853100	-8.564700	29.139716	-1.348149E-5	20.714096
2632.728887	-2.980700	2.851000	-8.496900	29.188733	-1.222740E-5	20.723188
2633.723799	-3.015800	2.847100	-8.585800	29.269856	-1.249142E-5	20.738083
2634.722475	-2.980700	2.847000	-8.485500	29.338245	-1.110532E-5	20.733039
2635.728940	-2.992600	2.844900	-8.512800	29.345262	-1.288745E-5	20.750543
2636.724298	-2.971300	2.843200	-8.447800	29.330750	-1.070929E-5	20.738762
2637.725620	-2.983700	2.840400	-8.474500	29.279493	-1.084130E-5	20.729303
2638.731693	-3.006300	2.838500	-8.532400	29.320076	-1.103931E-5	20.729426
2639.729880	-3.000300	2.836600	-8.509900	29.293339	-1.282144E-5	20.720498
2640.729105	-2.996900	2.834800	-8.494200	29.298985	-1.232641E-5	20.742310
2641.730139	-3.002500	2.833400	-8.505600	29.276394	-1.074229E-5	20.719067
2642.732342	-3.035500	2.827500	-8.581700	29.317610	-1.311847E-5	20.709395
2643.726271	-2.989500	2.826200	-8.447500	29.343664	-1.255743E-5	20.738026
2644.729015	-3.010000	2.824300	-8.500900	29.320108	-1.219440E-5	20.706223
2645.727180	-3.005300	2.822000	-8.480100	29.212933	-1.176537E-5	20.710589
2646.729145	-2.998100	2.820000	-8.453100	29.120707	-1.443856E-5	20.732401
2647.728449	-3.002000	2.818000	-8.458500	29.100757	-1.259043E-5	20.711349
2648.733839	-3.009400	2.813900	-8.467900	29.227470	-1.097331E-5	20.720024
2649.729650	-2.982100	2.813100	-8.387300	29.337694	-1.140234E-5	20.696919
2650.726879	-3.034300	2.807900	-8.518900	29.398373	-1.179837E-5	20.721095
2651.736170	-3.026700	2.805000	-8.488900	29.406752	-1.265643E-5	20.721005
2652.731085	-3.024900	2.803000	-8.477800	29.277270	-1.298646E-5	20.692447
2653.733399	-3.016100	2.800000	-8.443100	29.226716	-1.034626E-5	20.715470
2654.729562	-3.003100	2.799000	-8.404800	29.243175	-1.315147E-5	20.711668
2655.730011	-3.005300	2.796000	-8.402000	29.244838	-1.259043E-5	20.718560
2656.729445	-2.984100	2.793800	-8.335700	29.282170	-1.146834E-5	20.709714
2657.734769	-3.005400	2.790300	-8.385300	29.252358	-1.377852E-5	20.724716
2658.730746	-2.983400	2.788300	-8.318100	29.247783	-1.308546E-5	20.701612
2659.730074	-2.992800	2.785800	-8.335800	29.245138	-1.387752E-5	20.704163
2660.732869	-2.983600	2.783900	-8.304900	29.243670	-1.282144E-5	20.715486
2661.734010	-2.992300	2.780900	-8.320400	29.200683	-1.473559E-5	20.723850
2662.732857	-3.020900	2.776000	-8.385200	29.148746	-1.331648E-5	20.711341
2663.726985	-3.002100	2.772700	-8.323100	29.123766	-1.301946E-5	20.721258
2664.735048	-2.985700	2.770700	-8.271900	29.176459	-1.305246E-5	20.711766
2665.733077	-3.009300	2.767000	-8.325900	29.159877	-1.193038E-5	20.726826
2666.731520	-3.009000	2.765200	-8.319700	29.252561	-1.367951E-5	20.704057
2667.733141	-2.995500	2.762300	-8.273700	29.311201	-1.179837E-5	20.713369
2668.730525	-2.988200	2.758600	-8.242400	29.345716	-1.298646E-5	20.709273
2669.734518	-3.024200	2.755300	-8.331900	29.384958	-1.417454E-5	20.690027
2670.734658	-2.999000	2.752700	-8.254100	29.375249	-1.318447E-5	20.707270
2671.732236	-2.997800	2.750100	-8.243400	29.391966	-1.113832E-5	20.738819
2672.733722	-2.992900	2.746000	-8.217000	29.493081	-1.226040E-5	20.710344
2673.734206	-2.959300	2.745000	-8.122500	29.515310	-1.199638E-5	20.702879
2674.732864	-3.004200	2.740900	-8.233500	29.456487	-1.090730E-5	20.709019
2675.735187	-3.013900	2.736600	-8.246300	29.428335	-1.427355E-5	20.711938
2676.737003	-2.951000	2.734500	-8.068800	29.475376	-1.219440E-5	20.709093
2677.737336	-2.996000	2.730200	-8.178500	29.527013	-1.308546E-5	20.713728
2678.737036	-2.958600	2.726600	-8.065600	29.566378	-1.437256E-5	20.705046
2679.744015	-3.003500	2.721500	-8.173300	29.618684	-1.272244E-5	20.723637
2680.739096	-3.009500	2.718600	-8.180600	29.660389	-1.483459E-5	20.707360
2681.736319	-2.989200	2.714900	-8.114800	29.700098	-1.404253E-5	20.711357
2682.747807	-2.988600	2.711200	-8.101400	29.660835	-1.358050E-5	20.730570
2683.738153	-3.015000	2.706800	-8.160400	29.580538	-1.235941E-5	20.733072
2684.746662	-2.989000	2.703700	-8.081000	29.452521	-1.285445E-5	20.709289
2685.739638	-3.013400	2.700200	-8.135200	29.430257	-1.295345E-5	20.714350
2686.738837	-3.013600	2.695600	-8.123300	29.546915	-1.265643E-5	20.711030
2687.742245	-3.014000	2.691600	-8.111100	29.522974	-1.169936E-5	20.704915
2688.742150	-2.986500	2.688700	-8.028700	29.586749	-1.288745E-5	20.717996
2689.734755	-3.002600	2.682700	-8.054500	29.626258	-1.216140E-5	20.704245
2690.741735	-3.015200	2.677900	-8.073400	29.601128	-1.196338E-5	20.702618
2691.734886	-3.007200	2.674100	-8.040300	29.574391	-1.150135E-5	20.712175
2692.737506	-2.984400	2.671200	-7.971400	29.567562	-1.282144E-5	20.708610
2693.739482	-2.994500	2.666300	-7.983300	29.621701	-1.242542E-5	20.705814
2694.739755	-2.997400	2.661800	-7.977200	29.634870	-1.216140E-5	20.711505
2695.740398	-3.001200	2.657200	-7.974400	29.669804	-1.262343E-5	20.686977
2696.741612	-2.994400	2.653200	-7.943200	29.665198	-1.265643E-5	20.731175
2697.739719	-2.994000	2.647200	-7.924600	29.715123	-1.232641E-5	20.715126
2698.743380	-2.998300	2.642800	-7.922000	29.654072	-1.305246E-5	20.704310
2699.739676	-3.018200	2.637000	-7.957500	29.666406	-1.275544E-5	20.708684
2700.745770	-3.002200	2.632300	-7.902200	29.663730	-1.136934E-5	20.730644
2701.742653	-2.970300	2.627500	-7.803100	29.642071	-1.226040E-5	20.714497
2702.743050	-3.006200	2.624000	-7.886300	29.683483	-1.163336E-5	20.713099
2703.746163	-3.016700	2.618200	-7.897300	29.662668	-1.189738E-5	20.711554
2704.744705	-2.979600	2.613400	-7.785200	29.667760	-1.202939E-5	20.720956
2705.743100	-2.997700	2.606800	-7.813500	29.732143	-1.189738E-5	20.727545
2706.741172	-2.990300	2.602400	-7.781300	29.706617	-1.173236E-5	20.695644
2707.744965	-2.982300	2.596800	-7.742800	29.683840	-1.133634E-5	20.714881
2708.741707	-3.003900	2.590800	-7.781800	29.706115	-1.354750E-5	20.729753
2709.744625	-2.990800	2.585400	-7.731600	29.741913	-1.021425E-5	20.735500
2710.741071	-3.012600	2.580300	-7.772700	29.788835	-1.051127E-5	20.717849
2711.744296	-2.996200	2.574900	-7.714500	29.869393	-1.292045E-5	20.718945
2712.744711	-3.032300	2.567300	-7.784100	29.905324	-1.156735E-5	20.710605
2713.745046	-3.005500	2.562500	-7.700700	29.919584	-8.465124E-6	20.709338
2714.754626	-2.987500	2.556200	-7.635800	29.956324	-1.163336E-5	20.700868
2715.740081	-3.011500	2.548800	-7.674800	29.958034	-1.103931E-5	20.691687
2716.745879	-2.995300	2.543500	-7.618100	29.972756	-1.206239E-5	20.727872
2717.752274	-3.006000	2.537000	-7.625600	29.864780	-1.179837E-5	20.725199
2718.745450	-2.986100	2.531200	-7.557200	29.825474	-1.150135E-5	20.742940
2719.742088	-3.028500	2.523900	-7.643200	29.831944	-1.222740E-5	20.731919
2720.746466	-2.992800	2.519200	-7.538500	29.917322	-1.166636E-5	20.704212
2721.746862	-2.982800	2.513500	-7.496500	29.985775	-9.587206E-6	20.724880
2722.745314	-2.993600	2.506900	-7.503800	30.046750	-1.047827E-5	20.735639
2723.744363	-3.021700	2.499900	-7.553100	30.076174	-1.011525E-5	20.713630
